time,seconds_elapsed,z,y,x
1779999119222349600,0.399349609375,-0.0052280002273619175,0.004259000066667795,-0.10136599838733673
1779999119239626200,0.416626220703125,-0.005807000212371349,0.0030700000934302807,-0.06519299745559692
1779999119256903000,0.43390283203125,-0.001993000041693449,0.002182000083848834,-0.04191499948501587
1779999119274179600,0.4511796875,0.007017999887466431,0.002213000087067485,-0.028126999735832214
1779999119291455700,0.468455810546875,0.007797999773174524,0.0025259999092668295,-0.01954600028693676
1779999119308732400,0.485732421875,-0.0007259999983943999,0.002713999943807721,-0.01261099986732006
1779999119326009000,0.503009033203125,-0.009820000268518925,0.0006779999821446836,-0.0063229999504983425
1779999119343285800,0.52028564453125,-0.013253999873995781,0.00021699999342672527,-0.003191000083461404
1779999119360562200,0.537562255859375,-0.0078050000593066216,0.001095999963581562,-0.0034459999296814203
1779999119377838800,0.5548388671875,-0.0024679999332875013,0.0005729999975301325,-0.0036090000066906214
1779999119395115500,0.572115478515625,-0.003582000033929944,0.0005070000188425183,-0.0025140000507235527
1779999119412392000,0.589391845703125,-0.003034000052139163,0.00014600000577047467,-0.00203000009059906
1779999119429668600,0.606668701171875,0.0010310000507161021,-0.0006590000120922923,-0.0021669999696314335
1779999119446945000,0.623945068359375,0.0008510000188834965,-0.0014809999847784638,-0.0024840000551193953
1779999119464221700,0.6412216796875,-0.003642000025138259,-0.002696000039577484,-0.0008880000095814466
1779999119481498400,0.658498291015625,-0.007627000100910664,-0.0018779999809339643,-0.0009379999828524888
1779999119498774800,0.67577490234375,-0.012575999833643436,0.00005999999848427251,-0.0012250000145286322
1779999119516051500,0.693051513671875,0.006359000224620104,0.0031270000617951155,-0.006424999795854092
1779999119533328100,0.710328125,0.01295199990272522,0.005152999889105558,-0.007430000230669975
1779999119550604800,0.727604736328125,0.009068000130355358,-0.001563000027090311,-0.0012069999938830733
1779999119567881200,0.744881103515625,0.004999000113457441,-0.0033229999244213104,-0.0009379999828524888
1779999119585158000,0.762157958984375,0.017746999859809875,0.001395000028423965,-0.006814999971538782
1779999119602434600,0.7794345703125,0.016334999352693558,0.00010099999781232327,-0.005152999889105558
1779999119619711000,0.7967109375,0.0010110000148415565,-0.0006360000115819275,-0.0001449999981559813
1779999119636988000,0.81398779296875,-0.011897999793291092,0.0011230000527575612,0.0001610000035725534
1779999119654264300,0.831264404296875,-0.014786999672651291,0.00004199999966658652,-0.00036800000816583633
1779999119671541000,0.848541015625,-0.02266000024974346,-0.0010949999559670687,0.001588999992236495
1779999119688817700,0.865817626953125,-0.017974000424146652,0.001339999958872795,0.0020759999752044678
1779999119706094000,0.883093994140625,-0.005249999929219484,0.0014959999825805426,0.0008689999813213944
1779999119723370800,0.900370849609375,0.007691000122576952,0.0007660000119358301,-0.0010379999876022339
1779999119740647400,0.9176474609375,0.016690000891685486,0.00133200001437217,-0.002437999937683344
1779999119757924000,0.934924072265625,0.02164199948310852,-0.000039999998989515007,-0.002824000082910061
1779999119775200500,0.952200439453125,-0.003593999892473221,-0.003930999897420406,0.0031049998942762613
1779999119792477000,0.969476806640625,-0.022846000269055367,-0.007110000122338533,0.005140000022947788
1779999119809753600,0.986753662109375,-0.01984100043773651,-0.0003000000142492354,-0.001534000039100647
1779999119827030300,1.0040302734375,-0.010437999852001667,0.002320999978110194,-0.0039809998124837875
1779999119844306700,1.021306640625,-0.01586800068616867,-0.0004920000210404396,-0.0012329999590292573
1779999119861583400,1.038583251953125,-0.00841899961233139,0.0005779999773949385,-0.004604999907314777
1779999119878860000,1.055860107421875,0.007027000188827515,-0.0020669999066740274,-0.008932000026106834
1779999119896136700,1.07313671875,0.011528000235557556,-0.0034409998916089535,-0.008231000043451786
1779999119913413400,1.090413330078125,0.014677999541163445,-0.005648000165820122,-0.004960999824106693
1779999119930689800,1.107689697265625,0.02200300060212612,-0.003869999898597598,-0.0031109999399632215
1779999119947966500,1.124966552734375,0.020462999120354652,-0.0024129999801516533,-0.0023360000923275948
1779999119965243100,1.1422431640625,0.012993999756872654,0.002730000065639615,-0.0034469999372959137
1779999119982519800,1.159519775390625,0.0013749999925494194,0.004989000037312508,-0.0019379999721422791
1779999119999796500,1.17679638671875,-0.007542000152170658,0.008425000123679638,0.0015030000358819962
1779999120017073000,1.194072998046875,-0.014678999781608582,0.016610000282526016,0.0038079998921602964
1779999120042988000,1.219988037109375,-0.0162579994648695,-0.021175000816583633,0.004279999993741512
1779999120060264700,1.2372646484375,0.016838999465107918,0.02470799908041954,-0.010991999879479408
1779999120077541400,1.254541259765625,0.011261999607086182,-0.0039029999170452356,-0.006167000159621239
1779999120094817800,1.27181787109375,0.009122000075876713,-0.0026000000070780516,0.0032760000322014093
1779999120112094500,1.289094482421875,0.004755000118166208,0.0016919999616220593,0.002339000115171075
1779999120129371100,1.30637109375,-0.004728000145405531,-0.0012390000047162175,-0.0011690000537782907
1779999120146647800,1.323647705078125,-0.00850099977105856,0.0026140001136809587,0.00015700000221841037
1779999120163924200,1.34092431640625,-0.0035250000655651093,0.001762000028975308,0.0018870000494644046
1779999120181201000,1.358200927734375,-0.0026259999722242355,0.001765000051818788,0.0012199999764561653
1779999120198477300,1.375477294921875,0.002606000052765012,0.003976000007241964,-0.005675999913364649
1779999120215754200,1.392754150390625,0.006529000122100115,-0.0031210000161081553,-0.004474999848753214
1779999120233030700,1.41003076171875,0.01018999982625246,-0.008964999578893185,0.0035290000960230827
1779999120258945500,1.435945556640625,0.03011699952185154,-0.013651000335812569,0.0007730000070296228
1779999120276222200,1.45322216796875,0.06715799868106842,-0.018755000084638596,-0.005528000183403492
1779999120293499000,1.470498779296875,0.09608600288629532,0.03311000019311905,-0.0072650001384317875
1779999120310775300,1.487775390625,0.12409300357103348,-0.023055000230669975,0.011366999708116055
1779999120328052000,1.505052001953125,0.23941899836063385,-0.018187999725341797,0.016513999551534653
1779999120345328600,1.52232861328125,0.5490099787712097,-0.01757499948143959,-0.004246999975293875
1779999120371243500,1.548243408203125,0.8900279998779297,-0.007288000080734491,-0.06201599910855293
1779999120388520200,1.565520263671875,0.695514976978302,0.0387520007789135,-0.061271000653505325
1779999120405796900,1.582796875,0.22470200061798096,-0.02507299929857254,0.01659500040113926
1779999120423073500,1.600073486328125,-0.8653339743614197,-0.03396400064229965,0.16185200214385986
1779999120440350000,1.617349853515625,-1.5883400440216064,-0.07324499636888504,0.2958599925041199
1779999120457626600,1.634626708984375,-1.810014009475708,0.010846000164747238,0.29956498742103577
1779999120474903300,1.6519033203125,-1.297363042831421,0.19714899361133575,0.12247300148010254
1779999120492180000,1.669179931640625,-0.038036998361349106,0.04282499849796295,0.02191000059247017
1779999120509456600,1.68645654296875,2.5216848850250244,-0.24808800220489502,-0.0062939999625086784
1779999120526733000,1.703733154296875,1.6875790357589722,-0.17890200018882751,-0.07419399917125702
1779999120544009700,1.721009765625,0.4603070020675659,0.0021349999587982893,-0.03643200173974037
1779999120561286400,1.738286376953125,-0.7461199760437012,0.006612000055611134,0.1253490000963211
1779999120578563000,1.75556298828125,-1.596276044845581,-0.035725999623537064,0.2720640003681183
1779999120595839500,1.772839599609375,-1.9887449741363525,-0.004397999960929155,0.2895810008049011
1779999120613116200,1.7901162109375,-1.9773839712142944,0.07611899822950363,0.18827900290489197
1779999120630392800,1.807392822265625,-0.6116939783096313,-0.040835000574588776,0.11769100278615952
1779999120647669500,1.82466943359375,1.0862220525741577,-0.18295599520206451,0.09925100207328796
1779999120664946200,1.8419462890625,1.1640260219573975,0.003306000027805567,-0.022955000400543213
1779999120682222800,1.859222900390625,1.6733609437942505,0.052411001175642014,-0.11945600062608719
1779999120699499300,1.876499267578125,1.7505890130996704,0.017897000536322594,-0.1554879993200302
1779999120716776000,1.89377587890625,1.0520989894866943,-0.08302400261163712,-0.03226799890398979
1779999120734052600,1.911052490234375,0.01826000027358532,-0.23483000695705414,0.20809699594974518
1779999120751329300,1.928329345703125,-1.2305840253829956,0.05251200124621391,0.21679900586605072
1779999120768605700,1.945605712890625,-3.185343027114868,0.4239000082015991,0.11410800367593765
1779999120785882400,1.96288232421875,-0.4674539864063263,0.10126499831676483,0.15568900108337402
1779999120803159000,1.980158935546875,1.350327968597412,-0.22517099976539612,0.09480399638414383
1779999120820435700,1.997435791015625,1.5763529539108276,-0.05343399941921234,-0.09443599730730057
1779999120837712100,2.014712158203125,1.3180160522460938,0.06898300349712372,-0.15766100585460663
1779999120854989000,2.031989013671875,0.705826997756958,0.017897000536322594,-0.04283500090241432
1779999120872265700,2.049265625,-0.10472699999809265,-0.04274599999189377,0.13637499511241913
1779999120889542100,2.066542236328125,-1.52811598777771,0.07208500057458878,0.1919039934873581
1779999120906819000,2.083819091796875,-2.2248458862304688,0.14297300577163696,0.11906599998474121
1779999120924095500,2.101095458984375,-0.1747400015592575,-0.07457000017166138,0.11206399649381638
1779999120941372200,2.1183720703125,0.31017300486564636,-0.036187998950481415,0.03080499917268753
1779999120958648800,2.13564892578125,0.9287359714508057,0.049633998423814774,-0.05595099925994873
1779999120975925500,2.152925537109375,1.366871953010559,0.012725000269711018,-0.13726800680160522
1779999120993202000,2.170201904296875,0.9399620294570923,-0.014801999554038048,-0.11056800186634064
1779999121010478600,2.187478515625,0.26714199781417847,-0.12303099781274796,0.05964000150561333
1779999121027755300,2.20475537109375,-0.5709059834480286,-0.12524500489234924,0.17620499432086945
1779999121045032000,2.222031982421875,-2.1573939323425293,0.20535799860954285,0.11182700097560883
1779999121062308600,2.23930859375,-1.6680079698562622,0.23781399428844452,0.07057300209999084
1779999121079585000,2.2565849609375,0.7180050015449524,-0.1085290014743805,0.08590400218963623
1779999121096861700,2.27386181640625,1.1331499814987183,-0.07578899711370468,-0.02863899990916252
1779999121114138400,2.291138427734375,1.2057499885559082,0.03227899968624115,-0.1213190034031868
1779999121131415000,2.3084150390625,0.9021210074424744,0.021462000906467438,-0.09234599769115448
1779999121148691700,2.325691650390625,0.3358969986438751,-0.023770999163389206,0.036715999245643616
1779999121165968400,2.342968505859375,-0.5894749760627747,0.010195000097155571,0.13021500408649445
1779999121183245000,2.3602451171875,-1.7087550163269043,0.08958099782466888,0.12540200352668762
1779999121209160000,2.386159912109375,-0.397938996553421,-0.013728000223636627,0.07366500049829483
1779999121226436600,2.4034365234375,0.10176599770784378,0.028491999953985214,0.022679999470710754
1779999121243713300,2.42071337890625,0.8238540291786194,0.03998100012540817,-0.0408720001578331
1779999121260989700,2.43798974609375,0.8862280249595642,0.04974700137972832,-0.09212499856948853
1779999121278266400,2.455266357421875,0.6584870219230652,0.0012080000014975667,-0.06777899712324142
1779999121295543000,2.47254296875,0.18381300568580627,-0.09136900305747986,0.044488001614809036
1779999121312819700,2.48981982421875,-0.36163100600242615,-0.07063800096511841,0.10376899689435959
1779999121330096400,2.507096435546875,-1.8498660326004028,0.15439100563526154,0.08884800225496292
1779999121347373000,2.524373046875,-0.43504300713539124,0.07623399794101715,0.07211299985647202
1779999121364649700,2.541649658203125,0.21639999747276306,-0.010413000360131264,0.028488999232649803
1779999121381926400,2.558926513671875,0.9722880125045776,-0.04026700183749199,-0.03665599972009659
1779999121399202800,2.576202880859375,1.0931119918823242,-0.03609500080347061,-0.090549997985363
1779999121416479500,2.5934794921875,0.65003502368927,-0.023253999650478363,-0.05575700104236603
1779999121433756200,2.610756103515625,0.015176000073552132,-0.005067999940365553,0.03325600177049637
1779999121451032800,2.62803271484375,-0.9824039936065674,0.06022199988365173,0.08190400153398514
1779999121468309500,2.6453095703125,-1.3123199939727783,0.08555799722671509,0.0666859969496727
1779999121494224400,2.671224365234375,-0.007393999956548214,-0.06563500314950943,0.04165799915790558
1779999121511501000,2.6885009765625,0.28508201241493225,-0.014223000034689903,-0.0027169999666512012
1779999121528777700,2.70577783203125,0.567143976688385,0.03412200137972832,-0.0392719991505146
1779999121554692900,2.73169287109375,0.8572559952735901,-0.04680899903178215,-0.050680000334978104
1779999121571969300,2.74896923828125,0.3263790011405945,-0.05206200107932091,0.022198999300599098
1779999121589246000,2.766245849609375,-0.3720119893550873,-0.004681000020354986,0.08658099919557571
1779999121606522600,2.783522705078125,-1.5304369926452637,0.12244299799203873,0.08579900115728378
1779999121623799300,2.80079931640625,-0.5299819707870483,-0.002713999943807721,0.0599140003323555
1779999121641076000,2.818075927734375,0.15292100608348846,-0.07453200221061707,0.039135999977588654
1779999121658352400,2.835352294921875,0.22916600108146667,0.03974499925971031,-0.020193999633193016
1779999121675629000,2.852629150390625,0.5126090049743652,0.05787799879908562,-0.04333600029349327
1779999121692906000,2.869906005859375,0.8164920210838318,-0.02384600043296814,-0.050655998289585114
1779999121710182700,2.8871826171875,0.44367098808288574,-0.06283800303936005,0.0079969996586442
1779999121727459300,2.904459228515625,-0.04468800127506256,-0.05281300097703934,0.07425100356340408
1779999121744735700,2.92173583984375,-1.3423670530319214,0.11567000299692154,0.08524499833583832
1779999121762012700,2.9390126953125,-0.5693759918212891,0.05976000055670738,0.052859000861644745
1779999121779289000,2.9562890625,0.17792800068855286,-0.06564900279045105,0.05325400084257126
1779999121796565800,2.973565673828125,0.25600698590278625,0.002051000017672777,-0.014515000395476818
1779999121813842400,2.990842529296875,0.5542010068893433,0.034341000020504,-0.05870499834418297
1779999121831119400,3.008119384765625,0.5492479801177979,-0.004910999909043312,-0.06410299986600876
1779999121848395800,3.025395751953125,0.25192099809646606,-0.035482000559568405,-0.0025859999004751444
1779999121865672400,3.04267236328125,-0.12031599879264832,-0.05407800152897835,0.052799999713897705
1779999121882949000,3.05994921875,-0.9554719924926758,0.05399699881672859,0.06688400357961655
1779999121900225800,3.077225830078125,-0.5674350261688232,0.043184999376535416,0.02941799908876419
1779999121917502200,3.094502197265625,-0.005127000156790018,-0.038672998547554016,0.03825199976563454
1779999121934779100,3.111779052734375,0.31577301025390625,-0.01695300079882145,-0.01569399982690811
1779999121952055800,3.129055908203125,0.6563640236854553,-0.008093000389635563,-0.04585399851202965
1779999121969332500,3.14633251953125,0.5083749890327454,-0.0007249999907799065,-0.052574001252651215
1779999121986609200,3.163609130859375,0.22195999324321747,-0.013890000060200691,-0.007548000197857618
1779999122003885800,3.1808857421875,-0.14242799580097198,-0.023948999121785164,0.04340900108218193
1779999122021162200,3.198162353515625,-0.9983789920806885,0.054545000195503235,0.055743999779224396
1779999122038439200,3.215439208984375,-0.4165549874305725,0.0063599999994039536,0.041687000542879105
1779999122055715600,3.232715576171875,-0.09421499818563461,-0.019718000665307045,0.036786999553442
1779999122072992500,3.249992431640625,0.11236000061035156,0.014128999784588814,0.006211999803781509
1779999122090269200,3.267269287109375,0.6105899810791016,-0.004089000169187784,-0.024393999949097633
1779999122107545900,3.2845458984375,0.505611002445221,0.004925000015646219,-0.049814000725746155
1779999122124822500,3.301822509765625,0.2690579891204834,-0.006533999927341938,-0.01974399946630001
1779999122142099000,3.319098876953125,-0.026074999943375587,-0.03153099864721298,0.024640999734401703
1779999122159375600,3.336375732421875,-0.7434059977531433,0.028967000544071198,0.06066799908876419
1779999122176652500,3.353652587890625,-0.6277769804000854,0.037974998354911804,0.044468000531196594
1779999122193929000,3.370928955078125,0.059702999889850616,-0.02536500059068203,0.02212899923324585
1779999122211205600,3.38820556640625,0.011408000253140926,0.02374899946153164,-0.0035119999665766954
1779999122228482300,3.405482421875,0.42607900500297546,0.024476999416947365,-0.027619000524282455
1779999122245759000,3.422759033203125,0.56324702501297,-0.011618999764323235,-0.04595699906349182
1779999122263035600,3.44003564453125,0.3050140142440796,-0.023809999227523804,-0.013190999627113342
1779999122280312300,3.457312255859375,-0.053996000438928604,-0.014511000365018845,0.02962600067257881
1779999122297589000,3.474589111328125,-0.716172993183136,0.03878699988126755,0.04328500106930733
1779999122314865700,3.49186572265625,-0.3918359875679016,0.003702000016346574,0.03607400134205818
1779999122332142300,3.509142333984375,-0.1426279991865158,-0.0049680001102387905,0.012481999583542347
1779999122349419000,3.5264189453125,0.07654000073671341,0.01962600089609623,-0.01287699956446886
1779999122366695700,3.54369580078125,0.45063599944114685,-0.002051000017672777,-0.03407200053334236
1779999122383972600,3.56097265625,0.5418890118598938,-0.022842999547719955,-0.03692900016903877
1779999122401249000,3.5782490234375,0.24823400378227234,-0.011722000315785408,-0.009340999647974968
1779999122418525700,3.595525634765625,-0.296099990606308,0.020701000466942787,0.017681999132037163
1779999122435802400,3.61280224609375,-0.33205699920654297,-0.003965999931097031,0.03141700103878975
1779999122453079000,3.6300791015625,-0.5119810104370117,0.009507999755442142,0.030827000737190247
1779999122470355700,3.647355712890625,-0.17108899354934692,0.0029200001154094934,0.015607000328600407
1779999122487632400,3.66463232421875,0.18224500119686127,-0.008352999575436115,-0.008094999939203262
1779999122504909000,3.681908935546875,0.359144002199173,-0.0017590000061318278,-0.029020000249147415
1779999122522185700,3.699185791015625,0.4466559886932373,-0.008476999588310719,-0.03652900084853172
1779999122539462400,3.71646240234375,0.2382040023803711,-0.008423999883234501,-0.015759000554680824
1779999122556739000,3.733739013671875,-0.1930450052022934,0.007573999930173159,0.017097000032663345
1779999122574016000,3.75101611328125,-0.3789199888706207,0.002983999904245138,0.033900998532772064
1779999122591292400,3.76829248046875,-0.4417620003223419,0.006785000208765268,0.03096199966967106
1779999122608569000,3.785569091796875,-0.20270900428295135,0.006000999826937914,0.017518000677227974
1779999122625845800,3.802845703125,0.1710059940814972,-0.00431300001218915,-0.004000000189989805
1779999122643122400,3.820122314453125,0.36334800720214844,-0.0006799999973736703,-0.027178000658750534
1779999122660399000,3.837399169921875,0.42096400260925293,-0.0030640000477433205,-0.03510800004005432
1779999122677675800,3.85467578125,0.21715499460697174,-0.0035310001112520695,-0.01418600045144558
1779999122694952400,3.871952392578125,-0.16319000720977783,0.005882000084966421,0.016547000035643578
1779999122712229000,3.88922900390625,-0.3650830090045929,0.004236000124365091,0.032106999307870865
1779999122729505800,3.906505859375,-0.43599799275398254,0.008186000399291515,0.029506999999284744
1779999122746782500,3.923782470703125,-0.18947400152683258,0.0028520000632852316,0.016101999208331108
1779999122764059100,3.94105908203125,0.14166399836540222,-0.0025130000431090593,-0.005047000013291836
1779999122781335800,3.958335693359375,0.3699890077114105,-0.0036120000295341015,-0.027885999530553818
1779999122798612500,3.975612548828125,0.4191780090332031,-0.0060629998333752155,-0.035624999552965164
1779999122815889200,3.99288916015625,0.2011449933052063,-0.0021959999576210976,-0.016648000106215477
1779999122833165800,4.010165771484375,-0.1303510069847107,0.002013999968767166,0.01308200042694807
1779999122850442500,4.0274423828125,-0.36439698934555054,0.0025400000158697367,0.029812999069690704
1779999122867719200,4.04471923828125,-0.41835498809814453,0.005963999778032303,0.02801400050520897
1779999122884995800,4.061995849609375,-0.1901019960641861,0.0013279999839141965,0.015797000378370285
1779999122910911000,4.087910888671875,0.26444700360298157,-0.003936000168323517,-0.015604999847710133
1779999122928187600,4.105187744140625,0.41911599040031433,-0.005530999973416328,-0.03182300180196762
1779999122954102800,4.131102783203125,0.1978909969329834,-0.0005339999916031957,-0.012196999974548817
1779999122971379500,4.14837939453125,-0.12247899919748306,0.004647000227123499,0.017322000116109848
1779999122988655900,4.16565576171875,-0.3671160042285919,0.006215999834239483,0.03273100033402443
1779999123005932500,4.1829326171875,-0.4066939949989319,0.007780999876558781,0.029510999098420143
1779999123023209500,4.20020947265625,-0.20018699765205383,0.004342000000178814,0.016641000285744667
1779999123040486100,4.217486083984375,0.1287440061569214,-0.0020830000285059214,-0.0030559999868273735
1779999123057762800,4.2347626953125,0.3607900142669678,-0.004230000078678131,-0.02536099962890148
1779999123075039200,4.252039306640625,0.3940829932689667,-0.004277000203728676,-0.03357499837875366
1779999123092316200,4.269316162109375,0.20421400666236877,-0.0016899999463930726,-0.01580899953842163
1779999123109592800,4.2865927734375,-0.11688899993896484,0.003728999989107251,0.012713000178337097
1779999123126869500,4.303869384765625,-0.3541330099105835,0.00535999983549118,0.02847900055348873
1779999123144146200,4.321146240234375,-0.40142199397087097,0.006837999913841486,0.025870999321341515
1779999123161422800,4.3384228515625,-0.19993799924850464,0.0035210000351071358,0.01433700043708086
1779999123178699500,4.355699462890625,0.12102700024843216,-0.004892999771982431,-0.005065999925136566
1779999123195976200,4.37297607421875,0.3498919904232025,-0.0056329998187720776,-0.027146000415086746
1779999123213252900,4.3902529296875,0.3901839852333069,-0.006132000125944614,-0.03563600033521652
1779999123230529500,4.407529541015625,0.20518900454044342,-0.005009000189602375,-0.018518999218940735
1779999123247806200,4.42480615234375,-0.1070370003581047,0.0010430000256747007,0.011003999970853329
1779999123265083000,4.442082763671875,-0.3444480001926422,0.0026710000820457935,0.029006000608205795
1779999123282359600,4.459359619140625,-0.39664098620414734,0.005410000216215849,0.028161000460386276
1779999123299636200,4.47663623046875,-0.2045380026102066,0.0033859999384731054,0.014666000381112099
1779999123316913000,4.493912841796875,0.10889600217342377,-0.003409000113606453,-0.0036170000676065683
1779999123334189800,4.51118994140625,0.33911600708961487,-0.00583200016990304,-0.023041000589728355
1779999123351466200,4.52846630859375,0.3829050064086914,-0.005543999839574099,-0.031592000275850296
1779999123368743000,4.545742919921875,0.20345400273799896,-0.0035860000643879175,-0.015445999801158905
1779999123386019600,4.56301953125,-0.09871599823236465,0.0014299999456852674,0.014042999595403671
1779999123403296300,4.580296142578125,-0.3369539976119995,0.004679999779909849,0.030811000615358353
1779999123420573200,4.5975732421875,-0.3908489942550659,0.006275000050663948,0.027835000306367874
1779999123437849600,4.614849609375,-0.2048249989748001,0.003978000022470951,0.015542999841272831
1779999123455126300,4.632126220703125,0.1025099977850914,-0.0029410000424832106,-0.003490000031888485
1779999123472403000,4.64940283203125,0.33458200097084045,-0.00686000008136034,-0.02590700052678585
1779999123489679600,4.6666796875,0.3806009888648987,-0.006941999774426222,-0.03443500027060509
1779999123506956500,4.68395654296875,0.2095479965209961,-0.005489000119268894,-0.01907699927687645
1779999123524233200,4.701233154296875,-0.0856660008430481,-0.0004250000056345016,0.007557999808341265
1779999123541510000,4.718510009765625,-0.32461801171302795,0.00279000005684793,0.024389000609517097
1779999123558786600,4.73578662109375,-0.3804529905319214,0.003215000033378601,0.02524399943649769
1779999123576063200,4.753063232421875,-0.20585399866104126,0.0034360000863671303,0.012697000056505203
1779999123601978000,4.77897802734375,0.22691699862480164,-0.0047900001518428326,-0.01497699972242117
1779999123619255000,4.796255126953125,0.3764899969100952,-0.006256000138819218,-0.030680999159812927
1779999123636531700,4.81353173828125,0.31257399916648865,-0.00406700000166893,-0.02864599972963333
1779999123653808400,4.830808349609375,0.06825199723243713,-0.0016580000519752502,-0.004282000008970499
1779999123671084800,4.848084716796875,-0.21652600169181824,0.0028810000512748957,0.023319000378251076
1779999123688361700,4.86536181640625,-0.3742690086364746,0.006463999859988689,0.03090200014412403
1779999123705638400,4.882638427734375,-0.32572799921035767,0.008666999638080597,0.023579999804496765
1779999123722915000,4.8999150390625,-0.06762299686670303,-0.0026459998916834593,0.011250000447034836
1779999123740191700,4.917191650390625,0.2135860025882721,-0.0068870000541210175,-0.007143999915570021
1779999123757468400,4.934468505859375,0.3643980026245117,-0.0074189999140799046,-0.02330699935555458
1779999123774745000,4.9517451171875,0.3056020140647888,-0.0005879999953322113,-0.02322399988770485
1779999123792021800,4.969021728515625,0.0677959993481636,0.007701000198721886,-0.005483000073581934
1779999123809298400,4.98629833984375,-0.2063400000333786,0.005681999959051609,0.018861999735236168
1779999123826575000,5.0035751953125,-0.3596070110797882,0.0053079999051988125,0.030640000477433205
1779999123843852000,5.02085205078125,-0.3128480017185211,0.006918999832123518,0.023923000320792198
1779999123861128400,5.03812841796875,-0.06773900240659714,0.001825000043027103,0.006862000096589327
1779999123878405400,5.0554052734375,0.202114999294281,-0.003745000110939145,-0.011304999701678753
1779999123895681800,5.072681884765625,0.3542740046977997,-0.005867999978363514,-0.026302000507712364
1779999123912958500,5.08995849609375,0.30061501264572144,-0.004317000042647123,-0.025843000039458275
1779999123930235400,5.1072353515625,0.0753910019993782,-0.0014860000228509307,-0.006839999929070473
1779999123947512000,5.124511962890625,-0.19387200474739075,0.000375000003259629,0.017712999135255814
1779999123964788700,5.141788818359375,-0.34758201241493225,0.0008779999916441739,0.02804199978709221
1779999123982065400,5.1590654296875,-0.3057889938354492,0.0077599999494850636,0.020601000636816025
1779999123999342000,5.176342041015625,-0.07335399836301804,0.003894000081345439,0.0050929998978972435
1779999124016618800,5.19361865234375,0.19539399445056915,-0.00048099999548867345,-0.015065999701619148
1779999124033895400,5.2108955078125,0.3453019857406616,-0.007046000100672245,-0.028875000774860382
1779999124051172000,5.228172119140625,0.30090999603271484,-0.012382999993860722,-0.022985000163316727
1779999124068448800,5.24544873046875,0.0794840008020401,-0.0015059999423101544,-0.005164000205695629
1779999124094363600,5.27136376953125,-0.2857449948787689,0.0024389999452978373,0.021637000143527985
1779999124111640600,5.288640625,-0.3531239926815033,0.0021349999587982893,0.027055999264121056
1779999124128917200,5.305917236328125,-0.20556800067424774,0.0021069999784231186,0.016575999557971954
1779999124154832100,5.33183203125,0.1874680072069168,-0.003495000069960952,-0.011993000283837318
1779999124172108800,5.34910888671875,0.33832699060440063,-0.006523999851197004,-0.027431000024080276
1779999124189385500,5.366385498046875,0.29458099603652954,-0.005119999870657921,-0.027560999616980553
1779999124206662100,5.383662109375,0.08205699920654297,-0.0015279999934136868,-0.009088000282645226
1779999124223939000,5.40093896484375,-0.1738329976797104,0.0022239999379962683,0.011870999820530415
1779999124241215700,5.4182158203125,-0.3298420011997223,0.003823000006377697,0.02144400030374527
1779999124258492200,5.4354921875,-0.29123398661613464,0.0019490000559017062,0.01847199909389019
1779999124275768800,5.452768798828125,-0.07303600013256073,-0.0017259999876841903,0.006142999976873398
1779999124293045800,5.470045654296875,0.18246500194072723,-0.003949999809265137,-0.012442000210285187
1779999124310322400,5.487322509765625,0.3268420100212097,-0.005770000163465738,-0.02593199908733368
1779999124327598800,5.504598876953125,0.28423500061035156,-0.005326000042259693,-0.02352599985897541
1779999124344875500,5.52187548828125,0.07937800139188766,-0.0014560000272467732,-0.004246999975293875
1779999124362152400,5.53915234375,-0.17453999817371368,0.003496000077575445,0.016334999352693558
1779999124379429000,5.55642919921875,-0.3256630003452301,0.005669999867677689,0.024351999163627625
1779999124396705800,5.573705810546875,-0.29094401001930237,0.004701000172644854,0.0200009997934103
1779999124413982500,5.590982421875,-0.07560700178146362,0.0014260000316426158,0.007708000019192696
1779999124431259100,5.608259033203125,0.17611099779605865,-0.0024429999757558107,-0.010073999874293804
1779999124448535800,5.625535888671875,0.32061898708343506,-0.004000999964773655,-0.023715000599622726
1779999124465812500,5.6428125,0.2812339961528778,-0.002879000036045909,-0.022106999531388283
1779999124483089200,5.660089111328125,0.07766100019216537,-0.0008340000058524311,-0.0029299999587237835
1779999124500365800,5.67736572265625,-0.17038099467754364,0.0036379999946802855,0.017917999997735023
1779999124517642500,5.694642578125,-0.32274600863456726,0.006719000171869993,0.02718999981880188
1779999124534919200,5.711919189453125,-0.28984200954437256,0.006022999994456768,0.024000000208616257
1779999124552195800,5.72919580078125,-0.08163999766111374,0.001339999958872795,0.01158200018107891
1779999124569472500,5.746472412109375,0.1659190058708191,-0.0031999999191612005,-0.007581999991089106
1779999124586749400,5.76374951171875,0.31116199493408203,-0.005009000189602375,-0.02334499917924404
1779999124604025900,5.78102587890625,0.2766599953174591,-0.004825999960303307,-0.02341499924659729
1779999124621302800,5.798302734375,0.08496999740600586,-0.002297000028192997,-0.006690000183880329
1779999124638579500,5.815579345703125,-0.1570110023021698,0.002471999963745475,0.0134699996560812
1779999124655856000,5.832856201171875,-0.3072580099105835,0.003240999998524785,0.024139000102877617
1779999124673132800,5.8501328125,-0.2806450128555298,0.0031969998963177204,0.020873000845313072
1779999124690409500,5.867409423828125,-0.08306699991226196,0.000029999999242136255,0.008802000433206558
1779999124707686100,5.88468603515625,0.15779399871826172,-0.00482999999076128,-0.008071999996900558
1779999124724962800,5.901962890625,0.3013170063495636,-0.006703000050038099,-0.02238200046122074
1779999124742239500,5.919239501953125,0.27269500494003296,-0.005501999985426664,-0.02286200039088726
1779999124759516200,5.93651611328125,0.08697500079870224,-0.0008149999775923789,-0.007114999927580357
1779999124776792800,5.953792724609375,-0.14836500585079193,0.0027570000384002924,0.011308999732136726
1779999124794069800,5.97106982421875,-0.29718199372291565,0.003640000009909272,0.020702000707387924
1779999124811346200,5.98834619140625,-0.27250099182128906,0.0017810000572353601,0.019029999151825905
1779999124828622800,6.005622802734375,-0.08001100271940231,-0.0010290000354871154,0.008528999984264374
1779999124845899500,6.0228994140625,0.15372799336910248,-0.002764000091701746,-0.008654999546706676
1779999124863176400,6.040176513671875,0.29353299736976624,-0.003619000082835555,-0.02327900007367134
1779999124880453000,6.057453125,0.2639490067958832,-0.002827000105753541,-0.023780999705195427
1779999124897729800,6.074729736328125,0.0847729966044426,-0.0012860000133514404,-0.006936999969184399
1779999124915006500,6.09200634765625,-0.14361000061035156,0.002736999886110425,0.013043999671936035
1779999124932283100,6.109283203125,-0.2892780005931854,0.005464999936521053,0.022437000647187233
1779999124949559800,6.126559814453125,-0.26654601097106934,0.005309999920427799,0.019120000302791595
1779999124966836500,6.14383642578125,-0.08269599825143814,0.002122000092640519,0.007910000160336494
1779999124984113200,6.161113037109375,0.1450520008802414,-0.0019079999765381217,-0.008132999762892723
1779999125001389800,6.178389892578125,0.283270001411438,-0.00304599991068244,-0.021705999970436096
1779999125018666800,6.195666748046875,0.2583779990673065,-0.0038759999442845583,-0.02190599963068962
1779999125035943200,6.212943115234375,0.08626200258731842,-0.0011919999960809946,-0.007242999970912933
1779999125053220000,6.23022021484375,-0.1365939974784851,0.0028230000752955675,0.011380000039935112
1779999125070496500,6.24749658203125,-0.2797609865665436,0.005392000079154968,0.021615000441670418
1779999125087773400,6.2647734375,-0.26117101311683655,0.005671999882906675,0.019473999738693237
1779999125105050000,6.282050048828125,-0.08442399650812149,0.00133200001437217,0.00941300019621849
1779999125122326500,6.299326416015625,0.13676199316978455,-0.0027199999894946814,-0.004656999837607145
1779999125139603500,6.316603515625,0.2727069854736328,-0.004726999904960394,-0.016762999817728996
1779999125156880100,6.333880126953125,0.2501850128173828,-0.0035349999088793993,-0.017274999991059303
1779999125174156800,6.35115673828125,0.08274099975824356,-0.00037399999564513564,-0.0039470000192523
1779999125191433500,6.36843359375,-0.1330530047416687,0.0021470000501722097,0.013553000055253506
1779999125208710100,6.385710205078125,-0.2730900049209595,0.005100000184029341,0.022329000756144524
1779999125225986800,6.40298681640625,-0.2542330026626587,0.005293000023812056,0.019408000633120537
1779999125243263500,6.420263427734375,-0.08168400079011917,0.0021619999315589666,0.008541000075638294
1779999125260540200,6.4375400390625,0.13371799886226654,-0.0023930000606924295,-0.007027000188827515
1779999125277816800,6.45481689453125,0.2677209973335266,-0.004633000120520592,-0.019683999940752983
1779999125295093500,6.472093505859375,0.24560299515724182,-0.004011000040918589,-0.019348999485373497
1779999125321008600,6.498008544921875,-0.023809999227523804,0.00023799999326001853,0.0021250001154839993
1779999125338285300,6.515285400390625,-0.2120559960603714,0.003470000112429261,0.014836999587714672
1779999125355562000,6.53256201171875,-0.27818000316619873,0.003561000106856227,0.018581999465823174
1779999125372838700,6.549838623046875,-0.17723000049591064,0.001908999984152615,0.01195599976927042
1779999125390115300,6.567115234375,0.02969999983906746,-0.0011769999982789159,-0.0014979999978095293
1779999125407392000,6.58439208984375,0.21374699473381042,-0.0038419999182224274,-0.01620900072157383
1779999125424668700,6.601668701171875,0.27322500944137573,-0.004602000117301941,-0.023314999416470528
1779999125441945300,6.6189453125,0.17744199931621552,-0.00267699989490211,-0.015444000251591206
1779999125459222000,6.636221923828125,-0.02133299969136715,0.0005189999938011169,0.00215000007301569
1779999125476499000,6.6534990234375,-0.2058510035276413,0.0029990000184625387,0.0163199994713068
1779999125493775600,6.670775634765625,-0.2742860019207001,0.004970000125467777,0.019977999851107597
1779999125511052000,6.688052001953125,-0.1777620017528534,0.002644000109285116,0.013984999619424343
1779999125528328700,6.70532861328125,0.02341100014746189,-0.00092299998505041,0.0014720000326633453
1779999125545605400,6.72260546875,0.20504899322986603,-0.0042409999296069145,-0.012827999889850616
1779999125562882000,6.739882080078125,0.2668670117855072,-0.004207000136375427,-0.02035900019109249
1779999125580159000,6.757158935546875,0.17406199872493744,-0.002297000028192997,-0.013501999899744987
1779999125597435600,6.774435546875,-0.018326999619603157,0.0006099999882280827,0.0029720000457018614
1779999125614712000,6.791712158203125,-0.2001889944076538,0.0032099999953061342,0.016845999285578728
1779999125631989000,6.808989013671875,-0.2684890031814575,0.004606999922543764,0.02065899968147278
1779999125649265700,6.826265625,-0.17618399858474731,0.0029349999967962503,0.014549000188708305
1779999125666542300,6.843542236328125,0.01992899924516678,-0.0004180000105407089,0.001424000016413629
1779999125683819000,6.860819091796875,0.19884000718593597,-0.002959999954327941,-0.0133689995855093
1779999125701096000,6.878095947265625,0.259894996881485,-0.004906000103801489,-0.02037299983203411
1779999125718372600,6.89537255859375,0.17276500165462494,-0.0020039998926222324,-0.014736000448465347
1779999125735649000,6.91264892578125,-0.01425699982792139,0.0004780000017490238,0.0009180000051856041
1779999125752925700,6.92992578125,-0.19159799814224243,0.0023089998867362738,0.01439599972218275
1779999125770202400,6.947202392578125,-0.2600310146808624,0.003622000105679035,0.018580999225378036
1779999125787479300,6.964479248046875,-0.17255699634552002,0.0025220001116394997,0.013589000329375267
1779999125804756000,6.981755859375,0.01740100048482418,-0.0002099999983329326,0.0011030000168830156
1779999125822032600,6.99903271484375,0.19104500114917755,-0.003515999997034669,-0.012923000380396843
1779999125839309300,7.016309326171875,0.2528510093688965,-0.0035649999044835567,-0.020241999998688698
1779999125856586000,7.0335859375,0.16853700578212738,-0.0010939999483525753,-0.013515999540686607
1779999125873862700,7.050862548828125,-0.012354999780654907,0.0006900000153109431,0.002311999909579754
1779999125891139300,7.068139404296875,-0.1860550045967102,0.0024319998919963837,0.015530000440776348
1779999125908416300,7.085416259765625,-0.2531920075416565,0.0033050000201910734,0.01935799978673458
1779999125925692700,7.102692626953125,-0.1697389930486679,0.0025869999080896378,0.013818000443279743
1779999125942969300,7.11996923828125,0.01397399976849556,-0.0007939999923110008,0.0010460000485181808
1779999125960246000,7.13724609375,0.18495799601078033,-0.0020389999262988567,-0.013648999854922295
1779999125977522700,7.154522705078125,0.2471420019865036,-0.004993000067770481,-0.01976200006902218
1779999125994799600,7.171799560546875,0.1675889939069748,-0.0033360000234097242,-0.012544999830424786
1779999126012076300,7.189076171875,-0.008698999881744385,-0.000015999999959603883,0.0021800000686198473
1779999126029352700,7.206352783203125,-0.17951400578022003,0.0028349999338388443,0.014322999864816666
1779999126046629400,7.22362939453125,-0.24828000366687775,0.004315000027418137,0.017347000539302826
1779999126063906300,7.24090625,-0.16919800639152527,0.002403999911621213,0.012914000079035759
1779999126081183000,7.258182861328125,0.010437999852001667,-0.00008099999831756577,0.0011950000189244747
1779999126098459600,7.275459716796875,0.17912200093269348,-0.003587000072002411,-0.012380000203847885
1779999126115736300,7.292736328125,0.24289800226688385,-0.005588000174611807,-0.019433999434113503
1779999126133013000,7.310012939453125,0.1667110025882721,-0.0025679999962449074,-0.014135000295937061
1779999126158928000,7.335927978515625,-0.0958079993724823,0.0009590000263415277,0.007903000339865685
1779999126176204800,7.353204833984375,-0.22455699741840363,0.002744999947026372,0.01648000068962574
1779999126193481500,7.3704814453125,-0.22234299778938293,0.002675000112503767,0.016506999731063843
1779999126210758000,7.3877578125,-0.08543200045824051,0.0007040000054985285,0.008178000338375568
1779999126228034600,7.40503466796875,0.09776800125837326,-0.0011190000222995877,-0.005268999841064215
1779999126253949700,7.43094970703125,0.23526400327682495,-0.003005000064149499,-0.01923999935388565
1779999126271226400,7.448226318359375,0.16348400712013245,-0.002713999943807721,-0.013398000039160252
1779999126288503300,7.46550341796875,-0.0023930000606924295,-0.0008559999987483025,0.0009319999953731894
1779999126305779700,7.48277978515625,-0.16624100506305695,0.001838000025600195,0.013422000221908092
1779999126323056600,7.500056640625,-0.23455199599266052,0.004137000069022179,0.01744700036942959
1779999126340333000,7.5173330078125,-0.16413700580596924,0.003604999976232648,0.012953000143170357
1779999126357610000,7.53460986328125,0.0033279999624937773,0.0004820000031031668,0.0022909999825060368
1779999126374886700,7.55188671875,0.16425999999046326,-0.0028429999947547913,-0.010720999911427498
1779999126392163300,7.569163330078125,0.2283329963684082,-0.004410000052303076,-0.017671000212430954
1779999126409440000,7.58643994140625,0.16054199635982513,-0.0023499999660998583,-0.012764000333845615
1779999126426716700,7.603716552734375,-0.0005370000144466758,0.000893999997060746,0.0011210000375285745
1779999126443993300,7.620993408203125,-0.16161799430847168,0.004515999928116798,0.012853999622166157
1779999126461270000,7.63827001953125,-0.23013700544834137,0.0048039997927844524,0.01655999943614006
1779999126478546700,7.655546630859375,-0.16176100075244904,0.002959999954327941,0.013048999942839146
1779999126495823600,7.67282373046875,0.0019630000460892916,-0.00023600000713486224,0.0036800000816583633
1779999126513100000,7.69010009765625,0.16022300720214844,-0.0025760000571608543,-0.009971999563276768
1779999126530376700,7.707376708984375,0.2231840044260025,-0.0028860000893473625,-0.018046999350190163
1779999126547653400,7.7246533203125,0.1578720062971115,-0.0019109999993816018,-0.013757999986410141
1779999126564930000,7.741929931640625,0.001976999919861555,-0.0009800000116229057,-0.00029200001154094934
1779999126582207000,7.75920703125,-0.15472599864006042,0.0031880000606179237,0.01298299990594387
1779999126599483400,7.7764833984375,-0.22219200432300568,0.005204999819397926,0.02016500011086464
1779999126616760000,7.793760009765625,-0.15876899659633636,0.003765000030398369,0.016210999339818954
1779999126634036700,7.81103662109375,-0.0031139999628067017,0.0018350000027567148,0.0024240000639110804
1779999126651313700,7.828313720703125,0.15097300708293915,-0.002065999899059534,-0.012167000211775303
1779999126668590300,7.84559033203125,0.21594999730587006,-0.0048699998296797276,-0.019068999215960503
1779999126685867000,7.862866943359375,0.15792599320411682,-0.004865000024437904,-0.01524099987000227
1779999126703143700,7.880143798828125,0.010982999578118324,-0.002959999954327941,-0.0020840000361204147
1779999126720420400,7.89742041015625,-0.1426060050725937,0.0014100000262260437,0.010700000450015068
1779999126737697000,7.914697021484375,-0.2131589949131012,0.003198999911546707,0.015015999786555767
1779999126754973700,7.9319736328125,-0.1580909937620163,0.0025450000539422035,0.01114100031554699
1779999126772250400,7.94925048828125,-0.008142000064253807,-0.0003870000073220581,0.0034680000972002745
1779999126789527000,7.966527099609375,0.1430090069770813,-0.002455000067129731,-0.007823999971151352
1779999126806803700,7.9838037109375,0.20873400568962097,-0.0021069999784231186,-0.015038000419735909
1779999126824080400,8.001080322265626,0.15390600264072418,-0.0006719999946653843,-0.011934000067412853
1779999126841357000,8.018357177734375,0.009854000061750412,-0.000826000003144145,-0.001639000023715198
1779999126858633700,8.0356337890625,-0.13911700248718262,-0.0005920000257901847,0.008125999942421913
1779999126875910400,8.052910400390624,-0.20689399540424347,0.0013689999468624592,0.013125999830663204
1779999126893187300,8.070187255859375,-0.1514270007610321,0.0005949999904260039,0.013097000308334827
1779999126910464000,8.087464111328124,-0.007528000045567751,0.001247999956831336,0.005229000002145767
1779999126927740400,8.104740478515625,0.1368670016527176,0.001820000004954636,-0.0062489998526871204
1779999126945017000,8.12201708984375,0.19948099553585052,0.00037299998803064227,-0.013621999882161617
1779999126962294000,8.1392939453125,0.14476899802684784,0.00030300000798888505,-0.011296000331640244
1779999126979570700,8.15657080078125,0.008065000176429749,-0.0006350000039674342,-0.0001720000000204891
1779999126996847400,8.173847412109374,-0.13464699685573578,-0.000011000000085914508,0.01129900012165308
1779999127014124000,8.1911240234375,-0.19910599291324615,0.0018560000462457538,0.014607000164687634
1779999127031400700,8.208400634765624,-0.14752699434757233,0.0022849999368190765,0.009808000177145004
1779999127048677400,8.225677490234375,-0.008604999631643295,0.00031400000443682075,0.0007249999907799065
1779999127065954000,8.2429541015625,0.13335800170898438,-0.0017890000017359853,-0.009705999866127968
1779999127083230700,8.260230712890625,0.1963289976119995,-0.004017000086605549,-0.015706999227404594
1779999127100507400,8.27750732421875,0.14651599526405334,-0.004561000037938356,-0.012337000109255314
1779999127117784300,8.294784423828125,0.012028999626636505,-0.0015020000282675028,-0.0024079999420791864
1779999127135061000,8.31206103515625,-0.12955999374389648,0.0027000000700354576,0.009101999923586845
1779999127152337700,8.329337646484374,-0.19527700543403625,0.00495699979364872,0.014057000167667866
1779999127169614300,8.3466142578125,-0.14538300037384033,0.0026489999145269394,0.012008000165224075
1779999127186891000,8.36389111328125,-0.009313000366091728,-0.0014049999881535769,0.0029879999347031116
1779999127204167700,8.381167724609375,0.12898699939250946,-0.0032599999103695154,-0.007772999815642834
1779999127221444400,8.3984443359375,0.19178199768066406,-0.0034650000743567944,-0.013818999752402306
1779999127238721000,8.415720947265624,0.1424729973077774,-0.0007750000222586095,-0.010259999893605709
1779999127255998000,8.432998046875,0.011621999554336071,0.0012009999481961131,0.0010000000474974513
1779999127273274400,8.4502744140625,-0.12650099396705627,0.0021720000077039003,0.012675000354647636
1779999127290551000,8.467551025390625,-0.1914689987897873,0.0031769999768584967,0.01707099936902523
1779999127307827700,8.48482763671875,-0.1444779932498932,0.0034370000939816236,0.012928999960422516
1779999127325104600,8.502104736328125,-0.01358299981802702,0.0012679999927058816,0.0030799999367445707
1779999127342381000,8.519381103515625,0.12193900346755981,-0.001408000010997057,-0.00813599955290556
1779999127359657700,8.53665771484375,0.18480899930000305,-0.002891999902203679,-0.014281000010669231
1779999127376934400,8.553934326171875,0.14138899743556976,-0.0034719998948276043,-0.01202400028705597
1779999127394211300,8.57121142578125,0.01733499951660633,-0.0030769999139010906,-0.003636999987065792
1779999127411488000,8.588488037109375,-0.11681699752807617,0.00011000000085914508,0.004920999985188246
1779999127428764400,8.605764404296876,-0.18169699609279633,0.0015379999531432986,0.008994000032544136
1779999127446041000,8.623041015625,-0.13812200725078583,0.0011500000255182385,0.007861999794840813
1779999127463317800,8.64031787109375,-0.011873999610543251,-0.0006670000148005784,0.0027600000612437725
1779999127480594700,8.6575947265625,0.11874499917030334,-0.0023670000955462456,-0.005200999788939953
1779999127497871400,8.674871337890625,0.17792700231075287,-0.0021269998978823423,-0.012095999903976917
1779999127515148000,8.69214794921875,0.13338600099086761,-0.00033999999868683517,-0.01117399986833334
1779999127532424700,8.7094248046875,0.012277999892830849,0.0013259999686852098,-0.001829999964684248
1779999127549701400,8.726701416015626,-0.11592099815607071,0.002251999918371439,0.008960999548435211
1779999127566978000,8.74397802734375,-0.1764650046825409,0.0016449999529868364,0.013647999614477158
1779999127584254700,8.761254638671875,-0.13315199315547943,0.0009640000062063336,0.010878000408411026
1779999127601531400,8.778531494140625,-0.011733000166714191,0.0010890000266954303,0.0029929999727755785
1779999127618807800,8.795807861328125,0.1142290011048317,0.0004799999878741801,-0.006672999821603298
1779999127636084700,8.813084716796874,0.17151500284671783,-0.0005729999975301325,-0.012156999669969082
1779999127653361400,8.830361328125,0.12860600650310516,-0.0002519999979995191,-0.009018000215291977
1779999127670638000,8.84763818359375,0.011210000142455101,-0.0006840000278316438,0.0015150000108405948
1779999127687915000,8.8649150390625,-0.11401399970054626,0.0016799999866634607,0.01063000038266182
1779999127705191400,8.88219140625,-0.1746080070734024,0.003066000062972307,0.012915999628603458
1779999127722468000,8.899468017578124,-0.13320299983024597,0.0028550000861287117,0.008214999921619892
1779999127739744800,8.916744873046875,-0.012965000234544277,-0.00009899999713525176,-0.0004079999926034361
1779999127757021700,8.934021728515624,0.11390099674463272,-0.0035729999653995037,-0.009538999758660793
1779999127774298400,8.95129833984375,0.17324399948120117,-0.004188000224530697,-0.014592000283300877
1779999127791574800,8.96857470703125,0.13275200128555298,-0.0017989999614655972,-0.012325000017881393
1779999127808851700,8.985851806640625,0.016774000599980354,0.00044299999717622995,-0.0037269999738782644
1779999127826128100,9.003128173828125,-0.10840000212192535,0.0021589999087154865,0.007211000192910433
1779999127843405000,9.020405029296874,-0.1694830060005188,0.0020959998946636915,0.013624999672174454
1779999127860681700,9.037681640625,-0.13093000650405884,0.0008060000254772604,0.012268000282347202
1779999127877958400,9.05495849609375,-0.015924999490380287,0.000043000000005122274,0.004379999823868275
1779999127895234800,9.07223486328125,0.10542000085115433,0.000014999999621068127,-0.005683000199496746
1779999127912511700,9.08951171875,0.1640779972076416,-0.0013170000165700912,-0.011907000094652176
1779999127929788400,9.106788330078125,0.12811100482940674,-0.0011620000004768372,-0.009611000306904316
1779999127947065000,9.124065185546876,0.01843399927020073,-0.0007430000114254653,0
1779999127964341800,9.141341796875,-0.10179699957370758,0.0005189999938011169,0.00917499978095293
1779999127981618700,9.15861865234375,-0.16267800331115723,0.0013909999979659915,0.011819000355899334
1779999127998895000,9.17589501953125,-0.12801800668239594,0.0015670000575482845,0.00877700001001358
1779999128016172000,9.193172119140625,-0.01789099909365177,0.00017299999308306724,0.0017239999724552035
1779999128033448400,9.210448486328126,0.10205599665641785,-0.0020840000361204147,-0.00752299977466464
1779999128050725400,9.227725341796875,0.16114699840545654,-0.004255999810993671,-0.012701000086963177
1779999128068002000,9.245001953125,0.12699800729751587,-0.0034260000102221966,-0.01005600020289421
1779999128085278700,9.26227880859375,0.019675999879837036,-0.0008009999874047935,-0.0021470000501722097
1779999128102555400,9.279555419921875,-0.09981700032949448,0.002001000102609396,0.006308000069111586
1779999128119832000,9.29683203125,-0.16055500507354736,0.002850000048056245,0.010557999834418297
1779999128137109000,9.31410888671875,-0.12697699666023254,0.0012369999894872308,0.00904100015759468
1779999128154385400,9.331385498046876,-0.017263000831007957,-0.0015810000477358699,0.0033360000234097242
1779999128171662000,9.348662109375,0.09999500215053558,-0.0014459999511018395,-0.005534000229090452
1779999128188939000,9.36593896484375,0.15688100457191467,-0.0009889999637380242,-0.011454000137746334
1779999128206215400,9.38321533203125,0.12314700335264206,-0.0003009999927598983,-0.009947000071406364
1779999128223492000,9.4004921875,0.017962999641895294,0.0012489999644458294,-0.0008399999933317304
1779999128240768800,9.417768798828124,-0.09745299816131592,0.001921999966725707,0.009544000029563904
1779999128258045400,9.43504541015625,-0.15663200616836548,0.002862999914214015,0.012923000380396843
1779999128275322000,9.452322021484376,-0.12433899939060211,0.0025470000691711903,0.009456999599933624
1779999128292599000,9.46959912109375,-0.018521999940276146,0.0006730000022798777,0.0021470000501722097
1779999128309875500,9.48687548828125,0.09663599729537964,-0.001075000036507845,-0.00672899978235364
1779999128327152400,9.50415234375,0.15516400337219238,-0.0019000000320374966,-0.011695999652147293
1779999128344429000,9.521428955078125,0.12362899631261826,-0.002339000115171075,-0.00914399977773428
1779999128361705700,9.538705810546874,0.02206300012767315,-0.000615999975707382,-0.0016280000563710928
1779999128378982400,9.555982421875,-0.09266000241041183,0.0016210000030696392,0.006513000000268221
1779999128396259300,9.57325927734375,-0.1523900032043457,0.002466999925673008,0.010192000307142735
1779999128413536000,9.590535888671875,-0.12326999753713608,0.0022040000185370445,0.007952000014483929
1779999128430812700,9.607812744140626,-0.020173000171780586,-0.00040099999750964344,0.001221999991685152
1779999128448089300,9.62508935546875,0.09469900280237198,-0.002833999926224351,-0.007460999768227339
1779999128465365800,9.64236572265625,0.1527629941701889,-0.0029750000685453415,-0.012227999977767467
1779999128482642700,9.659642578125,0.12343399971723557,-0.002107999986037612,-0.009906000457704067
1779999128499919400,9.67691943359375,0.02239600010216236,0.00011800000356743112,-0.0016049999976530671
1779999128517195800,9.69419580078125,-0.09196300059556961,0.0018360000103712082,0.007918000221252441
1779999128534472700,9.71147265625,-0.15279799699783325,0.002732000080868602,0.012366999872028828
1779999128551749400,9.728749267578126,-0.12533099949359894,0.0018889999482780695,0.01053099986165762
1779999128569026000,9.746026123046875,-0.023560000583529472,0.0003279999946244061,0.003154000034555793
1779999128586302500,9.763302490234375,0.08953200280666351,-0.0021250001154839993,-0.006047000177204609
1779999128603579400,9.780579345703124,0.14916299283504486,-0.001959000015631318,-0.01211399957537651
1779999128620856000,9.79785595703125,0.12130700051784515,-0.0020959998946636915,-0.010483999736607075
1779999128638132700,9.8151328125,0.02458300068974495,-0.0005119999987073243,-0.0021019999403506517
1779999128655409400,9.832409423828125,-0.08730600029230118,0.001585999969393015,0.0070130000822246075
1779999128672686300,9.849686279296876,-0.14821000397205353,0.0025210001040250063,0.010983999818563461
1779999128689962800,9.866962646484374,-0.12314900010824203,0.0012939999578520656,0.010104999877512455
1779999128707239400,9.884239501953125,-0.026055999100208282,-0.0005489999894052744,0.003965999931097031
1779999128724516400,9.901516357421874,0.08480799943208694,-0.0017940000398084521,-0.0055519999004900455
1779999128741793000,9.91879296875,0.14446699619293213,-0.0019130000146105886,-0.011593000032007694
1779999128759069700,9.936069580078126,0.12103399634361267,-0.0011859999503940344,-0.010700000450015068
1779999128776346400,9.953346435546875,0.028200000524520874,-0.000311999989207834,-0.0029170000925660133
1779999128793623000,9.970623046875,-0.0797870010137558,0.000615999975707382,0.0065299998968839645
1779999128810900000,9.98789990234375,-0.1410609930753708,0.002245000097900629,0.011288000270724297
1779999128828176400,10.00517626953125,-0.12075600028038025,0.0022909999825060368,0.01006999984383583
1779999128845453000,10.022453125,-0.029462000355124474,0.0009689999860711396,0.0036750000435858965
1779999128862729700,10.039729736328125,0.07744699716567993,-0.0018420000560581684,-0.0043219998478889465
1779999128880006700,10.057006591796876,0.13845500349998474,-0.002901999978348613,-0.009568000212311745
1779999128897283300,10.074283447265625,0.1179250031709671,-0.001193000003695488,-0.009581999853253365
1779999128914560000,10.09156005859375,0.030626000836491585,-0.0004569999873638153,-0.003502999898046255
1779999128931837000,10.1088369140625,-0.07375500351190567,0.0007529999711550772,0.004546999931335449
1779999128949113300,10.12611328125,-0.13411399722099304,0.0014769999543204904,0.009278000332415104
1779999128966390000,10.14339013671875,-0.11530099809169769,0.001366000040434301,0.008961999788880348
1779999128983666700,10.160666748046875,-0.028767000883817673,-0.00015799999528098851,0.0036559998989105225
1779999129009581800,10.186581787109375,0.11126899719238281,-0.0018139999592676759,-0.008580000139772892
1779999129026858500,10.2038583984375,0.13266099989414215,-0.0015310000162571669,-0.01155299972742796
1779999129044135400,10.221135498046875,0.07882799953222275,-0.0005970000056549907,-0.007075000088661909
1779999129061411800,10.238411865234376,-0.021592000499367714,0.0015699999639764428,0.0010479999473318458
1779999129078688500,10.2556884765625,-0.10832100361585617,0.0017320000333711505,0.007996000349521637
1779999129095965200,10.272965087890626,-0.1319359987974167,0.0021039999555796385,0.009916000068187714
1779999129113241900,10.290241943359375,-0.07664100080728531,0.0014479999663308263,0.006244000047445297
1779999129130518500,10.3075185546875,0.022607000544667244,0.0007740000146441162,-0.0011210000375285745
1779999129147795200,10.324795166015624,0.10739000141620636,-0.0020439999643713236,-0.007697999943047762
1779999129165072000,10.34207177734375,0.1296059936285019,-0.0029410000424832106,-0.009572000242769718
1779999129182348800,10.359348876953124,0.07585199922323227,-0.0019079999765381217,-0.004772999789565802
1779999129199625500,10.37662548828125,-0.020741000771522522,-0.00048099999548867345,0.0026110000908374786
1779999129216902000,10.39390185546875,-0.10648900270462036,0.0012740000383928418,0.008409000001847744
1779999129234178600,10.411178466796875,-0.12925800681114197,0.002435999922454357,0.0097850002348423
1779999129251455200,10.428455322265625,-0.07496500015258789,0.0008570000063627958,0.006082999985665083
1779999129268732200,10.445732177734374,0.021765999495983124,0.00017800000205170363,-0.0002410000015515834
1779999129286008800,10.4630087890625,0.10525699704885483,-0.0016339999856427312,-0.006688000168651342
1779999129303285500,10.480285400390626,0.12576399743556976,-0.0016959999920800328,-0.009371999651193619
1779999129320562200,10.497562255859375,0.07382600009441376,-0.0028210000600665808,-0.005092000123113394
1779999129337838800,10.5148388671875,-0.021832000464200974,-0.0011030000168830156,0.0022410000674426556
1779999129355115500,10.532115478515625,-0.10515700280666351,0.0012069999938830733,0.007942999713122845
1779999129372392200,10.54939208984375,-0.1272979974746704,0.0021639999467879534,0.00863100029528141
1779999129389669000,10.566669189453124,-0.07487200200557709,0.0017040000529959798,0.004298999905586243
1779999129406945800,10.58394580078125,0.022630000486969948,0.0011919999960809946,-0.0014850000152364373
1779999129424222500,10.601222412109376,0.10620299726724625,-0.001711999997496605,-0.006132000125944614
1779999129441499000,10.618498779296875,0.12778499722480774,-0.0015170000260695815,-0.00788000039756298
1779999129458775600,10.635775634765626,0.07439299672842026,-0.00006399999983841553,-0.003575999988242984
1779999129476052500,10.653052490234375,-0.023037999868392944,0.0023060000967234373,0.0034149999264627695
1779999129493329200,10.6703291015625,-0.10867500305175781,0.003900999901816249,0.00827299989759922
1779999129510605800,10.687605712890624,-0.13163700699806213,0.003759999992325902,0.008995999582111835
1779999129527882500,10.704882568359375,-0.07716500014066696,-0.0007200000109151006,0.005770000163465738
1779999129545159200,10.7221591796875,0.02121400088071823,-0.0023109999019652605,-0.001041000010445714
1779999129562435800,10.739435791015625,0.1062680035829544,-0.004401000216603279,-0.00785099994391203
1779999129579712500,10.75671240234375,0.12934599816799164,-0.002242000075057149,-0.012145999819040298
1779999129596989200,10.7739892578125,0.07902999967336655,0.0007210000185295939,-0.009814999997615814
1779999129614266000,10.79126611328125,-0.014635000377893448,0.0014309999532997608,-0.0007939999923110008
1779999129631542800,10.808542724609374,-0.09876500070095062,0.002294000005349517,0.009216000325977802
1779999129648819200,10.825819091796875,-0.12490099668502808,0.0014420000370591879,0.01425699982792139
1779999129666096000,10.84309619140625,-0.07997599989175797,0.00033599999733269215,0.010490000247955322
1779999129683372800,10.860372802734375,0.009473999962210655,0.002230999991297722,0.0006510000093840063
1779999129700649500,10.8776494140625,0.09228400141000748,0.001478999969549477,-0.008375000208616257
1779999129717926100,10.894926025390625,0.1209070011973381,0.0003589999978430569,-0.011676999740302563
1779999129743841000,10.920841064453125,0.04140999913215637,-0.0013539999490603805,-0.0038139999378472567
1779999129761117700,10.93811767578125,-0.04917600005865097,-0.0006619999767281115,0.00469199987128377
1779999129778394600,10.95539453125,-0.11049599945545197,0.00216599996201694,0.008759000338613987
1779999129795671300,10.97267138671875,-0.10611899942159653,0.003134000115096569,0.008324000053107738
1779999129812948000,10.989947998046874,-0.039278000593185425,0.0029120000544935465,0.0033740000799298286
1779999129830224600,11.007224609375,0.04962199926376343,0.0014680000022053719,-0.0017320000333711505
1779999129847501000,11.0245009765625,0.10870099812746048,-0.0021100000012665987,-0.004401000216603279
1779999129864778000,11.041778076171875,0.10192199796438217,-0.0016820000018924475,-0.00456500006839633
1779999129882054700,11.0590546875,0.03548000007867813,-0.0008849999867379665,-0.0013129999861121178
1779999129899331300,11.076331298828125,-0.05244800075888634,0.0011810000287368894,0.00292299990542233
1779999129916608300,11.093608154296875,-0.10932300239801407,0.0026320000179111958,0.006477999966591597
1779999129933884700,11.110884765625,-0.1009650006890297,0.0009180000051856041,0.0070039997808635235
1779999129951161300,11.128161376953125,-0.033810000866651535,-0.001184999942779541,0.003869999898597598
1779999129977076500,11.154076416015625,0.08591900020837784,-0.0022219999227672815,-0.005654999986290932
1779999129994353200,11.171353271484374,0.11106500029563904,-0.001269000000320375,-0.009871999733150005
1779999130011629800,11.1886298828125,0.07235799729824066,-0.00018699999782256782,-0.006585999857634306
1779999130028906500,11.205906494140624,-0.008313000202178955,0.00004600000102072954,0.0014380000066012144
1779999130046183400,11.223183349609375,-0.08532500267028809,0.0010239999974146485,0.007646000012755394
1779999130063459800,11.2404599609375,-0.11256100237369537,0.0007699999841861427,0.00901500042527914
1779999130080736500,11.257736572265625,-0.07378699630498886,0.0004799999878741801,0.0053610000759363174
1779999130098013400,11.275013427734375,0.008187999948859215,9.999999974752427e-7,-0.0014809999847784638
1779999130115289900,11.292289794921874,0.08550100028514862,-0.0014410000294446945,-0.008081999607384205
1779999130132566800,11.30956689453125,0.11258500069379807,-0.0020830000285059214,-0.011080999858677387
1779999130149843500,11.326843505859374,0.07485000044107437,-0.0014479999663308263,-0.008177000097930431
1779999130167120100,11.3441201171875,-0.004701000172644854,-0.0008500000112690032,-0.0015699999639764428
1779999130184396800,11.361396728515626,-0.08076799660921097,0.0007440000190399587,0.004532999824732542
1779999130201673500,11.378673583984375,-0.10830499976873398,0.001395000028423965,0.007457000203430653
1779999130218950100,11.3959501953125,-0.07225099951028824,0.00020300000323913991,0.006151000037789345
1779999130236226800,11.413226806640624,0.005675000138580799,-0.0008009999874047935,0.001154000055976212
1779999130253503500,11.43050341796875,0.0786999985575676,-0.0018269999418407679,-0.004404000006616116
1779999130270780200,11.4477802734375,0.10451599955558777,-0.0019470000406727195,-0.007654999848455191
1779999130288056800,11.465056884765625,0.06925199925899506,-0.0008629999938420951,-0.006136999931186438
1779999130313972000,11.490971923828125,-0.04360000044107437,0.00007300000288523734,0.0039450000040233135
1779999130331248600,11.50824853515625,-0.09717600047588348,0.0016420000465586782,0.008101999759674072
1779999130348525300,11.525525390625,-0.09425099939107895,0.0017399999778717756,0.007584000006318092
1779999130365802000,11.542802001953126,-0.03699199855327606,0.0015219999477267265,0.0032709999941289425
1779999130383078700,11.56007861328125,0.04127100110054016,0.00014400000509340316,-0.0021550001110881567
1779999130400355300,11.577355224609375,0.09535499662160873,-0.0018210000125691295,-0.0057310000993311405
1779999130417632300,11.59463232421875,0.09293100237846375,-0.0019440000178292394,-0.0053519997745752335
1779999130434908700,11.61190869140625,0.035891998559236526,-0.0006189999985508621,-0.0009619999909773469
1779999130452185300,11.629185302734374,-0.04307200014591217,0.0013520000502467155,0.003378000110387802
1779999130469462000,11.6464619140625,-0.09648299962282181,0.0024470000062137842,0.0053010000847280025
1779999130486738700,11.66373876953125,-0.09273599833250046,0.0020639998838305473,0.0049749999307096004
1779999130504015000,11.68101513671875,-0.03387700021266937,0.0009510000236332417,0.002073999959975481
1779999130521292000,11.6982919921875,0.04470700025558472,-0.0006409999914467335,-0.0023479999508708715
1779999130538569000,11.71556884765625,0.09645599871873856,-0.0010359999723732471,-0.0062500000931322575
1779999130555845400,11.732845458984375,0.09119900315999985,-0.0010969999711960554,-0.006424999795854092
1779999130573122300,11.750122314453124,0.032816000282764435,0.0004199999966658652,-0.002400999888777733
1779999130590399000,11.76739892578125,-0.04473400115966797,0.0015200000489130616,0.003260999917984009
1779999130607675600,11.784675537109376,-0.09515800327062607,0.0017000000225380063,0.00698699988424778
1779999130624952300,11.801952392578125,-0.08970600366592407,0.0007050000131130219,0.006730999797582626
1779999130642228700,11.819228759765625,-0.03085399977862835,-0.0006840000278316438,0.0032480000518262386
1779999130659505700,11.836505615234374,0.045173998922109604,-0.0009740000241436064,-0.002515000058338046
1779999130676782300,11.8537822265625,0.0940610021352768,-0.001133000012487173,-0.007697000168263912
1779999130694059000,11.87105908203125,0.0883919969201088,-0.0005719999899156392,-0.008550000376999378
1779999130711335700,11.888335693359375,0.03228500112891197,-0.0005319999763742089,-0.00267699989490211
1779999130728612600,11.905612548828126,-0.04213999956846237,0.0002460000105202198,0.00456500006839633
1779999130745889000,11.922888916015625,-0.0922359973192215,0.0008079999824985862,0.008460000157356262
1779999130763165700,11.940165771484375,-0.08863800019025803,0.0007469999836757779,0.008004999719560146
1779999130780442400,11.9574423828125,-0.03320800140500069,0.0006050000083632767,0.003323999932035804
1779999130797719300,11.97471923828125,0.04103900119662285,-0.0006580000044777989,-0.002044999971985817
1779999130814995700,11.99199560546875,0.09101899713277817,-0.0012509999796748161,-0.0064650001004338264
1779999130832272400,12.0092724609375,0.08736299723386765,-0.0013490000274032354,-0.007135999854654074
1779999130849549000,12.026549072265626,0.03396200016140938,-0.0008379999781027436,-0.003111999947577715
1779999130866825700,12.04382568359375,-0.040428999811410904,0.0005859999801032245,0.002334000077098608
1779999130884102700,12.0611025390625,-0.08993999660015106,0.0015490000369027257,0.006126000080257654
1779999130901379300,12.07837939453125,-0.08766700327396393,0.001259000040590763,0.006000999826937914
1779999130918656000,12.095656005859375,-0.03430899977684021,-0.000060999998822808266,0.0026020000223070383
1779999130935932700,12.1129326171875,0.03912099823355675,-0.0013920000055804849,-0.00241800001822412
1779999130953209300,12.130209228515625,0.08879700303077698,-0.002587999915704131,-0.006690000183880329
1779999130970486000,12.147486083984376,0.08647699654102325,-0.0017709999810904264,-0.00752299977466464
1779999130987762700,12.1647626953125,0.03385299816727638,-0.0001630000042496249,-0.004112999886274338
1779999131005039600,12.18203955078125,-0.03811100125312805,0.0007110000005923212,0.00088900001719594
1779999131022316300,12.19931640625,-0.08748699724674225,0.0007229999755509198,0.004666000138968229
1779999131039592700,12.2165927734375,-0.08557300269603729,0.00018200000340584666,0.004734000191092491
1779999131056869600,12.23386962890625,-0.03318500146269798,0.00006500000017695129,0.00042600001324899495
1779999131074146000,12.25114599609375,0.03851199895143509,-0.0007999999797903001,-0.00481799989938736
1779999131091423000,12.268423095703126,0.08774399757385254,-0.0016349999932572246,-0.007129000034183264
1779999131108699600,12.28569970703125,0.0857900008559227,-0.0015950000379234552,-0.005876999814063311
1779999131125976000,12.30297607421875,0.03467699885368347,-0.001032999949529767,-0.000097999996796716
1779999131143252700,12.320252685546874,-0.038120999932289124,0.000307999987853691,0.005973000079393387
1779999131160529700,12.33752978515625,-0.08874300122261047,0.002506999997422099,0.008977999910712242
1779999131177806300,12.354806396484374,-0.08830499649047852,0.003352999920025468,0.007826000452041626
1779999131195082800,12.372082763671875,-0.03696199879050255,0.0018260000506415963,0.0036810000892728567
1779999131212359700,12.389359619140626,0.03535600006580353,0.000058000001445179805,-0.0013310000067576766
1779999131229636000,12.406635986328125,0.08617199957370758,-0.0015699999639764428,-0.0056119998916983604
1779999131246913000,12.4239130859375,0.08659599721431732,-0.0017059999518096447,-0.006730999797582626
1779999131264189700,12.441189697265624,0.036952998489141464,-0.0003389999910723418,-0.0032999999821186066
1779999131281466400,12.45846630859375,-0.033190999180078506,0.0006370000191964209,0.0019710001070052385
1779999131298742800,12.47574267578125,-0.08393000066280365,0.0011729999678209424,0.005880999844521284
1779999131316019700,12.493019775390625,-0.08420400321483612,0.0002789999998640269,0.006661000195890665
1779999131333296400,12.51029638671875,-0.03550099954009056,-0.0004330000083427876,0.0033569999504834414
1779999131350573000,12.527572998046875,0.03355899825692177,-0.0014900000533089042,-0.0022279999684542418
1779999131367849700,12.544849609375,0.0821240022778511,-0.0018210000125691295,-0.0066709998063743114
1779999131385126100,12.562126220703124,0.08218099921941757,-0.0004250000056345016,-0.008965999819338322
1779999131402403000,12.579403076171875,0.03614500164985657,0.0006079999729990959,-0.005840000230818987
1779999131419679700,12.5966796875,-0.030580999329686165,0.0007719999994151294,0.0004729999927803874
1779999131436956400,12.613956298828125,-0.07816299796104431,0.0007740000146441162,0.005241999868303537
1779999131454233000,12.631233154296876,-0.07940299808979034,0.001554999966174364,0.006302000023424625
1779999131471510000,12.648510009765625,-0.03482700139284134,0.0016969999996945262,0.003318999893963337
1779999131488786700,12.66578662109375,0.030035000294446945,0.00016700000560376793,-0.001091000041924417
1779999131506063400,12.6830634765625,0.07569599896669388,-0.0015640000347048044,-0.004284000024199486
1779999131523340000,12.700340087890625,0.07755500078201294,-0.0014860000228509307,-0.004031000193208456
1779999131540616700,12.71761669921875,0.03276300057768822,-0.00035099999513477087,-0.0010740000288933516
1779999131557893400,12.734893310546875,-0.030921999365091324,0.0017529999604448676,0.002744999947026372
1779999131575170000,12.752170166015626,-0.07747399806976318,0.002334000077098608,0.005789999850094318
1779999131592446700,12.76944677734375,-0.07781299948692322,0.0016339999856427312,0.006142999976873398
1779999131609723400,12.786723388671875,-0.03273700177669525,0.0008290000259876251,0.0029609999619424343
1779999131627000300,12.804000244140624,0.031091999262571335,-0.000859999970998615,-0.001357999979518354
1779999131644276700,12.82127685546875,0.07655099779367447,-0.0024900001008063555,-0.004379000049084425
1779999131661553400,12.838553466796874,0.07588300108909607,-0.002167999977245927,-0.005239999853074551
1779999131678830000,12.855830078125,0.031961001455783844,-0.0010809999657794833,-0.00343000004068017
1779999131696107000,12.87310693359375,-0.030618000775575638,0.00036700000055134296,0.0004459999909158796
1779999131713383700,12.8903837890625,-0.0743350014090538,0.0004769999941345304,0.003602999961003661
1779999131730660400,12.907660400390625,-0.07293300330638885,-0.00014099999680183828,0.004360999912023544
1779999131747936800,12.924936767578124,-0.028541000559926033,-0.000446999998530373,0.0018080000299960375
1779999131765213400,12.94221337890625,0.03320400044322014,-0.000859999970998615,-0.0017010000301524997
1779999131782490400,12.959490478515624,0.07388100028038025,-0.0008440000237897038,-0.004891000222414732
1779999131799766800,12.976766845703125,0.07229799777269363,0.00004600000102072954,-0.005758999846875668
1779999131817043700,12.994043701171876,0.028824999928474426,-0.00027600000612437725,-0.0022440000902861357
1779999131834320100,13.011320068359375,-0.031158000230789185,0.0007800000021234155,0.0026340000331401825
1779999131851597000,13.02859716796875,-0.07333900034427643,0.0015330000314861536,0.005781999789178371
1779999131868873700,13.045873779296874,-0.07221899926662445,0.0018230000277981162,0.005257999990135431
1779999131886150400,13.063150390625,-0.02872299961745739,0.0012049999786540866,0.0016799999866634607
1779999131903427000,13.080427001953124,0.031759001314640045,-0.0005680000176653266,-0.002612000098451972
1779999131920703500,13.097703369140625,0.07365799695253372,-0.002073999959975481,-0.0052709998562932014
1779999131937980400,13.11498046875,0.07179799675941467,-0.0017989999614655972,-0.005096000153571367
1779999131955257000,13.132257080078125,0.028531000018119812,-0.000666000007186085,-0.001972000114619732
1779999131972533800,13.14953369140625,-0.032009001821279526,0.0003640000068116933,0.002463999902829528
1779999131989810400,13.166810546875,-0.07406199723482132,0.0006539999740198255,0.005890000145882368
1779999132007087000,13.184087158203125,-0.07291200011968613,0.000661000027321279,0.0060789999552071095
1779999132024363800,13.20136376953125,-0.029664000496268272,0.000818000000435859,0.002256999956443906
1779999132041640400,13.218640380859375,0.030392000451683998,-0.00031800000579096377,-0.0030980000738054514
1779999132058917000,13.235917236328126,0.07194200158119202,-0.0016329999780282378,-0.005377000197768211
1779999132076194000,13.253194091796875,0.07152900099754333,-0.0014019999653100967,-0.004614999983459711
1779999132093470700,13.270470703125,0.029225999489426613,-0.0007949999999254942,-0.001256000017747283
1779999132110747100,13.2877470703125,-0.03000899963080883,0.000818000000435859,0.002283999929204583
1779999132128024000,13.305024169921875,-0.07183600217103958,0.0011360000353306532,0.005737000145018101
1779999132145300700,13.32230078125,-0.07149899750947952,0.0007779999868944287,0.00622399989515543
1779999132162577400,13.339577392578125,-0.029756000265479088,0.0005099999834783375,0.003140999935567379
1779999132179854000,13.35685400390625,0.02970699965953827,0.00022400000307243317,-0.0021879998967051506
1779999132197130800,13.374130859375,0.07120899856090546,0.00030899999546818435,-0.00558600015938282
1779999132214407400,13.391407470703125,0.07162000238895416,-0.0010010000551119447,-0.005016999784857035
1779999132231684400,13.408684326171874,0.030062999576330185,-0.0006150000263005495,-0.0009519999730400741
1779999132248960800,13.425960693359375,-0.028974000364542007,0.00014200000441633165,0.0035890000872313976
1779999132266237400,13.443237548828124,-0.07097099721431732,0.0014690000098198652,0.005640000104904175
1779999132283514000,13.46051416015625,-0.07186400145292282,0.0019859999883919954,0.004821999929845333
1779999132300790800,13.477790771484376,-0.02956799976527691,0.0009899999713525176,0.0017460000235587358
1779999132318067700,13.495067626953125,0.029496999457478523,-0.0007949999999254942,-0.002940000034868717
1779999132335344000,13.51234423828125,0.07200700044631958,-0.002498999936506152,-0.006246000062674284
1779999132352620800,13.529620849609374,0.07234899699687958,-0.0026199999265372753,-0.006703000050038099
1779999132369897500,13.5468974609375,0.031651999801397324,-0.0016129999421536922,-0.003536999924108386
1779999132387174400,13.56417431640625,-0.027192000299692154,0.0007409999961964786,0.0002500000118743628
1779999132404450800,13.581450927734375,-0.06980399787425995,0.0014309999532997608,0.003043999895453453
1779999132421727500,13.5987275390625,-0.07012300193309784,0.0009919999865815043,0.004437000025063753
1779999132439004200,13.616004150390625,-0.030263999477028847,-0.0009079999872483313,0.0036299999337643385
1779999132464919000,13.6419189453125,0.0517130009829998,-0.002114000031724572,-0.0022140000946819782
1779999132482196000,13.659196044921876,0.07345099747180939,-0.0008679999737069011,-0.005565000232309103
1779999132499472600,13.67647265625,0.052994001656770706,0.00018400000408291817,-0.005144000053405762
1779999132516749300,13.693749267578125,0.001601999974809587,0.0011390000581741333,-0.0009950000094249845
1779999132534026000,13.71102587890625,-0.05000999942421913,0.00072900002123788,0.004327000118792057
1779999132551302700,13.728302734375,-0.0725260004401207,0.0001340000017080456,0.006955000106245279
1779999132568579300,13.745579345703124,-0.05245300009846687,0.00044299999717622995,0.005268000066280365
1779999132585856300,13.762856201171875,-0.0025080000050365925,0.0007810000097379088,0.0010740000288933516
1779999132603132700,13.780132568359376,0.04826899990439415,0.00047400000039488077,-0.003114999970421195
1779999132620409300,13.797409423828125,0.07044199854135513,0.0003539999888744205,-0.005247999913990498
1779999132637686000,13.81468603515625,0.05151500180363655,-0.0011630000080913305,-0.002770999912172556
1779999132654962700,13.831962646484374,0.0026340000331401825,-0.0006300000241026282,0.0014029999729245901
1779999132672239600,13.849239501953125,-0.04877600073814392,0.0008340000058524311,0.004585999995470047
1779999132689516000,13.86651611328125,-0.07150699943304062,0.0015290000010281801,0.00532200001180172
1779999132706792700,13.883792724609375,-0.052873000502586365,0.0022799998987466097,0.0029329999815672636
1779999132724069400,13.9010693359375,-0.0029800001066178083,0.000195999993593432,-0.00003600000127335079
1779999132741346300,13.91834619140625,0.04891100153326988,-0.0012390000047162175,-0.0034050000831484795
1779999132758622700,13.935622802734375,0.0712990015745163,-0.0014179999707266688,-0.005483999848365784
1779999132775899600,13.952899658203124,0.052560001611709595,-0.0009710000013001263,-0.004517999943345785
1779999132793176000,13.970176025390625,0.0035069999285042286,0.00018099999579135329,-0.001231999951414764
1779999132810452700,13.98745263671875,-0.0467349998652935,0.0008820000221021473,0.0030519999563694
1779999132827729700,14.004729736328125,-0.06954900175333023,0.0004239999980200082,0.005692000035196543
1779999132845006300,14.02200634765625,-0.05170999839901924,0.000590000010561198,0.004867999814450741
1779999132862283000,14.039282958984375,-0.003957000095397234,0.0004290000069886446,0.0012779999524354935
1779999132879559700,14.0565595703125,0.04521000012755394,-0.0005670000100508332,-0.002626999979838729
1779999132896836400,14.07383642578125,0.06731099635362625,-0.0007329999934881926,-0.005113999824970961
1779999132914113000,14.091113037109375,0.05042799934744835,-0.00034100000630132854,-0.003872999921441078
1779999132931389700,14.1083896484375,0.00496200006455183,0.0005849999724887311,-0.0009210000280290842
1779999132948666400,14.125666259765625,-0.043891001492738724,0.001496999990195036,0.002280999906361103
1779999132965943000,14.142943115234376,-0.06567399948835373,0.00023099999816622585,0.00482900021597743
1779999132983219700,14.1602197265625,-0.04905100166797638,0.00014699999883305281,0.004162000026553869
1779999133000496400,14.177496337890625,-0.0039029999170452356,-0.00013499999477062374,0.0006469999789260328
1779999133017773000,14.19477294921875,0.04351000115275383,-0.0004939999780617654,-0.0034519999753683805
1779999133035049700,14.2120498046875,0.06452299654483795,-0.00013800000306218863,-0.005743999965488911
1779999133052326400,14.229326416015626,0.04828900098800659,-0.0003809999907389283,-0.0042119999416172504
1779999133069603000,14.24660302734375,0.0034920000471174717,0.0001630000042496249,-0.0003859999997075647
1779999133086879700,14.263879638671876,-0.04329900071024895,0.001151000033132732,0.003567999927327037
1779999133104156400,14.281156494140625,-0.06506600230932236,0.0012600000482052565,0.004964000079780817
1779999133121433000,14.29843310546875,-0.0495540015399456,0.0008319999906234443,0.0035979999229311943
1779999133138709800,14.315709716796874,-0.005028999876230955,-0.0005130000063218176,0.0006430000066757202
1779999133155986700,14.332986572265625,0.041485000401735306,-0.0009159999899566174,-0.0031349998898804188
1779999133173263000,14.35026318359375,0.06370200216770172,-0.0013899999903514981,-0.00607800018042326
1779999133190540000,14.3675400390625,0.048746999353170395,-0.001361000002361834,-0.00459099980071187
1779999133207816400,14.38481640625,0.006351000163704157,-0.00009300000237999484,-0.0011129999766126275
1779999133225093400,14.40209326171875,-0.040716998279094696,0.001025000005029142,0.002247000113129616
1779999133242370000,14.4193701171875,-0.06336300075054169,0.0011149999918416142,0.004246000200510025
1779999133259646700,14.436646728515624,-0.04945899918675423,-0.00006399999983841553,0.004554999992251396
1779999133276923400,14.45392333984375,-0.0066650002263486385,-0.000678999989759177,0.00203399988822639
1779999133294200000,14.471199951171876,0.03888300061225891,-0.0008679999737069011,-0.0017859999788925052
1779999133311476500,14.4884765625,0.06121800094842911,-0.0005680000176653266,-0.004499000031501055
1779999133328753400,14.50575341796875,0.047742001712322235,0.00010800000018207356,-0.003951000049710274
1779999133354668300,14.531668212890626,-0.017114000394940376,-0.00011500000255182385,0.0015109999803826213
1779999133371945000,14.548945068359375,-0.05308099836111069,0.00047400000039488077,0.004629999864846468
1779999133389221600,14.5662216796875,-0.05793900042772293,0.00120900000911206,0.004838999826461077
1779999133406498300,14.583498291015625,-0.028658000752329826,0.000965000013820827,0.002687999978661537
1779999133423775000,14.60077490234375,0.016536999493837357,0.000018000000636675395,-0.000295000005280599
1779999133441051600,14.6180517578125,0.05206099897623062,-0.0007789999945089221,-0.002397000091150403
1779999133458328300,14.635328369140625,0.056074000895023346,-0.0007409999961964786,-0.003154000034555793
1779999133475605000,14.65260498046875,0.027375999838113785,0.00009899999713525176,-0.0018649999983608723
1779999133492881700,14.669881591796875,-0.01729400083422661,0.0006500000017695129,0.0008340000058524311
1779999133510158300,14.687158447265626,-0.05175400152802467,0.0009389999904669821,0.002715999959036708
1779999133527435300,14.704435302734375,-0.05485599860548973,0.0006649999995715916,0.003077999921515584
1779999133544712000,14.7217119140625,-0.025536999106407166,-0.0004030000127386302,0.0012039999710395932
1779999133561988400,14.73898828125,0.018866000697016716,-0.0010110000148415565,-0.0021510000806301832
1779999133579265000,14.75626513671875,0.052097998559474945,-0.0015660000499337912,-0.004401000216603279
1779999133596541700,14.773541748046876,0.055038999766111374,-0.0017040000529959798,-0.00507500022649765
1779999133613818600,14.790818603515625,0.026572000235319138,-0.000783999974373728,-0.0030950000509619713
1779999133631095300,14.80809521484375,-0.016648000106215477,0.00008499999967170879,-0.00011700000322889537
1779999133648372000,14.8253720703125,-0.050011999905109406,0.0009350000182166696,0.0023739999160170555
1779999133665648600,14.842648681640625,-0.05314299836754799,0.000598000013269484,0.0036120000295341015
1779999133682925000,14.859925048828124,-0.02512899972498417,-0.00008900000102585182,0.0020179999992251396
1779999133700202000,14.877201904296875,0.017059000208973885,-0.0005419999943114817,-0.0008520000264979899
1779999133717478700,14.894478759765626,0.04944700002670288,-0.0014440000522881746,-0.0031870000530034304
1779999133734755300,14.91175537109375,0.05293300002813339,-0.0012169999536126852,-0.003748999908566475
1779999133752032000,14.929031982421876,0.025276999920606613,-0.0004980000085197389,-0.0010590000310912728
1779999133769308700,14.94630859375,-0.016697000712156296,0.0008420000085607171,0.002217999892309308
1779999133786585300,14.96358544921875,-0.04991700127720833,0.0015589999966323376,0.004009999800473452
1779999133803862000,14.980862060546874,-0.053119998425245285,0.0009850000496953726,0.0043020001612603664
1779999133821138700,14.998138671875,-0.02506300061941147,0.00018400000408291817,0.002945000072941184
1779999133838415400,15.015415283203126,0.01740800030529499,-0.0002519999979995191,0.00002099999983329326
1779999133855692000,15.032692138671875,0.04891800135374069,-0.00008399999933317304,-0.0030610000248998404
1779999133872968700,15.04996875,0.05130600184202194,0.00013699999544769526,-0.0038219999987632036
1779999133890245400,15.067245361328125,0.02405400015413761,0.00009999999747378752,-0.0015150000108405948
1779999133907522000,15.08452197265625,-0.01723800040781498,-0.00021600000036414713,0.0024880000855773687
1779999133924798700,15.101798828125,-0.048934999853372574,0.0002570000069681555,0.004298000130802393
1779999133942075400,15.119075439453125,-0.0518530011177063,0.001158999977633357,0.0035669999197125435
1779999133959352000,15.13635205078125,-0.024240000173449516,0.0009079999872483313,0.0004830000107176602
1779999133976628700,15.153628662109375,0.01765500009059906,-0.00026000000070780516,-0.002930999966338277
1779999133993905400,15.170905517578126,0.04925300180912018,-0.0016090000281110406,-0.004135000053793192
1779999134011182000,15.18818212890625,0.05206900089979172,-0.0009399999980814755,-0.004701000172644854
1779999134028459000,15.205458984375,0.02464500069618225,-0.0004990000161342323,-0.003352999920025468
1779999134045735400,15.2227353515625,-0.016248000785708427,0.000534999999217689,0.0001250000059371814
1779999134063012000,15.24001220703125,-0.048287998884916306,0.0006360000115819275,0.0034229999873787165
1779999134080288800,15.257288818359376,-0.05173100158572197,0.0004830000107176602,0.004360000137239695
1779999134097565400,15.2745654296875,-0.025846000760793686,0.00029600001289509237,0.0021269998978823423
1779999134114842400,15.29184228515625,0.01561800017952919,-0.0005239999736659229,-0.0012799999676644802
1779999134132119000,15.309119140625,0.04729799926280975,-0.000526999996509403,-0.0038689998909831047
1779999134149395500,15.3263955078125,0.05066400021314621,-0.0005920000257901847,-0.0036120000295341015
1779999134166672400,15.34367236328125,0.024678999558091164,-0.000455000001238659,-0.0016220000106841326
1779999134183948800,15.36094873046875,-0.015917999669909477,0.0004990000161342323,0.0014750000555068254
1779999134201225500,15.3782255859375,-0.047196999192237854,0.0011739999754354358,0.004031999967992306
1779999134218502100,15.395502197265625,-0.05130400136113167,0.0019379999721422791,0.004610000178217888
1779999134235778800,15.41277880859375,-0.025635000318288803,0.0015979999443516135,0.003409000113606453
1779999134253055500,15.430055419921874,0.014438999816775322,0.0005499999970197678,0.0002800000074785203
1779999134270332200,15.447332275390625,0.04538299888372421,-0.00046400001156143844,-0.001976999919861555
1779999134287608800,15.46460888671875,0.04874899983406067,-0.0008839999791234732,-0.00254100002348423
1779999134304885800,15.4818857421875,0.023313000798225403,-0.0006419999990612268,-0.0014600000577047467
1779999134322162400,15.499162353515626,-0.015796000137925148,0.0007880000048317015,0.00040499999886378646
1779999134339439000,15.516439208984375,-0.04557599872350693,0.0006699999794363976,0.0021989999804645777
1779999134356715800,15.5337158203125,-0.0477369986474514,-0.000003999999989900971,0.002607000060379505
1779999134373992400,15.550992431640625,-0.021771999076008797,-0.0006409999914467335,0.0014769999543204904
1779999134391269000,15.56826904296875,0.01756099984049797,-0.001303000026382506,-0.0014530000044032931
1779999134408545800,15.5855458984375,0.046209000051021576,-0.0010130000300705433,-0.0045540002174675465
1779999134425822500,15.602822509765625,0.04848700016736984,-0.0006350000039674342,-0.0053010000847280025
1779999134443099100,15.62009912109375,0.023053999990224838,-0.00015100000018719584,-0.0031880000606179237
1779999134460375600,15.63737548828125,-0.01501999981701374,-0.0005559999844990671,0.001290000043809414
1779999134477652500,15.654652587890626,-0.04405700042843819,-0.00011300000187475234,0.0034539999905973673
1779999134494929200,15.67192919921875,-0.048016998916864395,0.00016900000628083944,0.0032059999648481607
1779999134512205800,15.689205810546875,-0.02325199916958809,0.000006000000212225132,0.0012989999959245324
1779999134529482500,15.706482421875,0.014599000103771687,-0.0002119999990100041,-0.0014649999793618917
1779999134555397400,15.7323974609375,0.05042799934744835,-0.0007469999836757779,-0.003984000068157911
1779999134572674000,15.749674072265625,0.03865500167012215,-0.0007200000109151006,-0.002102999947965145
1779999134589950700,15.76695068359375,0.004879999905824661,0.00040600000647827983,0.0008229999803006649
1779999134607227600,15.7842275390625,-0.0326090008020401,0.0017529999604448676,0.003309000050649047
1779999134624504300,15.80150439453125,-0.050974998623132706,0.0020409999415278435,0.005013999994844198
1779999134641780700,15.81878076171875,-0.04030799865722656,0.0017010000301524997,0.004650999791920185
1779999134659057400,15.836057373046875,-0.006105000153183937,0.0004889999981969595,0.002185000106692314
1779999134676334000,15.853333984375,0.030679000541567802,-0.00013299999409355223,-0.0009740000241436064
1779999134693610800,15.87061083984375,0.0486919991672039,-0.0006849999772384763,-0.0028440000023692846
1779999134710887700,15.8878876953125,0.039062999188899994,-0.0003490000090096146,-0.0034280000254511833
1779999134728164000,15.9051640625,0.005973000079393387,0.00040099999750964344,-0.0015300000086426735
1779999134745440800,15.922440673828126,-0.029409000650048256,0.0007670000195503235,0.001547000021673739
1779999134762717400,15.939717529296875,-0.04765300080180168,0.001167000038549304,0.0025470000691711903
1779999134779994000,15.956994140625,-0.03699500113725662,0.00047900000936351717,0.0021780000533908606
1779999134797271000,15.97427099609375,-0.004532999824732542,0.0005619999719783664,0.0003859999997075647
1779999134814547700,15.991547607421875,0.030100999400019646,-0.00076299998909235,-0.0015899999998509884
1779999134831824400,16.008824462890626,0.047749001532793045,-0.0003600000054575503,-0.00406799977645278
1779999134849100800,16.026100830078125,0.036747999489307404,-0.0007029999978840351,-0.003355999942868948
1779999134866377500,16.04337744140625,0.005869000218808651,-0.0002840000088326633,-0.0006539999740198255
1779999134883654400,16.060654296875,-0.02934800088405609,-0.00006600000051548705,0.0018390000332146883
1779999134900930800,16.077930908203125,-0.0465410016477108,0.0002119999990100041,0.0031419999431818724
1779999134918207500,16.09520751953125,-0.03651199862360954,0.00009699999645818025,0.0024190000258386135
1779999134935484200,16.112484130859375,-0.0047969999723136425,0.000048999998398358,0.00027200000477023423
1779999134952760800,16.1297607421875,0.029534999281167984,-0.0004020000051241368,-0.0022750000935047865
1779999134970037800,16.147037841796877,0.045347001403570175,-0.0010740000288933516,-0.0030129998922348022
1779999134987314400,16.164314453125,0.03553000092506409,-0.0011340000201016665,-0.001863999990746379
1779999135004590800,16.1815908203125,0.004002999980002642,-0.0009420000133104622,0.000783999974373728
1779999135021867500,16.198867431640625,-0.029035000130534172,0.00013600000238511711,0.0031820000149309635
1779999135039144200,16.216144287109376,-0.04600900039076805,0.001158999977633357,0.003260999917984009
1779999135056420900,16.2334208984375,-0.03547000139951706,0.0000779999973019585,0.0020490000024437904
1779999135073697800,16.25069775390625,-0.004069000016897917,-0.0005239999736659229,0.0001880000054370612
1779999135090974200,16.26797412109375,0.02978700026869774,-0.0014199999859556556,-0.001563000027090311
1779999135108251000,16.2852509765625,0.04661700129508972,-0.0011129999766126275,-0.0035149999894201756
1779999135125527600,16.302527587890626,0.035284001380205154,-0.0003549999964889139,-0.0035890000872313976
1779999135142804200,16.31980419921875,0.004459999967366457,0.00014200000441633165,-0.0012629999546334147
1779999135160081000,16.337080810546876,-0.028768999502062798,-0.00027799999224953353,0.0017180000431835651
1779999135177357600,16.354357666015623,-0.04476600140333176,-0.000012000000424450263,0.003510999958962202
1779999135203272400,16.3802724609375,-0.020920999348163605,0.0004299999854993075,0.0014730000402778387
1779999135220549400,16.39754931640625,0.013411000370979309,0.0003769999893847853,-0.0014169999631121755
1779999135237826000,16.414825927734373,0.03937700018286705,-0.00012799999967683107,-0.0030249999836087227
1779999135255102700,16.432102783203124,0.042927999049425125,-0.000783999974373728,-0.0031870000530034304
1779999135272379400,16.44937939453125,0.021245000883936882,-0.0008079999824985862,-0.0008140000281855464
1779999135289656000,16.466656005859374,-0.013074000366032124,-0.000045000000682193786,0.002770999912172556
1779999135306932700,16.4839326171875,-0.03984000161290169,0.0013360000448301435,0.004377000033855438
1779999135324209400,16.50120947265625,-0.04472900182008743,0.002693000016734004,0.0036810000892728567
1779999135341486000,16.518486083984374,-0.02322700060904026,0.0017869999865069985,0.002216000109910965
1779999135358762800,16.5357626953125,0.011039000004529953,0.0006709999870508909,0.000014000000192027073
1779999135376039400,16.553039306640624,0.03876600041985512,-0.0006799999973736703,-0.0015219999477267265
1779999135393316000,16.570316162109375,0.04314899817109108,-0.0011370000429451466,-0.002351999981328845
1779999135410592800,16.5875927734375,0.02192400023341179,0.00021600000036414713,-0.0026279999874532223
1779999135427869400,16.604869384765625,-0.011849000118672848,0.0009289999725297093,-0.0015670000575482845
1779999135445146000,16.62214599609375,-0.03788100183010101,-0.000029999999242136255,0.0009869999485090375
1779999135462422800,16.6394228515625,-0.04103799909353256,-0.0006699999794363976,0.0017549999756738544
1779999135479699500,16.656699462890625,-0.019308999180793762,-0.001028000027872622,0.0006380000268109143
1779999135496976100,16.67397607421875,0.014046000316739082,-0.00039000000106170774,-0.002372999908402562
1779999135514252800,16.691252685546875,0.03859800100326538,-0.0001340000017080456,-0.003930999897420406
1779999135531529500,16.708529541015626,0.04091000184416771,-0.0005450000171549618,-0.003996000159531832
1779999135548806100,16.72580615234375,0.019649000838398933,-0.00046400001156143844,-0.00278700003400445
1779999135566082800,16.743082763671875,-0.012757999822497368,-0.0005649999948218465,0.0002570000069681555
1779999135583359500,16.760359375,-0.036292001605033875,-0.000526999996509403,0.0024999999441206455
1779999135600636000,16.777635986328125,-0.038975998759269714,0.00014699999883305281,0.0030040000565350056
1779999135617912800,16.794912841796876,-0.01981399953365326,-0.0005430000019259751,0.0017049999441951513
1779999135643828000,16.820827880859376,0.024568000808358192,-0.0001320000010309741,-0.003154000034555793
1779999135661104400,16.8381044921875,0.04030299931764603,-0.0003530000103637576,-0.00406000018119812
1779999135678381000,16.855381103515626,0.03300600126385689,-0.0003020000003743917,-0.0017940000398084521
1779999135695657700,16.87265771484375,0.007021000143140554,0.0013879999751225114,0.0015950000379234552
1779999135712934400,16.889934326171876,-0.023365000262856483,0.0018840000266209245,0.004875000100582838
1779999135730210800,16.9072109375,-0.041485998779535294,0.002736999886110425,0.006641999818384647
1779999135747487700,16.92448779296875,-0.037029001861810684,0.0026829999405890703,0.00583299994468689
1779999135764764400,16.941764404296876,-0.013066999614238739,0.0015379999531432986,0.003413999918848276
1779999135782041000,16.959041015625,0.017210999503731728,0.00113800005055964,-0.001196000026538968
1779999135799317800,16.97631787109375,0.03709999844431877,-0.0004959999932907522,-0.002768999896943569
1779999135816594200,16.99359423828125,0.03390299901366234,-0.002626999979838729,-0.0013000000035390258
1779999135833871000,17.01087109375,0.009112000465393066,-0.00317499996162951,0.001617999980226159
1779999135851147800,17.028147705078126,-0.02404399961233139,-0.0013810000382363796,0.0034729999024420977
1779999135868424400,17.045424560546873,-0.043758001178503036,0.00040499999886378646,0.002478000009432435
1779999135885701000,17.062701171875,-0.03659500181674957,0.002810999983921647,-0.0018980000168085098
1779999135902977800,17.079977783203127,-0.006318999920040369,0.001990000018849969,-0.002337000099942088
1779999135920254200,17.097254150390626,0.029534999281167984,-0.001686000032350421,0.00120900000911206
1779999135937531100,17.11453125,0.04659600183367729,-0.00266100000590086,0.001908999984152615
1779999135954807800,17.131807861328124,0.03491299971938133,-0.001370999962091446,-0.0005639999872073531
1779999135972084500,17.14908447265625,0.0022040000185370445,0.0018400000408291817,-0.0026829999405890703
1779999135989361200,17.166361083984373,-0.029587000608444214,0.0037169998977333307,-0.0031590000726282597
1779999136006637800,17.183637939453124,-0.04086099937558174,0.0023789999540895224,-0.000375000003259629
1779999136023914200,17.200914306640627,-0.025908999145030975,-0.0004290000069886446,0.0013670000480487943
1779999136041191000,17.21819091796875,0.005355000030249357,-0.001307999948039651,0.0020490000024437904
1779999136058467800,17.2354677734375,0.03189900144934654,-0.0004419999895617366,-0.00030899999546818435
1779999136075744500,17.25274462890625,0.03990299999713898,0.0019749999046325684,-0.0035920001100748777
1779999136093021200,17.270021240234374,0.025104999542236328,0.002974000060930848,-0.0052089998498559
1779999136110297900,17.2872978515625,-0.0008929999894462526,-0.0005200000014156103,-0.002887000096961856
1779999136127574500,17.304574462890624,-0.024143999442458153,-0.002553999889642,0.0010870000114664435
1779999136144851200,17.321851318359375,-0.03398299962282181,-0.00418699998408556,0.005609000101685524
1779999136162128000,17.3391279296875,-0.025462999939918518,-0.003418999956920743,0.0025430000387132168
1779999136179404500,17.356404541015625,-0.004720000084489584,0.00004400000034365803,-0.006118000019341707
1779999136196681200,17.37368115234375,0.02139200083911419,-0.00037900000461377203,-0.010475000366568565
1779999136213957600,17.39095751953125,0.0364839993417263,-0.0030380000825971365,-0.007903999648988247
1779999136231234300,17.408234375,0.032079000025987625,-0.005632000043988228,-0.002174000022932887
1779999136248511200,17.42551123046875,0.007563999854028225,-0.005685000214725733,0.0023219999857246876
1779999136265788000,17.442787841796875,-0.02352900058031082,-0.003217000048607588,0.0028379999566823244
1779999136283064300,17.460064208984374,-0.040734998881816864,-0.00037399999564513564,0.0019950000569224358
1779999136300341200,17.47734130859375,-0.03437900170683861,0.0003600000054575503,0.0008430000161752105
1779999136317618000,17.494617919921875,-0.006496000103652477,-0.0002280000044265762,-0.0006339999963529408
1779999136334894300,17.511894287109374,0.02562900073826313,-0.0007970000151544809,-0.0019369999645277858
1779999136352171000,17.5291708984375,0.043418999761343,-0.0007520000217482448,-0.002643000101670623
1779999136369448000,17.546447998046876,0.035663001239299774,0.0008699999889358878,-0.002188999904319644
1779999136386724400,17.563724365234375,0.006372999865561724,0.0030330000445246696,-0.0004309999931138009
1779999136404001000,17.5810009765625,-0.025693999603390694,0.002604000037536025,0.002351999981328845
1779999136421277700,17.598277587890625,-0.04273400083184242,0.0016540000215172768,0.0051299999468028545
1779999136438554400,17.615554443359375,-0.03461199998855591,0.0006500000017695129,0.005834999959915876
1779999136464469200,17.64146923828125,0.007823999971151352,0.001572999986819923,0.0018240000354126096
1779999136481746000,17.658745849609375,0.032242000102996826,0.002167999977245927,-0.002047999994829297
1779999136499022800,17.67602294921875,0.036906998604536057,0.0009919999865815043,-0.0035570000763982534
1779999136516299500,17.693299560546876,0.02080100029706955,-0.00043700000969693065,-0.0016129999421536922
1779999136533576000,17.710575927734375,-0.007679999805986881,0.000025999999706982635,0.0006900000153109431
1779999136550852600,17.7278525390625,-0.03164000064134598,0.0011139999842271209,0.0019729998894035816
1779999136568129300,17.74512939453125,-0.0377580001950264,0.001069999998435378,0.0020409999415278435
1779999136585406000,17.762406005859376,-0.02160000056028366,0.0006459999713115394,0.0008720000041648746
1779999136602682600,17.7796826171875,0.007780999876558781,-0.0007980000227689743,0.00007300000288523734
1779999136619959600,17.79695947265625,0.03207400068640709,-0.0009190000128000975,-0.001395000028423965
1779999136637236200,17.814236328125,0.03728500008583069,-0.00009000000136438757,-0.0017470000311732292
1779999136654512600,17.8315126953125,0.020440999418497086,0.000387999985832721,-0.0007229999755509198
1779999136671789300,17.848789306640626,-0.008944000117480755,0.0014609999489039183,0.001769999973475933
1779999136689066000,17.86606591796875,-0.03279300034046173,0.0013689999468624592,0.0037620000075548887
1779999136706342700,17.8833427734375,-0.03792199864983559,0.001155999954789877,0.004449000116437674
1779999136723619600,17.90061962890625,-0.02104100026190281,0.0003060000017285347,0.003154000034555793
1779999136740896300,17.917896240234374,0.007972000166773796,-0.00009699999645818025,0.00020599999697878957
1779999136758172700,17.935172607421876,0.03227299824357033,-0.000598000013269484,-0.0023300000466406345
1779999136775449300,17.952449462890623,0.03766699880361557,-0.0012369999894872308,-0.0035329998936504126
1779999136792726000,17.96972607421875,0.021246999502182007,-0.0008679999737069011,-0.002592999953776598
1779999136810002700,17.987002685546877,-0.006653999909758568,-0.0008360000210814178,-0.0007789999945089221
1779999136827279600,18.004279541015624,-0.030344000086188316,-0.0002800000074785203,0.0004199999966658652
1779999136844556000,18.02155615234375,-0.03530599921941757,-0.0004600000102072954,0.0008549999911338091
1779999136861832700,18.038832763671873,-0.019253000617027283,-0.000012999999853491317,-0.00009000000136438757
1779999136879109400,18.056109375,0.00810999982059002,-0.0009399999980814755,-0.001307999948039651
1779999136896386000,18.073385986328127,0.030534999445080757,-0.0015839999541640282,-0.002993999980390072
1779999136913662700,18.090662841796874,0.031883999705314636,-0.001344999996945262,-0.003025999991223216
1779999136930939400,18.107939453125,0.016232000663876534,-0.0006440000142902136,-0.00240899994969368
1779999136948216000,18.125216064453124,-0.010122000239789486,0.00088900001719594,-0.000674000009894371
1779999136965492700,18.14249267578125,-0.029690999537706375,0.0010029999539256096,0.0007680000271648169
1779999136982769400,18.159769287109373,-0.03164999932050705,0.0003220000071451068,0.001294999965466559
1779999137008684300,18.185684326171874,-0.0005610000225715339,0.000003999999989900971,-0.00002499999936844688
1779999137025961200,18.202961181640624,0.02160399965941906,0.000155999994603917,-0.0011650000233203173
1779999137043237600,18.220237548828123,0.0323060005903244,0.0015290000010281801,-0.002085000043734908
1779999137060514300,18.237514404296874,0.028599999845027924,0.0010160000529140234,-0.0016530000139027834
1779999137077791000,18.254791015625,0.006843999959528446,0.0002800000074785203,0.0008299999753944576
1779999137095067600,18.272067626953124,-0.021462000906467438,0.0012509999796748161,0.003235999960452318
1779999137112344300,18.28934423828125,-0.03215299919247627,0.000838999985717237,0.003705000039190054
1779999137129621000,18.30662109375,-0.025642000138759613,0.0019409999949857593,0.001962000038474798
1779999137155536100,18.3325361328125,0.006297999992966652,-0.0004349999944679439,-0.00036800000816583633
1779999137172812800,18.349812744140625,0.01964999921619892,-0.000661000027321279,-0.001383999944664538
1779999137190089500,18.36708935546875,0.022709999233484268,-0.001623000018298626,-0.001344999996945262
1779999137207366100,18.3843662109375,0.01435600034892559,-0.0016250000335276127,-0.0010519999777898192
1779999137224642600,18.401642578125,0.003378999885171652,-0.0010529999854043126,-0.00012399999832268804
1779999137241919200,18.418919189453124,-0.008581000380218029,-0.0005080000264570117,0.0013490000274032354
1779999137259196200,18.436196044921875,-0.019937999546527863,-0.000770999991800636,0.00253499997779727
1779999137276472600,18.45347265625,-0.020339999347925186,-0.0010550000006332994,0.0028349999338388443
1779999137293749200,18.470749267578125,-0.0169489998370409,-0.0007259999983943999,0.0018400000408291817
1779999137311026000,18.48802587890625,-0.040977999567985535,-0.0005409999866969883,0.0014449999434873462
1779999137328302600,18.505302490234374,0.0016080000204965472,-0.003025999991223216,-0.0002610000083222985
1779999137345579300,18.522579345703125,0.031466998159885406,-0.00026500000967644155,-0.004902000073343515
1779999137362856000,18.53985595703125,0.06822700053453445,-0.00027099999715574086,-0.007259000092744827
1779999137380132600,18.557132568359375,-0.011096999980509281,0.0011269999668002129,-0.004046000074595213
1779999137397409500,18.574409423828126,-0.07595500349998474,-0.00026000000070780516,0.0010470000561326742
1779999137414686000,18.59168603515625,-0.10630899667739868,0.000699999975040555,0.0009889999637380242
1779999137431962600,18.608962646484375,-0.030275000259280205,-0.0017839999636635184,-0.00546699995175004
1779999137449239300,18.6262392578125,0.050891999155282974,-0.0026599999982863665,-0.012891000136733055
1779999137466516000,18.643515869140625,0.09538599848747253,-0.004484999924898148,-0.016992000862956047
1779999137483792400,18.66079248046875,0.05900600180029869,-0.0024739999789744616,-0.01730700023472309
1779999137501069000,18.678069091796875,-0.030652999877929688,0.0007379999733529985,-0.01486700028181076
1779999137518346000,18.695345947265626,-0.09716200083494186,0,-0.013611000031232834
1779999137535622700,18.71262255859375,-0.09023399651050568,-0.0011859999503940344,-0.01381599996238947
1779999137552899000,18.729899169921875,-0.024362999945878983,-0.0022009999956935644,-0.02059599943459034
1779999137570175700,18.74717578125,0.07241500169038773,-0.00305499997921288,-0.03057599999010563
1779999137587452400,18.764452392578125,0.03705500066280365,0.0015660000499337912,-0.03541899845004082
1779999137604729000,18.78172900390625,-0.019267000257968903,-0.0016129999421536922,-0.03212499991059303
1779999137622005800,18.799005859375,-0.07342299818992615,-0.002142000012099743,-0.030974000692367554
1779999137639282700,18.81628271484375,-0.0060629998333752155,-0.0035019998904317617,-0.037268999963998795
1779999137656559400,18.833559326171876,0.044077999889850616,-0.0021649999544024467,-0.04674699902534485
1779999137673836000,18.8508359375,0.07920800149440765,-0.0018189999973401427,-0.05438299849629402
1779999137691112400,18.868112548828126,0.04561400040984154,-0.00043700000969693065,-0.054037999361753464
1779999137708389000,18.88538916015625,-0.02892399951815605,-0.00013899999612476677,-0.051851000636816025
1779999137725665800,18.902665771484376,-0.0825899988412857,0.00017800000205170363,-0.050273001194000244
1779999137742942700,18.919942626953127,-0.04479299858212471,-0.004517999943345785,-0.053091999143362045
1779999137760219400,18.937219482421874,0.05223200097680092,-0.006618000101298094,-0.06072799861431122
1779999137777496000,18.95449609375,0.10660699754953384,-0.0039160000160336494,-0.06593400239944458
1779999137794772500,18.9717724609375,0.08651699870824814,-0.0020979999098926783,-0.06864099949598312
1779999137812049200,18.989049072265626,0.012515000067651272,-0.0001939999929163605,-0.06528100371360779
1779999137829325800,19.006325927734373,-0.06251499801874161,0.0006150000263005495,-0.05688999965786934
1779999137846602800,19.023602783203124,-0.04345500096678734,-0.002234000014141202,-0.05402100086212158
1779999137863879200,19.040879150390627,0.01097199972718954,-0.0015450000064447522,-0.05963800102472305
1779999137881155800,19.05815576171875,0.040856000036001205,0.00012099999730708078,-0.06428000330924988
1779999137898432500,19.0754326171875,0.018617000430822372,0.0025530001148581505,-0.06384299695491791
1779999137915709200,19.092709228515623,-0.0008590000215917826,0.004863000009208918,-0.060972001403570175
1779999137932985900,19.10998583984375,-0.02674899995326996,0.0045540002174675465,-0.05621299892663956
1779999137950262500,19.127262451171877,-0.05876300111413002,0.004534999839961529,-0.05561700090765953
1779999137967539200,19.144539306640624,-0.01928200013935566,0.004178999923169613,-0.0571880005300045
1779999137984815900,19.16181591796875,0.031190000474452972,0.003898999886587262,-0.061868999153375626
1779999138002092300,19.17909228515625,0.044387999922037125,0.00636200001463294,-0.0640999972820282
1779999138019369000,19.196368896484376,-0.0033939999993890524,0.007772999815642834,-0.06213200092315674
1779999138036645600,19.213645751953123,-0.04837099835276604,0.005127999931573868,-0.055883001536130905
1779999138053922300,19.23092236328125,-0.05320199951529503,0.002950000111013651,-0.05253500118851662
1779999138071199000,19.248198974609377,-0.01644900068640709,0.0005089999758638442,-0.05411799997091293
1779999138088476000,19.265475830078124,0.04085199907422066,-0.00133200001437217,-0.06018500030040741
1779999138105752600,19.282752685546875,0.03759099915623665,0.001686000032350421,-0.063850998878479
1779999138123029000,19.300029052734374,0.012048999778926373,0.0008110000053420663,-0.0586169995367527
1779999138140305700,19.3173056640625,-0.0215620007365942,-0.0010499999625608325,-0.05291900038719177
1779999138157582300,19.334582275390623,-0.015675000846385956,-0.002343999920412898,-0.050981998443603516
1779999138174859000,19.35185888671875,-0.003409000113606453,-0.004217999987304211,-0.0507889986038208
1779999138192136000,19.369135986328125,0.013681000098586082,-0.0031210000161081553,-0.05103499814867973
1779999138209412600,19.38641259765625,0.011908000335097313,-0.0008360000210814178,-0.05097600072622299
1779999138226689000,19.40368896484375,-0.003711000084877014,-0.002360000042244792,-0.047263000160455704
1779999138243965700,19.420965576171874,-0.0074789999052882195,-0.002377999946475029,-0.0443120002746582
1779999138261242400,19.438242431640624,-0.006279999855905771,-0.0020959998946636915,-0.04309999942779541
1779999138278519000,19.45551904296875,0.006533000152558088,-0.004277000203728676,-0.0408950001001358
1779999138295795700,19.472795654296874,0.024728000164031982,-0.0038469999562948942,-0.04121899977326393
1779999138313072400,19.490072265625,0.005654999986290932,-0.0015810000477358699,-0.03928299993276596
1779999138330349000,19.50734912109375,-0.023830000311136246,-0.0007060000207275152,-0.03480200096964836
1779999138347625700,19.524625732421875,-0.04619999974966049,0.00010900000052060932,-0.03110400028526783
1779999138364902100,19.541902099609374,-0.03226099908351898,-0.003464000066742301,-0.027806000784039497
1779999138382179000,19.559178955078124,-0.02370999939739704,-0.0018980000168085098,-0.031005000695586205
1779999138399455500,19.57645556640625,-0.021299999207258224,0.0014900000533089042,-0.030933000147342682
1779999138416732200,19.593732177734374,-0.01903199963271618,-0.00060299999313429,-0.030031999573111534
1779999138434009000,19.611009033203125,-0.02157299965620041,-0.000666000007186085,-0.029890000820159912
1779999138451285800,19.62828564453125,-0.02970699965953827,-0.0042420001700520515,-0.0289939995855093
1779999138468562400,19.6455625,-0.0016680000117048621,-0.00773000018671155,-0.028752999380230904
1779999138485838800,19.6628388671875,0.027504999190568924,-0.00419399980455637,-0.03388199955224991
1779999138503115500,19.680115478515624,0.012051000259816647,-0.0031820000149309635,-0.03393600136041641
1779999138520392200,19.69739208984375,-0.04475200176239014,-0.003924999851733446,-0.028992999345064163
1779999138537668900,19.7146689453125,-0.036476001143455505,-0.00392800010740757,-0.028804000467061996
1779999138554945500,19.731945556640625,-0.0045079998672008514,-0.004989999812096357,-0.03272800147533417
1779999138572222500,19.749222412109376,0.03141900151968002,-0.005107999779284,-0.03817500174045563
1779999138589499000,19.766498779296874,0.04657699912786484,-0.004391999915242195,-0.040702998638153076
1779999138606775600,19.783775634765625,0.021678000688552856,-0.004290999844670296,-0.0371909998357296
1779999138624052200,19.80105224609375,0.0000779999973019585,-0.0028989999555051327,-0.0341779999434948
1779999138641329000,19.818328857421875,0.0006880000000819564,-0.004867000039666891,-0.0307180006057024
1779999138658605600,19.83560546875,-0.0019079999765381217,-0.007670999970287085,-0.029715999960899353
1779999138675882200,19.85288232421875,-0.0019990000873804092,-0.005814999807626009,-0.028984999284148216
1779999138693159000,19.870158935546876,0.016164999455213547,-0.0052280002273619175,-0.02948700077831745
1779999138710435600,19.887435546875,0.025419000536203384,-0.0042130001820623875,-0.027600999921560287
1779999138727712300,19.904712158203125,0.003389999968931079,-0.0039090001955628395,-0.023624999448657036
1779999138744989000,19.921989013671876,-0.032646000385284424,-0.0029609999619424343,-0.01894799992442131
1779999138762265300,19.939265380859375,-0.03211100026965141,-0.0021879998967051506,-0.01700199954211712
1779999138779542300,19.956542236328126,0.0069519998505711555,0.00038499999209307134,-0.018487000837922096
1779999138796819000,19.97381884765625,-0.009549999609589577,0.003232999937608838,-0.018175000324845314
1779999138814095600,19.991095703125,-0.028457999229431152,0.0036510000936686993,-0.014426000416278839
1779999138831372300,20.008372314453126,-0.03637399896979332,0.002348999958485365,-0.01135099958628416
1779999138848649000,20.02564892578125,-0.03707500174641609,-0.0011759999906644225,-0.008259999565780163
1779999138865925400,20.04292529296875,-0.015560000203549862,-0.0009820000268518925,-0.01080000028014183
1779999138883202000,20.0602021484375,0.014097999781370163,-0.0006280000088736415,-0.01537299994379282
1779999138909117200,20.0861171875,0.04051699861884117,-0.0003209999995306134,-0.017626000568270683
1779999138926393600,20.1033935546875,0.04091399908065796,0.00015100000018719584,-0.01781499944627285
1779999138943670300,20.120670166015625,-0.0013299999991431832,-0.0007699999841861427,-0.012064999900758266
1779999138960947000,20.137947021484376,-0.035590000450611115,0.0002209999947808683,-0.007592999842017889
1779999138978223900,20.155223876953126,-0.03237399831414223,0.0034719998948276043,-0.009122000075876713
1779999139004138800,20.181138671875,0.0035039999056607485,0.0010760000441223383,-0.010738000273704529
1779999139021415200,20.198415283203126,-0.005807999987155199,0.0014029999729245901,-0.00964100006967783
1779999139038692000,20.215692138671876,-0.02071700058877468,-0.0014880000380799174,-0.00634900014847517
1779999139055968800,20.23296875,-0.004222999792546034,-0.00471699982881546,-0.003998999949544668
1779999139073245200,20.2502451171875,0.009062999859452248,-0.004780000075697899,-0.006056000012904406
1779999139090521900,20.26752197265625,0.01742600090801716,-0.0023060000967234373,-0.007716999854892492
1779999139107798500,20.284798583984376,0.022624999284744263,0.0021730000153183937,-0.01004400011152029
1779999139125075200,20.3020751953125,0.008302000351250172,0.0018629999831318855,-0.00790799967944622
1779999139150990000,20.327989990234375,-0.017160000279545784,0.0020280000753700733,-0.002652999944984913
1779999139168266800,20.345266845703126,-0.020963000133633614,0.0018720000516623259,-0.002896999940276146
1779999139185543400,20.36254345703125,-0.01040400005877018,0.0009299999801442027,-0.002810999983921647
1779999139202820000,20.379820068359376,0.01202400028705597,0.000455000001238659,-0.005295999813824892
1779999139220096800,20.3970966796875,0.02193799987435341,0.00036700000055134296,-0.005890000145882368
1779999139237373200,20.414373291015625,0.010811000131070614,-0.001500000013038516,-0.0028890001121908426
1779999139254650000,20.431650146484376,-0.012899000197649002,-0.0013040000339969993,0.000893999997060746
1779999139271926800,20.4489267578125,-0.021234000101685524,-0.002366000087931752,0.003826000029221177
1779999139289203500,20.466203369140626,-0.00013899999612476677,-0.001973999897018075,0.0019890000112354755
1779999139306480000,20.483480224609377,0.009112999774515629,0.00029299999005161226,-0.001623000018298626
1779999139323756800,20.5007568359375,0.006175999995321035,0.0025229998864233494,-0.0022640000097453594
1779999139341033700,20.51803369140625,-0.004391999915242195,0.002355000004172325,0.0009879999561235309
1779999139358310400,20.535310302734374,-0.02010500058531761,-0.0019000000320374966,0.005750000011175871
1779999139375586800,20.5525869140625,-0.022962000221014023,-0.0028619999065995216,0.007023000158369541
1779999139392863500,20.569863525390623,0.0026859999634325504,-0.0010400000028312206,0.003218000056222081
1779999139410140200,20.58714013671875,0.006837000139057636,-0.0013930000131949782,0.0016769999638199806
1779999139427416800,20.604416748046877,-0.0006890000076964498,-0.0016830000095069408,0.0025919999461621046
1779999139444693500,20.621693603515624,-0.010102000087499619,-0.0001320000010309741,0.003432000055909157
1779999139461970200,20.63897021484375,-0.00840499997138977,0.0008970000199042261,0.0035880000796169043
1779999139479246800,20.656246826171873,-0.006936999969184399,0.0009059999720193446,0.002652999944984913
1779999139496523500,20.6735234375,-0.004414000082761049,0.00023499999952036887,0.0015190000412985682
1779999139513800200,20.69080029296875,0.01168499980121851,-0.0002699999895412475,-0.0004309999931138009
1779999139531076900,20.708076904296874,0.027590999379754066,0.00042600001324899495,-0.0029299999587237835
1779999139548353500,20.725353515625,0.028889000415802002,0.0007830000249668956,-0.0031640001107007265
1779999139565630000,20.7426298828125,0.005357000045478344,-0.0006339999963529408,-0.00025099999038502574
1779999139582907000,20.759906982421874,-0.016659000888466835,-0.0010560000082477927,0.0023789999540895224
1779999139600183600,20.77718359375,-0.023742999881505966,-0.0008159999852068722,0.002644999884068966
1779999139617460200,20.794460205078124,-0.004604000132530928,-0.00036899998667649925,-0.000003999999989900971
1779999139634737000,20.81173681640625,0.0061519998125731945,-0.0009759999811649323,-0.0007810000097379088
1779999139652013300,20.829013427734374,0.0036180000752210617,-0.0015950000379234552,0.0006990000256337225
1779999139669290200,20.846290283203125,-0.015065999701619148,0.00033099998836405575,0.0011490000179037452
1779999139686566700,20.863566650390624,-0.018091000616550446,0.0024449999909847975,0.0001740000006975606
1779999139703843300,20.88084326171875,-0.0038300000596791506,-0.00005500000042957254,-0.00030899999546818435
1779999139721120000,20.8981201171875,0.01655000075697899,-0.002689999993890524,-0.0006830000202171504
1779999139738396700,20.915396728515624,0.026201000437140465,-0.002819000044837594,-0.0020830000285059214
1779999139755673300,20.93267333984375,0.018657000735402107,0.0005559999844990671,-0.0024939998984336853
1779999139772950000,20.949949951171874,-0.008963000029325485,0.0019379999721422791,-0.0004090000002179295
1779999139790226700,20.967226806640625,-0.0274059996008873,0.0012789999600499868,0.0021359999664127827
