time,seconds_elapsed,z,y,x
1779999119144605400,0.32160546875,9.667950630187988,-0.09195000678300858,-1.984950065612793
1779999119161881600,0.338881591796875,9.640950202941895,-0.09000000357627869,-1.9990501403808594
1779999119179158000,0.356157958984375,9.550950050354004,-0.07800000160932541,-1.9900500774383545
1779999119196434700,0.3734345703125,9.646050453186035,-0.0799500048160553,-1.9950001239776611
1779999119213711400,0.39071142578125,9.606000900268555,-0.08505000174045563,-1.9920001029968262
1779999119230987800,0.40798779296875,9.64905071258545,-0.09195000678300858,-2.0020501613616943
1779999119248264400,0.425264404296875,9.640950202941895,-0.09195000678300858,-1.9900500774383545
1779999119265541000,0.442541015625,9.844950675964355,-0.08505000174045563,-2.0089499950408936
1779999119282817500,0.459817626953125,9.835050582885742,-0.0799500048160553,-2.02305006980896
1779999119300094200,0.47709423828125,9.58905029296875,-0.06599999964237213,-2.007000207901001
1779999119317371000,0.494370849609375,9.55305004119873,-0.11595000326633453,-1.9590001106262207
1779999119334647600,0.5116474609375,9.499950408935547,-0.11805000901222229,-1.9590001106262207
1779999119351924000,0.528924072265625,9.658050537109375,-0.07500000298023224,-2.014050006866455
1779999119369200400,0.546200439453125,9.766050338745117,-0.0990000069141388,-2.026050090789795
1779999119386477000,0.56347705078125,9.682050704956055,-0.10200000554323196,-1.9990501403808594
1779999119403753700,0.580753662109375,9.651000022888184,-0.09405000507831573,-1.9900500774383545
1779999119421030400,0.598030517578125,9.670050621032715,-0.10395000129938126,-2.0160000324249268
1779999119438306800,0.615306884765625,9.574050903320312,-0.09405000507831573,-2.01104998588562
1779999119455583500,0.63258349609375,9.546000480651855,-0.11100000888109207,-1.9950001239776611
1779999119472860200,0.649860107421875,9.628950119018555,-0.10395000129938126,-1.9950001239776611
1779999119490136600,0.667136474609375,9.381000518798828,-0.05400000140070915,-2.004000186920166
1779999119507413200,0.684413330078125,9.907050132751465,-0.04905000329017639,-2.0809500217437744
1779999119524690000,0.70168994140625,10.117950439453125,0.004950000438839197,-2.1289501190185547
1779999119541966300,0.71896630859375,9.784950256347656,-0.13695000112056732,-1.9590001106262207
1779999119559243000,0.736242919921875,9.547950744628906,-0.16905000805854797,-1.9519500732421875
1779999119576519700,0.753519775390625,9.792000770568848,-0.034950003027915955,-2.086050033569336
1779999119593796400,0.77079638671875,9.739950180053711,-0.11400000751018524,-2.026050090789795
1779999119611073000,0.788072998046875,9.52695083618164,-0.0990000069141388,-1.9470001459121704
1779999119628349400,0.805349365234375,9.498000144958496,-0.07500000298023224,-2.0020501613616943
1779999119645625900,0.8226259765625,9.507000923156738,-0.09405000507831573,-2.0190000534057617
1779999119662902500,0.839902587890625,9.397050857543945,-0.13500000536441803,-1.9609501361846924
1779999119680179200,0.85717919921875,9.519000053405762,-0.06795000284910202,-1.9750500917434692
1779999119697455900,0.874455810546875,9.670050621032715,-0.07005000114440918,-2.0209500789642334
1779999119714732300,0.891732177734375,9.747000694274902,-0.12300000339746475,-2.0190000534057617
1779999119732009000,0.909009033203125,9.804000854492188,-0.08205000311136246,-2.0329501628875732
1779999119749285600,0.92628564453125,9.730050086975098,-0.07800000160932541,-2.041949987411499
1779999119766562300,0.943562255859375,9.64905071258545,-0.10605000704526901,-2.0089499950408936
1779999119783839000,0.9608388671875,9.60300064086914,-0.11400000751018524,-2.014050006866455
1779999119801115400,0.978115478515625,9.675000190734863,-0.0970500037074089,-2.0470499992370605
1779999119818392000,0.99539208984375,9.62700080871582,-0.06599999964237213,-2.0590500831604004
1779999119835668500,1.01266845703125,9.61305046081543,-0.08205000311136246,-2.056950092315674
1779999119852945200,1.029945068359375,9.652950286865234,-0.09000000357627869,-2.064000129699707
1779999119870221800,1.047221923828125,9.759000778198242,-0.14505000412464142,-2.0689501762390137
1779999119887498500,1.06449853515625,9.675000190734863,-0.12105000764131546,-2.0809500217437744
1779999119904775000,1.08177490234375,9.634050369262695,-0.1660500019788742,-2.0160000324249268
1779999119922051600,1.099051513671875,9.676950454711914,-0.15900000929832458,-1.9609501361846924
1779999119939328300,1.116328369140625,9.675000190734863,-0.06795000284910202,-1.971000075340271
1779999119956605000,1.13360498046875,9.712950706481934,-0.010950000956654549,-2.0620501041412354
1779999119973881600,1.150881591796875,9.661050796508789,-0.0010500000789761543,-2.0329501628875732
1779999119991158000,1.168157958984375,9.61305046081543,-0.10605000704526901,-1.9729501008987427
1779999120008434700,1.1854345703125,9.675000190734863,0.3660000264644623,-1.954050064086914
1779999120025711400,1.20271142578125,9.57705020904541,-1.1779500246047974,-1.9420500993728638
1779999120042988000,1.219988037109375,9.400050163269043,0.24000000953674316,-2.136000156402588
1779999120060264700,1.2372646484375,9.796950340270996,0.37605002522468567,-2.344050168991089
1779999120077541400,1.254541259765625,9.631950378417969,-0.5179499983787537,-1.9440001249313354
1779999120094817800,1.27181787109375,9.799050331115723,0.05100000277161598,-1.8799500465393066
1779999120112094500,1.289094482421875,9.718050003051758,-0.07304999977350235,-2.076000213623047
1779999120129371100,1.30637109375,9.594000816345215,-0.16905000805854797,-2.1480000019073486
1779999120146647800,1.323647705078125,9.519000053405762,-0.06599999964237213,-2.064000129699707
1779999120163924200,1.34092431640625,9.571950912475586,-0.16905000805854797,-1.9870500564575195
1779999120181201000,1.358200927734375,9.685050010681152,-0.14505000412464142,-1.9780501127243042
1779999120198477300,1.375477294921875,9.847050666809082,0.004950000438839197,-2.1289501190185547
1779999120215754200,1.392754150390625,9.802050590515137,-0.19200000166893005,-2.0659501552581787
1779999120233030700,1.41003076171875,9.792000770568848,-0.17805001139640808,-1.8769501447677612
1779999120250307300,1.427307373046875,9.943050384521484,-0.1279500126838684,-1.9990501403808594
1779999120267584000,1.444583984375,10.45995044708252,-0.06300000101327896,-2.104950189590454
1779999120284860400,1.4618603515625,10.579050064086914,-0.13695000112056732,-1.9969501495361328
1779999120302137000,1.47913720703125,11.206050872802734,-0.24495001137256622,-1.8610501289367676
1779999120319413800,1.496413818359375,12.364950180053711,-0.11595000326633453,-2.007000207901001
1779999120336690400,1.5136904296875,15.75300121307373,-0.34995001554489136,-2.1450002193450928
1779999120353967000,1.530967041015625,21.297000885009766,-0.6780000329017639,-2.5380001068115234
1779999120371243500,1.548243408203125,17.409000396728516,0.6490500569343567,-3.3040502071380615
1779999120388520200,1.565520263671875,11.970000267028809,0.18000000715255737,-2.2990500926971436
1779999120405796900,1.582796875,1.1350500583648682,-0.9460500478744507,-0.817050039768219
1779999120423073500,1.600073486328125,-11.257050514221191,-1.068000078201294,2.3430001735687256
1779999120440350000,1.617349853515625,-10.870050430297852,-1.1970000267028809,2.035950183868408
1779999120457626600,1.634626708984375,-4.447050094604492,2.1090002059936523,-0.8359500169754028
1779999120474903300,1.6519033203125,11.592000961303711,4.132950305938721,-4.072050094604492
1779999120492180000,1.669179931640625,33.52995300292969,-4.348950386047363,-2.272050142288208
1779999120509456600,1.68645654296875,56.188053131103516,-5.878050327301025,-2.1720001697540283
1779999120526733000,1.703733154296875,8.513999938964844,2.1919500827789307,-4.052999973297119
1779999120544009700,1.721009765625,-4.324950218200684,2.032050132751465,-1.6279500722885132
1779999120561286400,1.738286376953125,-10.633050918579102,-0.7740000486373901,1.327950119972229
1779999120578563000,1.75556298828125,-10.132950782775879,-0.7930500507354736,1.6200001239776611
1779999120595839500,1.772839599609375,-3.1330502033233643,0.4410000145435333,-0.4249500334262848
1779999120613116200,1.7901162109375,8.574000358581543,1.0270500183105469,-2.788950204849243
1779999120630392800,1.807392822265625,43.56795120239258,-2.4060001373291016,-3.198000192642212
1779999120647669500,1.82466943359375,31.333051681518555,-1.590000033378601,-1.7070001363754272
1779999120664946200,1.8419462890625,12.795001029968262,1.3549500703811646,-2.215050220489502
1779999120682222800,1.859222900390625,7.159950256347656,-0.17595000565052032,-0.6070500016212463
1779999120699499300,1.876499267578125,-2.69100022315979,-1.3270500898361206,0.7510500550270081
1779999120716776000,1.89377587890625,-7.294950485229492,-0.9409500360488892,2.458050012588501
1779999120734052600,1.911052490234375,-5.257950305938721,0.35895001888275146,1.1149500608444214
1779999120751329300,1.928329345703125,2.968050241470337,2.77905011177063,-2.052000045776367
1779999120768605700,1.945605712890625,15.23805046081543,1.3999500274658203,-3.117000102996826
1779999120785882400,1.96288232421875,58.69605255126953,-4.581000328063965,-1.9830000400543213
1779999120803159000,1.980158935546875,15.786001205444336,-2.8339500427246094,-1.8649500608444214
1779999120820435700,1.997435791015625,1.7070001363754272,2.118000030517578,-1.4800500869750977
1779999120837712100,2.014712158203125,-6.840000152587891,0.7489500641822815,0.6769500374794006
1779999120854989000,2.031989013671875,-8.536050796508789,-0.5269500017166138,1.6939500570297241
1779999120872265700,2.049265625,-4.792050361633301,-0.013050000183284283,0.7950000166893005
1779999120889542100,2.066542236328125,3.2760002613067627,0.5890500545501709,-1.423050045967102
1779999120906819000,2.083819091796875,23.286001205444336,-1.284000039100647,-2.4970500469207764
1779999120924095500,2.101095458984375,37.2030029296875,-1.5559500455856323,-1.7220001220703125
1779999120941372200,2.1183720703125,15.495000839233398,1.5649501085281372,-2.2669501304626465
1779999120958648800,2.13564892578125,19.5,-0.6570000052452087,-0.906000018119812
1779999120975925500,2.152925537109375,-0.12300000339746475,-0.7309500575065613,0.06000000238418579
1779999120993202000,2.170201904296875,-5.407050132751465,-0.44895002245903015,1.4880000352859497
1779999121010478600,2.187478515625,-5.9350504875183105,0.07500000298023224,1.4839500188827515
1779999121027755300,2.20475537109375,-0.6949500441551208,1.6200001239776611,-0.5040000081062317
1779999121045032000,2.222031982421875,9.880950927734375,1.812000036239624,-2.2549500465393066
1779999121062308600,2.23930859375,35.38395309448242,-2.719050168991089,-2.1859500408172607
1779999121079585000,2.2565849609375,29.55000114440918,-2.719050168991089,-0.6859500408172607
1779999121096861700,2.27386181640625,8.548050880432129,1.5250500440597534,-0.7860000133514404
1779999121114138400,2.291138427734375,0.3949500322341919,0.8350500464439392,-0.1469999998807907
1779999121131415000,2.3084150390625,-4.204950332641602,-0.37905001640319824,0.8809500336647034
1779999121148691700,2.325691650390625,-3.327000141143799,-0.17295001447200775,0.8260500431060791
1779999121165968400,2.342968505859375,1.8600001335144043,0.05295000225305557,-0.29100000858306885
1779999121183245000,2.3602451171875,17.727001190185547,-0.5419500470161438,-1.2720000743865967
1779999121200521700,2.377521728515625,22.84305191040039,-0.1469999998807907,-1.4899500608444214
1779999121217798400,2.39479833984375,25.93695068359375,-0.31200000643730164,-1.6309500932693481
1779999121235074800,2.41207470703125,18.742050170898438,-0.42900002002716064,-1.4710500240325928
1779999121252351500,2.4293515625,3.0349502563476562,0.2850000262260437,-0.48705002665519714
1779999121269628200,2.446628173828125,-2.6070001125335693,-0.06795000284910202,0.4330500066280365
1779999121286904800,2.46390478515625,-3.544950246810913,-0.17295001447200775,0.9070500135421753
1779999121304181500,2.481181396484375,0.5580000281333923,0.3949500322341919,0.07695000618696213
1779999121321458000,2.4984580078125,8.257950782775879,0.7969500422477722,-1.3920000791549683
1779999121338734600,2.515734619140625,33.34605026245117,-1.4419500827789307,-1.5709500312805176
1779999121356011300,2.53301123046875,19.129051208496094,-0.15195000171661377,-1.1479500532150269
1779999121373288000,2.550287841796875,14.757000923156738,0.364050030708313,-1.1260499954223633
1779999121390564600,2.567564697265625,13.516050338745117,-1.1470500230789185,-0.8479500412940979
1779999121407841300,2.58484130859375,-2.6740500926971436,-0.13305000960826874,0.1270500123500824
1779999121425118000,2.602117919921875,-3.7770001888275146,0.1270500123500824,0.8760000467300415
1779999121442394600,2.61939453125,-0.7950000166893005,0.5869500041007996,0.33000001311302185
1779999121459671000,2.636671142578125,6.567000389099121,1.3260000944137573,-1.0900501012802124
1779999121476947700,2.65394775390625,24.106950759887695,-1.4650501012802124,-1.6810500621795654
1779999121494224400,2.671224365234375,30.910051345825195,-1.8870000839233398,-1.1160000562667847
1779999121511501000,2.6885009765625,10.5600004196167,1.7230501174926758,-1.5259500741958618
1779999121528777700,2.70577783203125,5.056950092315674,0.6660000085830688,0.23895001411437988
1779999121554692900,2.73169287109375,0.8329500555992126,-0.9580500721931458,0.8850000500679016
1779999121571969300,2.74896923828125,-0.9720000624656677,0.24000000953674316,1.0339500904083252
1779999121589246000,2.766245849609375,2.6730000972747803,1.009950041770935,-0.2050500065088272
1779999121606522600,2.783522705078125,9.153000831604004,1.2280501127243042,-1.0330500602722168
1779999121623799300,2.80079931640625,33.8910026550293,-1.9030500650405884,-1.3339500427246094
1779999121641076000,2.818075927734375,16.882051467895508,-0.9820500612258911,-0.5040000081062317
1779999121658352400,2.835352294921875,7.119000434875488,1.0939500331878662,-0.5419500470161438
1779999121675629000,2.852629150390625,3.015000104904175,0.208950012922287,0.6250500082969666
1779999121692906000,2.869906005859375,7.91895055770874,-1.360050082206726,0.6289500594139099
1779999121710182700,2.8871826171875,-1.7770501375198364,0.09405000507831573,0.4909500181674957
1779999121727459300,2.904459228515625,2.518050193786621,0.8380500674247742,-0.21705001592636108
1779999121744735700,2.92173583984375,8.920950889587402,0.7110000252723694,-0.9510000348091125
1779999121762012700,2.9390126953125,33.793052673339844,-1.8750001192092896,-1.2220500707626343
1779999121779289000,2.9562890625,13.132950782775879,-0.030000001192092896,-0.7860000133514404
1779999121796565800,2.973565673828125,8.473950386047363,0.856950044631958,-0.8700000643730164
1779999121813842400,2.990842529296875,14.689950942993164,-1.207050085067749,-0.28095000982284546
1779999121831119400,3.008119384765625,-1.3429501056671143,-0.11100000888109207,0.09795000404119492
1779999121848395800,3.025395751953125,-0.8959500193595886,0.25905001163482666,0.4830000102519989
1779999121865672400,3.04267236328125,2.2980000972747803,0.6580500602722168,-0.19305001199245453
1779999121882949000,3.05994921875,8.578950881958008,0.45705002546310425,-0.6430500149726868
1779999121900225800,3.077225830078125,33.16604995727539,-2.044950008392334,-1.1479500532150269
1779999121917502200,3.094502197265625,11.449950218200684,0.4050000309944153,-0.987000048160553
1779999121934779100,3.111779052734375,11.601000785827637,0.4549500346183777,-0.5899500250816345
1779999121952055800,3.129055908203125,15.468000411987305,-1.2930001020431519,-0.39900001883506775
1779999121969332500,3.14633251953125,-0.40995001792907715,0.07695000618696213,0.022050000727176666
1779999121986609200,3.163609130859375,-0.31005001068115234,0.5220000147819519,0.4549500346183777
1779999122003885800,3.1808857421875,2.329050064086914,0.4620000123977661,-0.022950001060962677
1779999122021162200,3.198162353515625,9.838050842285156,-0.19200000166893005,-0.7549500465393066
1779999122038439200,3.215439208984375,26.349000930786133,-1.3050000667572021,-0.8560500144958496
1779999122055715600,3.232715576171875,11.40000057220459,0.8380500674247742,-1.1759999990463257
1779999122072992500,3.249992431640625,19.641000747680664,-0.48000001907348633,-0.5920500159263611
1779999122090269200,3.267269287109375,7.282050132751465,-0.40095001459121704,-0.022950001060962677
1779999122107545900,3.2845458984375,0.49605002999305725,0.41895002126693726,0.44505003094673157
1779999122124822500,3.301822509765625,0.2560500204563141,0.24000000953674316,0.44505003094673157
1779999122142099000,3.319098876953125,4.320000171661377,-0.09405000507831573,0
1779999122159375600,3.336375732421875,14.284050941467285,-0.48705002665519714,-0.3960000276565552
1779999122176652500,3.353652587890625,13.225950241088867,0.325950026512146,-0.8479500412940979
1779999122193929000,3.370928955078125,22.207050323486328,-0.5110500454902649,-0.8959500193595886
1779999122211205600,3.38820556640625,12.453001022338867,0.039000000804662704,-0.6499500274658203
1779999122228482300,3.405482421875,9.835050582885742,-0.04905000329017639,-0.24495001137256622
1779999122245759000,3.422759033203125,3.697050094604492,-0.08505000174045563,0.20595000684261322
1779999122263035600,3.44003564453125,0.43800002336502075,0.13005000352859497,0.5190000534057617
1779999122280312600,3.4573125,3.3510000705718994,0.12495000660419464,0.18000000715255737
1779999122297589000,3.474589111328125,12.793050765991211,-0.34995001554489136,-0.42000001668930054
1779999122314865700,3.49186572265625,14.473051071166992,0.07500000298023224,-0.8130000233650208
1779999122332142300,3.509142333984375,20.259000778198242,-0.3430500030517578,-0.8869500160217285
1779999122349419000,3.5264189453125,14.370000839233398,-0.12495000660419464,-0.7189500331878662
1779999122366695700,3.54369580078125,9.091050148010254,-0.022950001060962677,-0.30000001192092896
1779999122383972600,3.56097265625,4.204950332641602,-0.09195000678300858,0.19395001232624054
1779999122401249000,3.5782490234375,0.7879500389099121,0.08400000631809235,0.4600500166416168
1779999122418525700,3.595525634765625,4.324050426483154,0.034050002694129944,0.13395000994205475
1779999122435802400,3.61280224609375,11.029050827026367,-0.16395001113414764,-0.3720000088214874
1779999122453079000,3.6300791015625,15.19800090789795,-0.05100000277161598,-0.7429500222206116
1779999122470355700,3.647355712890625,19.4239501953125,-0.286050021648407,-0.8479500412940979
1779999122487632400,3.66463232421875,14.439001083374023,-0.07005000114440918,-0.6880500316619873
1779999122504909000,3.681908935546875,9.87600040435791,-0.12105000764131546,-0.30000001192092896
1779999122522185700,3.699185791015625,3.4729502201080322,0.034050002694129944,0.21495001018047333
1779999122539462400,3.71646240234375,1.3549500703811646,0.06000000238418579,0.46905001997947693
1779999122556739000,3.733739013671875,4.5329999923706055,-0.025050001218914986,0.1870500147342682
1779999122574016000,3.75101611328125,10.075050354003906,-0.05400000140070915,-0.3550500273704529
1779999122591292400,3.76829248046875,15.967950820922852,-0.13695000112056732,-0.7480500340461731
1779999122608569000,3.785569091796875,18.385051727294922,-0.2160000056028366,-0.8340000510215759
1779999122625845800,3.802845703125,15.124051094055176,-0.12495000660419464,-0.6930000185966492
1779999122643122400,3.820122314453125,9.619950294494629,-0.07500000298023224,-0.3240000009536743
1779999122660399000,3.837399169921875,3.7260000705718994,0.040950000286102295,0.18195000290870667
1779999122677675800,3.85467578125,1.9240500926971436,0.027000000700354576,0.4429500102996826
1779999122694952400,3.871952392578125,4.2019500732421875,0.012000000104308128,0.18195000290870667
1779999122712229000,3.88922900390625,10.146000862121582,-0.06795000284910202,-0.3360000252723694
1779999122729505800,3.906505859375,15.712050437927246,-0.1399500072002411,-0.7189500331878662
1779999122746782500,3.923782470703125,18.06195068359375,-0.19200000166893005,-0.8080500364303589
1779999122764059100,3.94105908203125,15.375000953674316,-0.15900000929832458,-0.6810000538825989
1779999122781335800,3.958335693359375,9.424050331115723,-0.043950002640485764,-0.31005001068115234
1779999122798612500,3.975612548828125,4.204950332641602,0.00795000046491623,0.16995000839233398
1779999122815889200,3.99288916015625,1.9669500589370728,0.031050002202391624,0.4210500121116638
1779999122833165800,4.010165771484375,4.2430500984191895,0.003000000026077032,0.16995000839233398
1779999122850442500,4.0274423828125,10.168050765991211,-0.10395000129938126,-0.3360000252723694
1779999122867719200,4.04471923828125,15.372000694274902,-0.13005000352859497,-0.7000500559806824
1779999122884995800,4.061995849609375,18.06195068359375,-0.21900001168251038,-0.7960500121116638
1779999122902272500,4.0792724609375,15.217050552368164,-0.1469999998807907,-0.6739500164985657
1779999122919549200,4.096549072265625,9.62700080871582,-0.015000000596046448,-0.3049500286579132
1779999122936826000,4.113826171875,4.32705020904541,-0.00795000046491623,0.19200000166893005
1779999122954102800,4.131102783203125,2.0370001792907715,0.08895000070333481,0.4710000157356262
1779999122971379500,4.14837939453125,4.296000003814697,0.034050002694129944,0.21105000376701355
1779999122988655900,4.16565576171875,9.931050300598145,-0.07800000160932541,-0.3079500198364258
1779999123005932500,4.1829326171875,15.235950469970703,-0.11100000888109207,-0.6859500408172607
1779999123023209500,4.20020947265625,17.914051055908203,-0.21195000410079956,-0.7770000100135803
1779999123040486100,4.217486083984375,15.270000457763672,-0.14205001294612885,-0.6589500308036804
1779999123057762800,4.2347626953125,9.808950424194336,-0.046950001269578934,-0.33195000886917114
1779999123075039200,4.252039306640625,4.498950004577637,0.015000000596046448,0.1360500007867813
1779999123092316200,4.269316162109375,2.230950117111206,0.036000002175569534,0.4020000100135803
1779999123109592800,4.2865927734375,4.348050117492676,0.003000000026077032,0.17205001413822174
1779999123126869500,4.303869384765625,9.795000076293945,-0.0799500048160553,-0.322050005197525
1779999123144146200,4.321146240234375,15.115950584411621,-0.14505000412464142,-0.6930000185966492
1779999123161422800,4.3384228515625,17.70600128173828,-0.20205001533031464,-0.7740000486373901
1779999123178699500,4.355699462890625,15.270000457763672,-0.16905000805854797,-0.6690000295639038
1779999123195976200,4.37297607421875,9.865950584411621,-0.037050001323223114,-0.3169500231742859
1779999123213252900,4.3902529296875,4.638000011444092,0.036000002175569534,0.1579500138759613
1779999123230529500,4.407529541015625,2.350050210952759,0.031050002202391624,0.4120500087738037
1779999123247806200,4.42480615234375,4.320000171661377,0.019050000235438347,0.20595000684261322
1779999123265083000,4.442082763671875,9.679950714111328,-0.09000000357627869,-0.26205000281333923
1779999123282359600,4.459359619140625,14.932050704956055,-0.11100000888109207,-0.6430500149726868
1779999123299636200,4.47663623046875,17.538000106811523,-0.18495000898838043,-0.7810500264167786
1779999123316913000,4.493912841796875,15.298050880432129,-0.16395001113414764,-0.6550500392913818
1779999123334189800,4.51118994140625,9.991050720214844,-0.05595000088214874,-0.31200000643730164
1779999123351466200,4.52846630859375,4.855950355529785,0.012000000104308128,0.11505000293254852
1779999123368743000,4.545742919921875,2.4820501804351807,0.004950000438839197,0.38805001974105835
1779999123386019600,4.56301953125,4.381950378417969,0.024000000208616257,0.22005000710487366
1779999123403296300,4.580296142578125,9.555000305175781,-0.07005000114440918,-0.286050021648407
1779999123420573200,4.5975732421875,14.77695083618164,-0.13305000960826874,-0.6589500308036804
1779999123437849600,4.614849609375,17.40195083618164,-0.19500000774860382,-0.7600500583648682
1779999123455126300,4.632126220703125,15.265050888061523,-0.18495000898838043,-0.6550500392913818
1779999123472403000,4.64940283203125,10.102950096130371,-0.07304999977350235,-0.3460500240325928
1779999123489679600,4.6666796875,5.002050399780273,-0.015000000596046448,0.11700000613927841
1779999123506956500,4.68395654296875,2.617950201034546,-0.003000000026077032,0.37800002098083496
1779999123524233200,4.701233154296875,4.402950286865234,0,0.18900001049041748
1779999123541510000,4.718510009765625,9.409049987792969,-0.10200000554323196,-0.24105000495910645
1779999123558786600,4.73578662109375,14.619000434875488,-0.1469999998807907,-0.6310500502586365
1779999123576063200,4.753063232421875,17.244001388549805,-0.16395001113414764,-0.7860000133514404
1779999123593340000,4.77033984375,15.282000541687012,-0.16905000805854797,-0.625950038433075
1779999123610616600,4.787616455078125,10.165950775146484,-0.0580500029027462,-0.33195000886917114
1779999123627893200,4.804893310546875,5.145000457763672,-0.006000000052154064,0.09105000644922256
1779999123645170200,4.822170166015625,2.806950092315674,0.015000000596046448,0.3730500042438507
1779999123662446600,4.839446533203125,4.468050003051758,0.015000000596046448,0.24705001711845398
1779999123679723300,4.85672314453125,9.34005069732666,-0.07800000160932541,-0.22095000743865967
1779999123697000000,4.874,14.419950485229492,-0.039000000804662704,-0.62295001745224
1779999123714276600,4.891276611328125,17.128950119018555,-0.30000001192092896,-0.7240500450134277
1779999123731553500,4.908553466796875,15.219000816345215,-0.21195000410079956,-0.5760000348091125
1779999123748830000,4.925829833984375,10.177050590515137,-0.07304999977350235,-0.28095000982284546
1779999123766106600,4.943106689453125,5.305950164794922,0.016950000077486038,0.10500000417232513
1779999123783383300,4.96038330078125,2.914950132369995,0.2440500110387802,0.24900001287460327
1779999123800660000,4.977659912109375,4.570950031280518,-0.039000000804662704,0.1579500138759613
1779999123817937000,4.99493701171875,9.390000343322754,-0.13695000112056732,-0.16395001113414764
1779999123835213600,5.012213623046875,14.253000259399414,-0.08205000311136246,-0.5899500250816345
1779999123852490200,5.029490234375,16.94205093383789,-0.18300001323223114,-0.76500004529953
1779999123869767200,5.04676708984375,15.085050582885742,-0.17805001139640808,-0.6190500259399414
1779999123887043600,5.064043701171875,10.327950477600098,-0.08505000174045563,-0.3169500231742859
1779999123904320300,5.0813203125,5.442000389099121,-0.010950000956654549,0.08895000070333481
1779999123921597000,5.098596923828125,3.0510001182556152,0.015000000596046448,0.34200000762939453
1779999123938873600,5.11587353515625,4.642950057983398,-0.015000000596046448,0.20595000684261322
1779999123956150500,5.133150634765625,9.211050033569336,-0.06300000101327896,-0.20205001533031464
1779999123973427000,5.150427001953125,14.161951065063477,-0.13005000352859497,-0.5640000104904175
1779999123990703600,5.16770361328125,16.697999954223633,-0.17805001139640808,-0.697950005531311
1779999124007980300,5.184980224609375,15.061050415039062,-0.13695000112056732,-0.625950038433075
1779999124025257000,5.202257080078125,10.383000373840332,-0.07005000114440918,-0.33195000886917114
1779999124042533600,5.21953369140625,5.614050388336182,-0.0010500000789761543,0.06495000422000885
1779999124059810300,5.236810302734375,3.283050060272217,0.036000002175569534,0.3060000240802765
1779999124077087000,5.2540869140625,4.71405029296875,0,0.16500000655651093
1779999124094363600,5.27136376953125,9.213000297546387,-0.08700000494718552,-0.2050500065088272
1779999124111640600,5.288640625,13.98495101928711,-0.16095000505447388,-0.5370000004768372
1779999124128917200,5.305917236328125,16.533000946044922,-0.17295001447200775,-0.7000500559806824
1779999124154832100,5.33183203125,12.834000587463379,-0.14205001294612885,-0.5010000467300415
1779999124172108800,5.34910888671875,7.954050540924072,-0.06795000284910202,-0.14295001327991486
1779999124189385500,5.366385498046875,4.135050296783447,0.003000000026077032,0.1960500031709671
1779999124206662100,5.383662109375,3.6660001277923584,0,0.27000001072883606
1779999124223939000,5.40093896484375,6.805950164794922,-0.015000000596046448,-0.034950003027915955
1779999124241215700,5.4182158203125,11.68005084991455,-0.13305000960826874,-0.41100001335144043
1779999124258492200,5.4354921875,15.592950820922852,-0.1879500150680542,-0.6349500417709351
1779999124275768800,5.452768798828125,16.086000442504883,-0.17295001447200775,-0.6709500551223755
1779999124293045800,5.470045654296875,12.83595085144043,-0.09000000357627869,-0.5130000114440918
1779999124310322400,5.487322509765625,8.002050399780273,-0.04905000329017639,-0.1279500126838684
1779999124327598800,5.504598876953125,4.279050350189209,0.010050000622868538,0.2179500162601471
1779999124344875500,5.52187548828125,3.784050226211548,0.022050000727176666,0.28200000524520874
1779999124362152400,5.53915234375,6.772050380706787,-0.027000000700354576,0.012000000104308128
1779999124379429000,5.55642919921875,11.568000793457031,-0.11595000326633453,-0.39900001883506775
1779999124396705800,5.573705810546875,15.394050598144531,-0.15195000171661377,-0.6469500064849854
1779999124413982200,5.590982177734375,15.97800064086914,-0.19005000591278076,-0.6520500183105469
1779999124431259100,5.608259033203125,12.834000587463379,-0.13305000960826874,-0.48705002665519714
1779999124448535800,5.625535888671875,8.134050369262695,-0.04200000315904617,-0.15000000596046448
1779999124465812500,5.6428125,4.465950012207031,0.00795000046491623,0.20595000684261322
1779999124483089200,5.660089111328125,3.891000270843506,0.010050000622868538,0.2779500186443329
1779999124500365800,5.67736572265625,6.796050548553467,-0.030000001192092896,0.0070500001311302185
1779999124517642500,5.694642578125,11.446050643920898,-0.11100000888109207,-0.33900001645088196
1779999124534919200,5.711919189453125,15.229050636291504,-0.1469999998807907,-0.5920500159263611
1779999124552195800,5.72919580078125,15.808051109313965,-0.16905000805854797,-0.6379500031471252
1779999124569472500,5.746472412109375,12.78600025177002,-0.13005000352859497,-0.48000001907348633
1779999124586749400,5.76374951171875,8.21505069732666,-0.046950001269578934,-0.1570500135421753
1779999124604025900,5.78102587890625,4.630950450897217,-0.003000000026077032,0.1770000010728836
1779999124621302800,5.798302734375,4.0920000076293945,0.004950000438839197,0.2560500204563141
1779999124638579500,5.815579345703125,6.849000453948975,-0.027000000700354576,-0.009000000543892384
1779999124655856000,5.832856201171875,11.379000663757324,-0.1279500126838684,-0.36000001430511475
1779999124673132800,5.8501328125,15.054000854492188,-0.16095000505447388,-0.6019500494003296
1779999124690409500,5.867409423828125,15.660000801086426,-0.20400001108646393,-0.62295001745224
1779999124707686100,5.88468603515625,12.762001037597656,-0.13695000112056732,-0.46995002031326294
1779999124724962800,5.901962890625,8.315999984741211,-0.05595000088214874,-0.15000000596046448
1779999124742239500,5.919239501953125,4.822050094604492,0.003000000026077032,0.16995000839233398
1779999124759516200,5.93651611328125,4.212000370025635,0.036000002175569534,0.23895001411437988
1779999124776792800,5.953792724609375,6.892050266265869,-0.04200000315904617,0.0019500000635161996
1779999124794069800,5.97106982421875,11.281050682067871,-0.12105000764131546,-0.3360000252723694
1779999124811346200,5.98834619140625,14.905950546264648,-0.18495000898838043,-0.5680500268936157
1779999124828622800,6.005622802734375,15.532950401306152,-0.18300001323223114,-0.609000027179718
1779999124845899500,6.0228994140625,12.718950271606445,-0.08700000494718552,-0.48705002665519714
1779999124863176400,6.040176513671875,8.3899507522583,-0.043950002640485764,-0.18105000257492065
1779999124880453000,6.057453125,4.948950290679932,-0.003000000026077032,0.14100000262260437
1779999124897729800,6.074729736328125,4.375050067901611,-0.015000000596046448,0.24195000529289246
1779999124915006500,6.09200634765625,6.946950435638428,-0.043950002640485764,0.016950000077486038
1779999124932283100,6.109283203125,11.194050788879395,-0.0970500037074089,-0.3439500033855438
1779999124949559800,6.126559814453125,14.734050750732422,-0.17100000381469727,-0.5730000138282776
1779999124966836500,6.14383642578125,15.363000869750977,-0.18495000898838043,-0.6019500494003296
1779999124984113200,6.161113037109375,12.691950798034668,-0.12300000339746475,-0.46095001697540283
1779999125001389800,6.178389892578125,8.482950210571289,-0.031950000673532486,-0.1660500019788742
1779999125018666800,6.195666748046875,5.121000289916992,0,0.13395000994205475
1779999125035943200,6.212943115234375,4.5329999923706055,-0.0010500000789761543,0.21105000376701355
1779999125053220000,6.23022021484375,6.9810004234313965,-0.04200000315904617,0.013950000517070293
1779999125070496500,6.24749658203125,11.13705062866211,-0.11595000326633453,-0.29295000433921814
1779999125087773400,6.2647734375,14.559000968933105,-0.1399500072002411,-0.5370000004768372
1779999125105050000,6.282050048828125,15.202950477600098,-0.15405000746250153,-0.5899500250816345
1779999125122326500,6.299326416015625,12.616050720214844,-0.11100000888109207,-0.4320000112056732
1779999125139603500,6.316603515625,8.52405071258545,-0.05595000088214874,-0.13500000536441803
1779999125156880100,6.333880126953125,5.265000343322754,-0.006000000052154064,0.16305001080036163
1779999125174156800,6.35115673828125,4.642950057983398,0.003000000026077032,0.22995001077651978
1779999125191433500,6.36843359375,7.033050537109375,-0.04200000315904617,0.010050000622868538
1779999125208710100,6.385710205078125,11.044050216674805,-0.08505000174045563,-0.31995001435279846
1779999125225986800,6.40298681640625,14.430000305175781,-0.15900000929832458,-0.5419500470161438
1779999125251902000,6.42890185546875,14.202000617980957,-0.1489500105381012,-0.5470499992370605
1779999125269178400,6.446178466796875,10.717950820922852,-0.09000000357627869,-0.32895001769065857
1779999125286455300,6.463455322265625,6.814950466156006,-0.025050001218914986,-0.013050000183284283
1779999125303732000,6.48073193359375,4.710000038146973,-0.010950000956654549,0.20295001566410065
1779999125321008600,6.498008544921875,5.583000183105469,-0.015000000596046448,0.1290000081062317
1779999125338285300,6.515285400390625,8.932950019836426,-0.07005000114440918,-0.15405000746250153
1779999125355562000,6.53256201171875,12.814050674438477,-0.13305000960826874,-0.4339500069618225
1779999125372838700,6.549838623046875,15.034950256347656,-0.1570500135421753,-0.5779500007629395
1779999125390115300,6.567115234375,14.121000289916992,-0.14505000412464142,-0.527999997138977
1779999125407392000,6.58439208984375,10.732950210571289,-0.09000000357627869,-0.31005001068115234
1779999125424668700,6.601668701171875,6.928050518035889,-0.034950003027915955,0
1779999125441945300,6.6189453125,4.8510003089904785,0,0.20595000684261322
1779999125459222000,6.636221923828125,5.635950088500977,-0.019950000569224358,0.13905000686645508
1779999125476499000,6.6534990234375,8.896950721740723,-0.06599999964237213,-0.14505000412464142
1779999125493775600,6.670775634765625,12.685050964355469,-0.12105000764131546,-0.42195001244544983
1779999125511052000,6.688052001953125,14.896050453186035,-0.17295001447200775,-0.5610000491142273
1779999125528328700,6.70532861328125,14.06100082397461,-0.1489500105381012,-0.5250000357627869
1779999125545605400,6.72260546875,10.780050277709961,-0.0970500037074089,-0.3169500231742859
1779999125562882000,6.739882080078125,7.074000358581543,-0.031950000673532486,-0.016050001606345177
1779999125580159000,6.757158935546875,4.980000019073486,-0.00795000046491623,0.18405000865459442
1779999125597435600,6.774435546875,5.715000152587891,-0.025050001218914986,0.1270500123500824
1779999125614712000,6.791712158203125,8.854050636291504,-0.07304999977350235,-0.13095000386238098
1779999125631989000,6.808989013671875,12.568050384521484,-0.10905000567436218,-0.41100001335144043
1779999125649265700,6.826265625,14.740950584411621,-0.1570500135421753,-0.5470499992370605
1779999125666542300,6.843542236328125,13.980000495910645,-0.1469999998807907,-0.5160000324249268
1779999125683819000,6.860819091796875,10.81605052947998,-0.09000000357627869,-0.31200000643730164
1779999125701096000,6.878095947265625,7.1700005531311035,-0.05595000088214874,-0.009000000543892384
1779999125718372600,6.89537255859375,5.119050025939941,0.019050000235438347,0.15600000321865082
1779999125735649000,6.91264892578125,5.784000396728516,-0.022950001060962677,0.1099500060081482
1779999125752925700,6.92992578125,8.842050552368164,-0.07005000114440918,-0.1399500072002411
1779999125770202400,6.947202392578125,12.466950416564941,-0.13500000536441803,-0.3940500319004059
1779999125787479300,6.964479248046875,14.632950782775879,-0.1489500105381012,-0.5329500436782837
1779999125804756000,6.981755859375,13.91295051574707,-0.14205001294612885,-0.5160000324249268
1779999125822032600,6.99903271484375,10.837950706481934,-0.10200000554323196,-0.31200000643730164
1779999125839309300,7.016309326171875,7.276950359344482,-0.015000000596046448,-0.04005000367760658
1779999125856586000,7.0335859375,5.230950355529785,0.004950000438839197,0.17505000531673431
1779999125873862700,7.050862548828125,5.848950386047363,-0.04200000315904617,0.13395000994205475
1779999125891139300,7.068139404296875,8.809050559997559,-0.07005000114440918,-0.12105000764131546
1779999125908416300,7.085416259765625,12.373950958251953,-0.12495000660419464,-0.37905001640319824
1779999125925692700,7.102692626953125,14.499000549316406,-0.14505000412464142,-0.5250000357627869
1779999125942969300,7.11996923828125,13.828950881958008,-0.1469999998807907,-0.5110500454902649
1779999125960246000,7.13724609375,10.855050086975098,-0.09405000507831573,-0.31995001435279846
1779999125977522700,7.154522705078125,7.392000198364258,-0.0580500029027462,-0.034950003027915955
1779999125994799600,7.171799560546875,5.3680500984191895,-0.010950000956654549,0.1680000126361847
1779999126012076300,7.189076171875,5.937000274658203,-0.027000000700354576,0.1080000028014183
1779999126029352700,7.206352783203125,8.78700065612793,-0.07005000114440918,-0.13305000960826874
1779999126046629400,7.22362939453125,12.259050369262695,-0.11100000888109207,-0.38700002431869507
1779999126063906300,7.24090625,14.374950408935547,-0.16095000505447388,-0.5110500454902649
1779999126081183000,7.258182861328125,13.76400089263916,-0.13695000112056732,-0.4990500211715698
1779999126098459600,7.275459716796875,10.894950866699219,-0.10395000129938126,-0.322050005197525
1779999126115736300,7.292736328125,7.495050430297852,-0.046950001269578934,-0.04005000367760658
1779999126133013000,7.310012939453125,5.490000247955322,-0.006000000052154064,0.15105000138282776
1779999126150289700,7.32728955078125,6.010950088500977,-0.04200000315904617,0.11295000463724136
1779999126167566300,7.34456640625,8.76300048828125,-0.07005000114440918,-0.11595000326633453
1779999126184843000,7.361843017578125,12.156000137329102,-0.12495000660419464,-0.3630000054836273
1779999126202120000,7.379119873046875,14.245050430297852,-0.1489500105381012,-0.5059500336647034
1779999126219396400,7.396396240234375,13.678050994873047,-0.12300000339746475,-0.492000013589859
1779999126236673000,7.413673095703125,10.912050247192383,-0.09000000357627869,-0.31200000643730164
1779999126253949700,7.43094970703125,7.591050148010254,-0.04200000315904617,-0.05400000140070915
1779999126271226400,7.448226318359375,5.63100004196167,-0.04200000315904617,0.14400000870227814
1779999126288503300,7.46550341796875,6.082950115203857,-0.039000000804662704,0.09795000404119492
1779999126305779700,7.48277978515625,8.7610502243042,-0.05595000088214874,-0.12600000202655792
1779999126323056600,7.500056640625,12.073050498962402,-0.10395000129938126,-0.35295000672340393
1779999126340333000,7.5173330078125,14.110950469970703,-0.13005000352859497,-0.4990500211715698
1779999126357610000,7.53460986328125,13.594950675964355,-0.1489500105381012,-0.48000001907348633
1779999126374886700,7.55188671875,10.912050247192383,-0.11100000888109207,-0.3049500286579132
1779999126392163300,7.569163330078125,7.686000347137451,-0.05100000277161598,-0.046950001269578934
1779999126409440000,7.58643994140625,5.7460503578186035,-0.019950000569224358,0.1360500007867813
1779999126426716700,7.603716552734375,6.148050308227539,-0.013050000183284283,0.11295000463724136
1779999126443993300,7.620993408203125,8.718000411987305,-0.046950001269578934,-0.11595000326633453
1779999126461270000,7.63827001953125,11.967000961303711,-0.11595000326633453,-0.36000001430511475
1779999126478546700,7.655546630859375,14.008950233459473,-0.13500000536441803,-0.4729500114917755
1779999126495823600,7.67282373046875,13.549050331115723,-0.14505000412464142,-0.4510500133037567
1779999126513100000,7.69010009765625,10.941000938415527,-0.09405000507831573,-0.3270000219345093
1779999126530376700,7.707376708984375,7.777050495147705,-0.05400000140070915,-0.0799500048160553
1779999126547653400,7.7246533203125,5.848950386047363,-0.04200000315904617,0.10500000417232513
1779999126564930000,7.741929931640625,6.238950252532959,-0.039000000804662704,0.09105000644922256
1779999126582207000,7.75920703125,8.743950843811035,-0.010950000956654549,-0.06599999964237213
1779999126599483400,7.7764833984375,11.884050369262695,-0.08205000311136246,-0.2770500183105469
1779999126616760000,7.793760009765625,13.858050346374512,-0.14505000412464142,-0.4630500078201294
1779999126634036700,7.81103662109375,13.396050453186035,-0.13305000960826874,-0.5130000114440918
1779999126651313700,7.828313720703125,10.926000595092773,-0.13305000960826874,-0.33195000886917114
1779999126668590300,7.84559033203125,7.885050296783447,-0.08205000311136246,-0.07304999977350235
1779999126685867000,7.862866943359375,6.045000076293945,-0.043950002640485764,0.09795000404119492
1779999126703143700,7.880143798828125,6.394050121307373,-0.027000000700354576,0.08595000207424164
1779999126720420400,7.89742041015625,8.74905014038086,-0.04200000315904617,-0.10395000129938126
1779999126737697000,7.914697021484375,11.770950317382812,-0.0970500037074089,-0.32895001769065857
1779999126754973700,7.9319736328125,13.68795108795166,-0.1469999998807907,-0.4510500133037567
1779999126772250400,7.94925048828125,13.309950828552246,-0.1469999998807907,-0.4300500154495239
1779999126789527000,7.966527099609375,10.921950340270996,-0.09405000507831573,-0.3079500198364258
1779999126806803700,7.9838037109375,7.974000453948975,-0.046950001269578934,-0.0799500048160553
1779999126824080400,8.001080322265626,6.153000354766846,-0.027000000700354576,0.07905000448226929
1779999126841357000,8.018357177734375,6.4609503746032715,-0.027000000700354576,0.08100000023841858
1779999126858633700,8.0356337890625,8.766000747680664,-0.07500000298023224,-0.07800000160932541
1779999126875910400,8.052910400390624,11.697000503540039,-0.11400000751018524,-0.3079500198364258
1779999126893187300,8.070187255859375,13.573050498962402,-0.1469999998807907,-0.4459500312805176
1779999126910464000,8.087464111328124,13.20405101776123,-0.10395000129938126,-0.4440000355243683
1779999126927740400,8.104740478515625,10.894950866699219,-0.07304999977350235,-0.28395000100135803
1779999126945017000,8.12201708984375,8.05305004119873,-0.0580500029027462,-0.08700000494718552
1779999126962294000,8.1392939453125,6.259950160980225,-0.025050001218914986,0.07200000435113907
1779999126979570700,8.15657080078125,6.576000213623047,-0.06300000101327896,0.07905000448226929
1779999126996847400,8.173847412109374,8.778000831604004,-0.0799500048160553,-0.09495000541210175
1779999127014124000,8.1911240234375,11.617950439453125,-0.10395000129938126,-0.322050005197525
1779999127031400700,8.208400634765624,13.437000274658203,-0.13305000960826874,-0.45795002579689026
1779999127048677400,8.225677490234375,13.123050689697266,-0.1279500126838684,-0.44895002245903015
1779999127065954000,8.2429541015625,10.924050331115723,-0.09405000507831573,-0.30300000309944153
1779999127083230700,8.260230712890625,8.163000106811523,-0.08700000494718552,-0.09195000678300858
1779999127100507400,8.27750732421875,6.4110002517700195,-0.05595000088214874,0.06495000422000885
1779999127117784300,8.294784423828125,6.648000240325928,-0.030000001192092896,0.0690000057220459
1779999127135061000,8.31206103515625,8.742000579833984,-0.030000001192092896,-0.08295000344514847
1779999127152337700,8.329337646484374,11.506050109863281,-0.08700000494718552,-0.29100000858306885
1779999127169614300,8.3466142578125,13.312050819396973,-0.13500000536441803,-0.41505002975463867
1779999127186891000,8.36389111328125,13.0420503616333,-0.13695000112056732,-0.41805002093315125
1779999127204167700,8.381167724609375,10.929000854492188,-0.10905000567436218,-0.2959500253200531
1779999127221444400,8.3984443359375,8.23905086517334,-0.043950002640485764,-0.09195000678300858
1779999127238721000,8.415720947265624,6.514050483703613,-0.022950001060962677,0.09105000644922256
1779999127255998000,8.432998046875,6.715050220489502,-0.04905000329017639,0.09795000404119492
1779999127273274400,8.4502744140625,8.730000495910645,-0.07005000114440918,-0.06599999964237213
1779999127290551000,8.467551025390625,11.40000057220459,-0.09405000507831573,-0.29100000858306885
1779999127307827700,8.48482763671875,13.183050155639648,-0.10395000129938126,-0.4459500312805176
1779999127325104600,8.502104736328125,12.964950561523438,-0.11595000326633453,-0.4440000355243683
1779999127342381000,8.519381103515625,10.966950416564941,-0.1399500072002411,-0.31200000643730164
1779999127359657700,8.53665771484375,8.359050750732422,-0.09405000507831573,-0.10395000129938126
1779999127376934400,8.553934326171875,6.6739501953125,-0.06599999964237213,0.04605000093579292
1779999127394211300,8.57121142578125,6.826950550079346,-0.037050001323223114,0.025950001552700996
1779999127411488000,8.588488037109375,8.742000579833984,-0.04200000315904617,-0.1380000114440918
1779999127428764400,8.605764404296876,11.332950592041016,-0.10905000567436218,-0.3049500286579132
1779999127446041000,8.623041015625,13.092000961303711,-0.14505000412464142,-0.3960000276565552
1779999127463317800,8.64031787109375,12.910050392150879,-0.14205001294612885,-0.36705002188682556
1779999127480594700,8.6575947265625,10.948050498962402,-0.09195000678300858,-0.25005000829696655
1779999127497871400,8.674871337890625,8.359050750732422,-0.022950001060962677,-0.08700000494718552
1779999127515148000,8.69214794921875,6.679050445556641,-0.019950000569224358,0.06705000251531601
1779999127532424700,8.7094248046875,6.826950550079346,-0.039000000804662704,0.07905000448226929
1779999127549701400,8.726701416015626,8.731950759887695,-0.07005000114440918,-0.07605000585317612
1779999127566978000,8.74397802734375,11.293050765991211,-0.10395000129938126,-0.29295000433921814
1779999127584254700,8.761254638671875,13.023000717163086,-0.12300000339746475,-0.4339500069618225
1779999127601531400,8.778531494140625,12.858000755310059,-0.1279500126838684,-0.4249500334262848
1779999127618807800,8.795807861328125,10.969950675964355,-0.10605000704526901,-0.2880000174045563
1779999127636084700,8.813084716796874,8.461950302124023,-0.07800000160932541,-0.10200000554323196
1779999127653361400,8.830361328125,6.789000511169434,-0.034950003027915955,0.04305000230669975
1779999127670638000,8.84763818359375,6.886950492858887,-0.043950002640485764,0.040950000286102295
1779999127687915000,8.8649150390625,8.71095085144043,-0.05595000088214874,-0.10200000554323196
1779999127705191400,8.88219140625,11.206050872802734,-0.10605000704526901,-0.29295000433921814
1779999127722468000,8.899468017578124,12.93600082397461,-0.1279500126838684,-0.3960000276565552
1779999127739744800,8.916744873046875,12.82395076751709,-0.13695000112056732,-0.3940500319004059
1779999127757021700,8.934021728515624,10.98900032043457,-0.0970500037074089,-0.286050021648407
1779999127774298400,8.95129833984375,8.513999938964844,-0.05100000277161598,-0.0970500037074089
1779999127791574800,8.96857470703125,6.8610005378723145,-0.00795000046491623,0.04605000093579292
1779999127808851700,8.985851806640625,6.945000171661377,-0.039000000804662704,0.04305000230669975
1779999127826128100,9.003128173828125,8.719950675964355,-0.06795000284910202,-0.08295000344514847
1779999127843405000,9.020405029296874,11.166000366210938,-0.11400000751018524,-0.2569500207901001
1779999127860681700,9.037681640625,12.84795093536377,-0.14205001294612885,-0.3820500075817108
1779999127877958400,9.05495849609375,12.745050430297852,-0.10905000567436218,-0.3940500319004059
1779999127895234800,9.07223486328125,10.957950592041016,-0.0799500048160553,-0.2959500253200531
1779999127912511700,9.08951171875,8.565000534057617,-0.06300000101327896,-0.10905000567436218
1779999127929788400,9.106788330078125,6.969000339508057,-0.046950001269578934,0.040950000286102295
1779999127947065000,9.124065185546876,7.036050319671631,-0.05595000088214874,0.05505000427365303
1779999127964341800,9.141341796875,8.743950843811035,-0.08205000311136246,-0.10395000129938126
1779999127981618700,9.15861865234375,11.11305046081543,-0.11100000888109207,-0.2959500253200531
1779999127998895000,9.17589501953125,12.754950523376465,-0.12495000660419464,-0.3960000276565552
1779999128016172000,9.193172119140625,12.678000450134277,-0.1279500126838684,-0.3940500319004059
1779999128033448400,9.210448486328126,10.969950675964355,-0.0990000069141388,-0.2880000174045563
1779999128050725400,9.227725341796875,8.623950004577637,-0.06795000284910202,-0.10200000554323196
1779999128068002000,9.245001953125,7.036050319671631,-0.037050001323223114,0.036000002175569534
1779999128085278700,9.26227880859375,7.0759501457214355,-0.027000000700354576,0.031050002202391624
1779999128102555400,9.279555419921875,8.72504997253418,-0.06300000101327896,-0.09000000357627869
1779999128119832000,9.29683203125,11.041050910949707,-0.11595000326633453,-0.25995001196861267
1779999128137109000,9.31410888671875,12.664051055908203,-0.14205001294612885,-0.36705002188682556
1779999128154385400,9.331385498046876,12.640050888061523,-0.13305000960826874,-0.3720000088214874
1779999128171662000,9.348662109375,10.969950675964355,-0.06795000284910202,-0.29295000433921814
1779999128188939000,9.36593896484375,8.677050590515137,-0.04905000329017639,-0.11100000888109207
1779999128206215400,9.38321533203125,7.107000350952148,-0.04200000315904617,0.034050002694129944
1779999128223492000,9.4004921875,7.126950263977051,-0.05100000277161598,0.0499500036239624
1779999128240768800,9.417768798828124,8.746950149536133,-0.08205000311136246,-0.0799500048160553
1779999128258045400,9.43504541015625,10.998000144958496,-0.0970500037074089,-0.2770500183105469
1779999128275322000,9.452322021484376,12.592050552368164,-0.11805000901222229,-0.3910500109195709
1779999128292599000,9.46959912109375,12.577950477600098,-0.12495000660419464,-0.38895002007484436
1779999128309875500,9.48687548828125,10.990950584411621,-0.10200000554323196,-0.28095000982284546
1779999128327152400,9.50415234375,8.767950057983398,-0.06300000101327896,-0.10395000129938126
1779999128344429000,9.521428955078125,7.195950508117676,-0.046950001269578934,0.025950001552700996
1779999128361705700,9.538705810546874,7.1860504150390625,-0.031950000673532486,0.022050000727176666
1779999128378982400,9.555982421875,8.707950592041016,-0.07304999977350235,-0.0970500037074089
1779999128396259300,9.57325927734375,10.926000595092773,-0.11400000751018524,-0.26205000281333923
1779999128413536000,9.590535888671875,12.493950843811035,-0.12105000764131546,-0.3630000054836273
1779999128430812700,9.607812744140626,12.532050132751465,-0.11100000888109207,-0.3960000276565552
1779999128448089300,9.62508935546875,11.022000312805176,-0.10200000554323196,-0.29805001616477966
1779999128465365800,9.64236572265625,8.833050727844238,-0.0580500029027462,-0.10905000567436218
1779999128482642700,9.659642578125,7.276950359344482,-0.05100000277161598,0.034050002694129944
1779999128499919400,9.67691943359375,7.216950416564941,-0.046950001269578934,0.0499500036239624
1779999128517195800,9.69419580078125,8.68005084991455,-0.05400000140070915,-0.08295000344514847
1779999128534472700,9.71147265625,10.82805061340332,-0.08505000174045563,-0.2569500207901001
1779999128551749400,9.728749267578126,12.400050163269043,-0.13695000112056732,-0.35805001854896545
1779999128569026000,9.746026123046875,12.50100040435791,-0.12300000339746475,-0.37905001640319824
1779999128586302500,9.763302490234375,11.058000564575195,-0.10905000567436218,-0.286050021648407
1779999128603579400,9.780579345703124,8.914050102233887,-0.05400000140070915,-0.13095000386238098
1779999128620856000,9.79785595703125,7.35105037689209,-0.05595000088214874,-0.0010500000789761543
1779999128638132700,9.8151328125,7.261050224304199,-0.04200000315904617,0.028950002044439316
1779999128655409400,9.832409423828125,8.66295051574707,-0.07005000114440918,-0.08295000344514847
1779999128672686300,9.849686279296876,10.773000717163086,-0.0970500037074089,-0.24495001137256622
1779999128689962800,9.866962646484374,12.319050788879395,-0.13305000960826874,-0.3460500240325928
1779999128707239400,9.884239501953125,12.444000244140625,-0.13005000352859497,-0.3750000298023224
1779999128724516400,9.901516357421874,11.053050994873047,-0.09000000357627869,-0.2959500253200531
1779999128741793000,9.91879296875,8.988000869750977,-0.06105000153183937,-0.12300000339746475
1779999128759069700,9.936069580078126,7.45395040512085,-0.04905000329017639,0.010050000622868538
1779999128776346400,9.953346435546875,7.311000347137451,-0.046950001269578934,0.031050002202391624
1779999128793623000,9.970623046875,8.670000076293945,-0.06599999964237213,-0.07095000147819519
1779999128810900000,9.98789990234375,10.696950912475586,-0.08700000494718552,-0.23100000619888306
1779999128828176400,10.00517626953125,12.232950210571289,-0.11595000326633453,-0.3439500033855438
1779999128845453000,10.022453125,12.367050170898438,-0.12495000660419464,-0.364950031042099
1779999128862729700,10.039729736328125,11.044050216674805,-0.11400000751018524,-0.28095000982284546
1779999128880006700,10.057006591796876,9.03795051574707,-0.07304999977350235,-0.1380000114440918
1779999128897283300,10.074283447265625,7.531050205230713,-0.031950000673532486,-0.016050001606345177
1779999128914560000,10.09156005859375,7.404000282287598,-0.06105000153183937,-0.0010500000789761543
1779999128931837000,10.1088369140625,8.69895076751709,-0.07304999977350235,-0.09195000678300858
1779999128949113300,10.12611328125,10.67805004119873,-0.10905000567436218,-0.22395001351833344
1779999128966390000,10.14339013671875,12.172950744628906,-0.1279500126838684,-0.3340500295162201
1779999128983666700,10.160666748046875,12.298050880432129,-0.11100000888109207,-0.36000001430511475
1779999129000943400,10.177943359375,11.020050048828125,-0.09405000507831573,-0.28395000100135803
1779999129018220300,10.19522021484375,9.070050239562988,-0.05100000277161598,-0.14505000412464142
1779999129035496700,10.21249658203125,7.612050533294678,-0.0580500029027462,-0.004050000105053186
1779999129052773600,10.229773681640625,7.462050437927246,-0.025050001218914986,0.019050000235438347
1779999129070050000,10.247050048828125,8.69895076751709,-0.06795000284910202,-0.07304999977350235
1779999129087327000,10.264326904296874,10.632000923156738,-0.0990000069141388,-0.22605000436306
1779999129104603600,10.281603759765625,12.064950942993164,-0.12105000764131546,-0.3340500295162201
1779999129121880000,10.298880126953126,12.25200080871582,-0.10905000567436218,-0.3630000054836273
1779999129139156700,10.31615673828125,10.998000144958496,-0.11100000888109207,-0.2880000174045563
1779999129156433700,10.33343359375,9.133950233459473,-0.08505000174045563,-0.1380000114440918
1779999129173710300,10.35071044921875,7.681950569152832,-0.06795000284910202,-0.004050000105053186
1779999129190987000,10.367987060546875,7.52400016784668,-0.06795000284910202,0.004950000438839197
1779999129208264000,10.385263916015624,8.72504997253418,-0.08205000311136246,-0.07605000585317612
1779999129225540400,10.402540283203125,10.588950157165527,-0.08505000174045563,-0.22605000436306
1779999129242817000,10.419817138671876,12.027000427246094,-0.12300000339746475,-0.33900001645088196
1779999129260093700,10.43709375,12.180000305175781,-0.08505000174045563,-0.35805001854896545
1779999129277370600,10.45437060546875,10.993050575256348,-0.09405000507831573,-0.27195000648498535
1779999129294647300,10.471647216796875,9.164999961853027,-0.06795000284910202,-0.1380000114440918
1779999129311923700,10.488923828125,7.729950428009033,-0.0580500029027462,0.004950000438839197
1779999129329200600,10.50620068359375,7.5450005531311035,-0.06795000284910202,0.019050000235438347
1779999129346477000,10.52347705078125,8.694000244140625,-0.06300000101327896,-0.08295000344514847
1779999129363754000,10.54075390625,10.52400016784668,-0.08205000311136246,-0.23295001685619354
1779999129381030700,10.55803076171875,11.95995044708252,-0.10905000567436218,-0.36000001430511475
1779999129398307300,10.575307373046876,12.187950134277344,-0.09405000507831573,-0.36705002188682556
1779999129415584000,10.592583984375,11.068050384521484,-0.13500000536441803,-0.24300001561641693
1779999129432860700,10.609860595703125,9.244050025939941,-0.08505000174045563,-0.11100000888109207
1779999129450137300,10.627137451171874,7.797000408172607,-0.046950001269578934,0.004950000438839197
1779999129467414000,10.6444140625,7.531050205230713,-0.043950002640485764,0.025950001552700996
1779999129484690700,10.661690673828126,8.614950180053711,-0.037050001323223114,-0.08700000494718552
1779999129501967600,10.678967529296875,10.41195011138916,-0.08505000174045563,-0.24300001561641693
1779999129519244300,10.696244384765626,11.893050193786621,-0.14505000412464142,-0.3240000009536743
1779999129536521000,10.71352099609375,12.172950744628906,-0.13005000352859497,-0.35295000672340393
1779999129553797400,10.73079736328125,11.107950210571289,-0.11805000901222229,-0.2740500271320343
1779999129571074300,10.74807421875,9.318000793457031,-0.08205000311136246,-0.15405000746250153
1779999129588351000,10.76535107421875,7.878000259399414,-0.018000001087784767,-0.06405000388622284
1779999129605627600,10.782627685546874,7.617000579833984,-0.04200000315904617,0
1779999129622904300,10.799904296875,8.657999992370605,-0.05400000140070915,-0.046950001269578934
1779999129640181000,10.817180908203126,10.390050888061523,-0.09195000678300858,-0.16905000805854797
1779999129657457700,10.834457763671875,11.788050651550293,-0.11595000326633453,-0.2880000174045563
1779999129674734300,10.851734375,12.042000770568848,-0.09405000507831573,-0.33900001645088196
1779999129692011000,10.869010986328124,11.02500057220459,-0.07005000114440918,-0.29295000433921814
1779999129709288000,10.886287841796875,9.349950790405273,-0.06795000284910202,-0.15000000596046448
1779999129726564400,10.903564453125,7.999950408935547,-0.05100000277161598,-0.025050001218914986
1779999129743841000,10.920841064453125,7.73205041885376,-0.06300000101327896,-0.0010500000789761543
1779999129761117700,10.93811767578125,8.694000244140625,-0.06599999964237213,-0.08295000344514847
1779999129778394600,10.95539453125,10.342950820922852,-0.0799500048160553,-0.22095000743865967
1779999129795671300,10.97267138671875,11.719050407409668,-0.10905000567436218,-0.31200000643730164
1779999129812948000,10.989947998046874,11.998050689697266,-0.10200000554323196,-0.3340500295162201
1779999129830224600,11.007224609375,11.008050918579102,-0.10905000567436218,-0.24300001561641693
1779999129847501000,11.0245009765625,9.373050689697266,-0.08205000311136246,-0.12600000202655792
1779999129864778000,11.041778076171875,8.006999969482422,-0.037050001323223114,-0.030000001192092896
1779999129882054700,11.0590546875,7.761000156402588,-0.046950001269578934,-0.004050000105053186
1779999129899331300,11.076331298828125,8.694000244140625,-0.05100000277161598,-0.07605000585317612
1779999129916608300,11.093608154296875,10.32300090789795,-0.09000000357627869,-0.19005000591278076
1779999129933884700,11.110884765625,11.665950775146484,-0.12300000339746475,-0.29100000858306885
1779999129951161300,11.128161376953125,11.94795036315918,-0.10605000704526901,-0.322050005197525
1779999129968438000,11.14543798828125,11.010000228881836,-0.09195000678300858,-0.27900001406669617
1779999129985714700,11.162714599609375,9.414000511169434,-0.05595000088214874,-0.16905000805854797
1779999130002991600,11.17999169921875,8.11500072479248,-0.04905000329017639,-0.046950001269578934
1779999130020268000,11.19726806640625,7.8319501876831055,-0.06105000153183937,0.004950000438839197
1779999130037545000,11.214544921875,8.701050758361816,-0.06300000101327896,-0.07095000147819519
1779999130054821400,11.2318212890625,10.2610502243042,-0.09405000507831573,-0.21195000410079956
1779999130072098300,11.249098388671875,11.584050178527832,-0.11100000888109207,-0.3049500286579132
1779999130089375000,11.266375,11.899950981140137,-0.11100000888109207,-0.3270000219345093
1779999130106651600,11.283651611328125,11.02695083618164,-0.0990000069141388,-0.27195000648498535
1779999130123928300,11.30092822265625,9.469050407409668,-0.07005000114440918,-0.1660500019788742
1779999130141205000,11.318205078125,8.170050621032715,-0.04905000329017639,-0.06405000388622284
1779999130158482000,11.33548193359375,7.861050605773926,-0.05400000140070915,-0.019950000569224358
1779999130175758300,11.35275830078125,8.72700023651123,-0.06795000284910202,-0.0799500048160553
1779999130193035000,11.370034912109375,10.243950843811035,-0.09195000678300858,-0.1879500150680542
1779999130210312000,11.38731201171875,11.529000282287598,-0.12105000764131546,-0.2689500153064728
1779999130227588400,11.40458837890625,11.829000473022461,-0.10905000567436218,-0.3079500198364258
1779999130244865300,11.421865234375,10.96500015258789,-0.08505000174045563,-0.2689500153064728
1779999130262141700,11.4391416015625,9.472050666809082,-0.07005000114440918,-0.1570500135421753
1779999130279418400,11.45641845703125,8.21505069732666,-0.06105000153183937,-0.04905000329017639
1779999130296695300,11.4736953125,7.927950382232666,-0.0580500029027462,-0.006000000052154064
1779999130313972000,11.490971923828125,8.766000747680664,-0.0799500048160553,-0.07605000585317612
1779999130331248600,11.50824853515625,10.225050926208496,-0.0799500048160553,-0.1980000138282776
1779999130348525300,11.525525390625,11.479050636291504,-0.0970500037074089,-0.29805001616477966
1779999130365802000,11.542802001953126,11.764050483703613,-0.09000000357627869,-0.31995001435279846
1779999130383078700,11.56007861328125,10.945950508117676,-0.09195000678300858,-0.2650500237941742
1779999130400355300,11.577355224609375,9.523950576782227,-0.09195000678300858,-0.14295001327991486
1779999130417632300,11.59463232421875,8.292000770568848,-0.05595000088214874,-0.04005000367760658
1779999130434908700,11.61190869140625,7.981050491333008,-0.046950001269578934,-0.010950000956654549
1779999130452185300,11.629185302734374,8.743950843811035,-0.05100000277161598,-0.0990000069141388
1779999130469462000,11.6464619140625,10.18005084991455,-0.09195000678300858,-0.2070000171661377
1779999130486738700,11.66373876953125,11.427000999450684,-0.10200000554323196,-0.2880000174045563
1779999130504015000,11.68101513671875,11.749950408935547,-0.0970500037074089,-0.3049500286579132
1779999130521292000,11.6982919921875,10.969950675964355,-0.09405000507831573,-0.24300001561641693
1779999130538569000,11.71556884765625,9.535950660705566,-0.07304999977350235,-0.14505000412464142
1779999130555845400,11.732845458984375,8.304000854492188,-0.06300000101327896,-0.04005000367760658
1779999130573122300,11.750122314453124,7.975950241088867,-0.04200000315904617,-0.022950001060962677
1779999130590399000,11.76739892578125,8.743950843811035,-0.05595000088214874,-0.09195000678300858
1779999130607675600,11.784675537109376,10.1850004196167,-0.08505000174045563,-0.19305001199245453
1779999130624952300,11.801952392578125,11.407050132751465,-0.10395000129938126,-0.2880000174045563
1779999130642228700,11.819228759765625,11.752050399780273,-0.12300000339746475,-0.30000001192092896
1779999130659505700,11.836505615234374,10.97700023651123,-0.0970500037074089,-0.2569500207901001
1779999130676782300,11.8537822265625,9.558000564575195,-0.06599999964237213,-0.1660500019788742
1779999130694059000,11.87105908203125,8.337000846862793,-0.046950001269578934,-0.05895000323653221
1779999130711335700,11.888335693359375,7.999950408935547,-0.05400000140070915,-0.016050001606345177
1779999130728612600,11.905612548828126,8.7610502243042,-0.06795000284910202,-0.07304999977350235
1779999130745889000,11.922888916015625,10.14900016784668,-0.09405000507831573,-0.17805001139640808
1779999130763165700,11.940165771484375,11.367000579833984,-0.09195000678300858,-0.2689500153064728
1779999130780442400,11.9574423828125,11.695050239562988,-0.0990000069141388,-0.30300000309944153
1779999130797719300,11.97471923828125,10.954950332641602,-0.0970500037074089,-0.23805001378059387
1779999130814995700,11.99199560546875,9.562050819396973,-0.07500000298023224,-0.14505000412464142
1779999130832272400,12.0092724609375,8.371050834655762,-0.0580500029027462,-0.06795000284910202
1779999130849549000,12.026549072265626,8.044950485229492,-0.05100000277161598,-0.04005000367760658
1779999130866825700,12.04382568359375,8.770050048828125,-0.05595000088214874,-0.0990000069141388
1779999130884102700,12.0611025390625,10.153950691223145,-0.08505000174045563,-0.19500000774860382
1779999130901379300,12.07837939453125,11.343000411987305,-0.11100000888109207,-0.2740500271320343
1779999130918656000,12.095656005859375,11.67495059967041,-0.12495000660419464,-0.29805001616477966
1779999130935932700,12.1129326171875,10.941000938415527,-0.0990000069141388,-0.26205000281333923
1779999130953209300,12.130209228515625,9.582000732421875,-0.07800000160932541,-0.17100000381469727
1779999130970486000,12.147486083984376,8.40000057220459,-0.05595000088214874,-0.06795000284910202
1779999130987762700,12.1647626953125,8.080950736999512,-0.04905000329017639,-0.037050001323223114
1779999131005039600,12.18203955078125,8.789999961853027,-0.07500000298023224,-0.10200000554323196
1779999131022316300,12.19931640625,10.122000694274902,-0.09000000357627869,-0.19005000591278076
1779999131039592700,12.2165927734375,11.307000160217285,-0.10395000129938126,-0.28095000982284546
1779999131056869600,12.23386962890625,11.632050514221191,-0.0970500037074089,-0.3150000274181366
1779999131074146000,12.25114599609375,10.926000595092773,-0.0990000069141388,-0.2569500207901001
1779999131091423000,12.268423095703126,9.606000900268555,-0.07800000160932541,-0.1380000114440918
1779999131108699600,12.28569970703125,8.45205020904541,-0.0580500029027462,-0.046950001269578934
1779999131125976000,12.30297607421875,8.116950035095215,-0.04905000329017639,-0.006000000052154064
1779999131143252700,12.320252685546874,8.770050048828125,-0.06599999964237213,-0.06795000284910202
1779999131160529700,12.33752978515625,10.075050354003906,-0.06105000153183937,-0.17805001139640808
1779999131177806300,12.354806396484374,11.233050346374512,-0.09405000507831573,-0.27195000648498535
1779999131195082800,12.372082763671875,11.592000961303711,-0.11100000888109207,-0.30000001192092896
1779999131212359700,12.389359619140626,10.930950164794922,-0.10395000129938126,-0.25995001196861267
1779999131229636000,12.406635986328125,9.661050796508789,-0.09000000357627869,-0.1660500019788742
1779999131246913000,12.4239130859375,8.521950721740723,-0.05595000088214874,-0.09000000357627869
1779999131264189700,12.441189697265624,8.170050621032715,-0.0580500029027462,-0.05595000088214874
1779999131281466400,12.45846630859375,8.824950218200684,-0.07304999977350235,-0.09495000541210175
1779999131298742800,12.47574267578125,10.063050270080566,-0.09405000507831573,-0.19005000591278076
1779999131316019700,12.493019775390625,11.209050178527832,-0.10905000567436218,-0.2689500153064728
1779999131333296400,12.51029638671875,11.532000541687012,-0.10905000567436218,-0.29295000433921814
1779999131350573000,12.527572998046875,10.893000602722168,-0.11400000751018524,-0.24105000495910645
1779999131367849700,12.544849609375,9.64905071258545,-0.06795000284910202,-0.15900000929832458
1779999131385126100,12.562126220703124,8.530950546264648,-0.034950003027915955,-0.09195000678300858
1779999131402403000,12.579403076171875,8.212950706481934,-0.043950002640485764,-0.04005000367760658
1779999131419679700,12.5966796875,8.836950302124023,-0.05595000088214874,-0.07800000160932541
1779999131436956400,12.613956298828125,10.066950798034668,-0.09000000357627869,-0.16905000805854797
1779999131454233000,12.631233154296876,11.166000366210938,-0.08505000174045563,-0.2550000250339508
1779999131471510000,12.648510009765625,11.479050636291504,-0.0970500037074089,-0.2880000174045563
1779999131488786700,12.66578662109375,10.857000350952148,-0.10905000567436218,-0.24300001561641693
1779999131506063400,12.6830634765625,9.643950462341309,-0.09195000678300858,-0.15900000929832458
1779999131523340000,12.700340087890625,8.593050003051758,-0.06300000101327896,-0.06795000284910202
1779999131540616700,12.71761669921875,8.256000518798828,-0.05595000088214874,-0.05205000191926956
1779999131557893400,12.734893310546875,8.871000289916992,-0.04905000329017639,-0.11100000888109207
1779999131575170000,12.752170166015626,10.060050010681152,-0.09195000678300858,-0.18300001323223114
1779999131592446700,12.76944677734375,11.13900089263916,-0.11100000888109207,-0.2569500207901001
1779999131609723400,12.786723388671875,11.460000991821289,-0.11595000326633453,-0.27900001406669617
1779999131627000300,12.804000244140624,10.84005069732666,-0.0990000069141388,-0.23295001685619354
1779999131644276700,12.82127685546875,9.64905071258545,-0.07304999977350235,-0.1570500135421753
1779999131661553400,12.838553466796874,8.584050178527832,-0.046950001269578934,-0.08505000174045563
1779999131678830000,12.855830078125,8.289000511169434,-0.046950001269578934,-0.06405000388622284
1779999131696107000,12.87310693359375,8.904000282287598,-0.06300000101327896,-0.10395000129938126
1779999131713383700,12.8903837890625,10.090950012207031,-0.08700000494718552,-0.1879500150680542
1779999131730660400,12.907660400390625,11.13705062866211,-0.10395000129938126,-0.2569500207901001
1779999131747936800,12.924936767578124,11.443050384521484,-0.11805000901222229,-0.2740500271320343
1779999131765213400,12.94221337890625,10.80405044555664,-0.10395000129938126,-0.22605000436306
1779999131782490400,12.959490478515624,9.62700080871582,-0.06105000153183937,-0.15000000596046448
1779999131799766800,12.976766845703125,8.601000785827637,-0.04200000315904617,-0.09495000541210175
1779999131817043700,12.994043701171876,8.308950424194336,-0.04905000329017639,-0.06105000153183937
1779999131834320100,13.011320068359375,8.932950019836426,-0.06599999964237213,-0.09000000357627869
1779999131851597000,13.02859716796875,10.087050437927246,-0.09000000357627869,-0.17805001139640808
1779999131868873700,13.045873779296874,11.11305046081543,-0.10200000554323196,-0.2650500237941742
1779999131886150400,13.063150390625,11.403000831604004,-0.11100000888109207,-0.28095000982284546
1779999131903427000,13.080427001953124,10.789950370788574,-0.10395000129938126,-0.24495001137256622
1779999131920703500,13.097703369140625,9.634050369262695,-0.0799500048160553,-0.1570500135421753
1779999131937980400,13.11498046875,8.623950004577637,-0.04905000329017639,-0.09000000357627869
1779999131955257000,13.132257080078125,8.347050666809082,-0.04905000329017639,-0.06405000388622284
1779999131972533800,13.14953369140625,8.944950103759766,-0.07304999977350235,-0.10200000554323196
1779999131989810400,13.166810546875,10.089000701904297,-0.10200000554323196,-0.1660500019788742
1779999132007087000,13.184087158203125,11.082000732421875,-0.11100000888109207,-0.24300001561641693
1779999132024363800,13.20136376953125,11.359950065612793,-0.0970500037074089,-0.28395000100135803
1779999132041640400,13.218640380859375,10.749000549316406,-0.09405000507831573,-0.24495001137256622
1779999132058917000,13.235917236328126,9.63705062866211,-0.07005000114440918,-0.1570500135421753
1779999132076194000,13.253194091796875,8.665050506591797,-0.0580500029027462,-0.07095000147819519
1779999132093470700,13.270470703125,8.395050048828125,-0.05595000088214874,-0.04905000329017639
1779999132110747100,13.2877470703125,8.974050521850586,-0.06105000153183937,-0.10695000737905502
1779999132128023800,13.30502392578125,10.078950881958008,-0.09195000678300858,-0.17100000381469727
1779999132145300700,13.32230078125,11.047950744628906,-0.11100000888109207,-0.24300001561641693
1779999132162577400,13.339577392578125,11.320950508117676,-0.10200000554323196,-0.27900001406669617
1779999132179854000,13.35685400390625,10.753950119018555,-0.0799500048160553,-0.2550000250339508
1779999132197130800,13.374130859375,9.652950286865234,-0.05595000088214874,-0.1660500019788742
1779999132214407400,13.391407470703125,8.713050842285156,-0.07304999977350235,-0.07605000585317612
1779999132231684400,13.408684326171874,8.419050216674805,-0.06795000284910202,-0.04200000315904617
1779999132248960800,13.425960693359375,8.983050346374512,-0.08700000494718552,-0.07800000160932541
1779999132266237400,13.443237548828124,10.048050880432129,-0.08205000311136246,-0.18105000257492065
1779999132283514000,13.46051416015625,10.986000061035156,-0.08205000311136246,-0.2670000195503235
1779999132300790800,13.477790771484376,11.283000946044922,-0.0990000069141388,-0.286050021648407
1779999132318067700,13.495067626953125,10.741950035095215,-0.10905000567436218,-0.24795001745224
1779999132335344000,13.51234423828125,9.715950012207031,-0.0970500037074089,-0.16200000047683716
1779999132352620800,13.529620849609374,8.76300048828125,-0.07500000298023224,-0.08700000494718552
1779999132369897500,13.5468974609375,8.47605037689209,-0.04905000329017639,-0.0799500048160553
1779999132387174400,13.56417431640625,8.983050346374512,-0.05595000088214874,-0.11100000888109207
1779999132404450800,13.581450927734375,10.009950637817383,-0.09405000507831573,-0.18105000257492065
1779999132421727500,13.5987275390625,10.962000846862793,-0.10605000704526901,-0.23295001685619354
1779999132439004200,13.616004150390625,11.245050430297852,-0.12105000764131546,-0.25005000829696655
1779999132456280800,13.63328076171875,10.735050201416016,-0.09000000357627869,-0.22905001044273376
1779999132473557800,13.650557861328124,9.700950622558594,-0.05595000088214874,-0.17100000381469727
1779999132490834200,13.667834228515625,8.779950141906738,-0.05100000277161598,-0.09195000678300858
1779999132508110800,13.68511083984375,8.497950553894043,-0.06300000101327896,-0.05400000140070915
1779999132525387500,13.702387451171875,9.004950523376465,-0.07005000114440918,-0.08295000344514847
1779999132542664200,13.719664306640626,10.005000114440918,-0.09195000678300858,-0.1660500019788742
1779999132559941000,13.736941162109375,10.918950080871582,-0.09405000507831573,-0.24795001745224
1779999132577217800,13.7542177734375,11.211000442504883,-0.09405000507831573,-0.28395000100135803
1779999132594494500,13.771494384765624,10.713000297546387,-0.10395000129938126,-0.23805001378059387
1779999132611771100,13.788771240234375,9.723000526428223,-0.07304999977350235,-0.17100000381469727
1779999132629047800,13.8060478515625,8.836950302124023,-0.07500000298023224,-0.09495000541210175
1779999132646324500,13.823324462890625,8.545949935913086,-0.06599999964237213,-0.06105000153183937
1779999132663601200,13.84060107421875,9.003000259399414,-0.06300000101327896,-0.09495000541210175
1779999132680877800,13.8578779296875,9.973950386047363,-0.09000000357627869,-0.1660500019788742
1779999132698154500,13.875154541015625,10.879050254821777,-0.09000000357627869,-0.24495001137256622
1779999132715431200,13.89243115234375,11.182050704956055,-0.10395000129938126,-0.2650500237941742
1779999132732707800,13.909707763671875,10.725000381469727,-0.0990000069141388,-0.23100000619888306
1779999132749984500,13.926984619140624,9.75195026397705,-0.06599999964237213,-0.1660500019788742
1779999132767261200,13.94426123046875,8.872950553894043,-0.06300000101327896,-0.09195000678300858
1779999132784537900,13.961537841796876,8.577000617980957,-0.06599999964237213,-0.05895000323653221
1779999132801814500,13.978814453125,9.019050598144531,-0.06795000284910202,-0.0970500037074089
1779999132819091200,13.99609130859375,9.96405029296875,-0.09195000678300858,-0.15900000929832458
1779999132836368000,14.013367919921874,10.837950706481934,-0.09405000507831573,-0.23805001378059387
1779999132853644500,14.03064453125,11.14905071258545,-0.09000000357627869,-0.2650500237941742
1779999132870921200,14.047921142578126,10.69005012512207,-0.09405000507831573,-0.23100000619888306
1779999132888198100,14.0651982421875,9.766050338745117,-0.09000000357627869,-0.16905000805854797
1779999132905474600,14.082474609375,8.902050018310547,-0.06599999964237213,-0.09195000678300858
1779999132922751200,14.099751220703125,8.608050346374512,-0.0580500029027462,-0.07605000585317612
1779999132940028200,14.117028076171875,9.03600025177002,-0.06105000153183937,-0.1189500093460083
1779999132957304800,14.134304931640624,9.957000732421875,-0.0970500037074089,-0.17100000381469727
1779999132974581500,14.15158154296875,10.824000358581543,-0.10395000129938126,-0.22605000436306
1779999132991858200,14.168858154296874,11.110950469970703,-0.09195000678300858,-0.25995001196861267
1779999133009134600,14.186134521484375,10.672950744628906,-0.08505000174045563,-0.24300001561641693
1779999133026411500,14.20341162109375,9.760950088500977,-0.06105000153183937,-0.17100000381469727
1779999133043688200,14.220688232421875,8.916000366210938,-0.07005000114440918,-0.09000000357627869
1779999133060964600,14.237964599609375,8.632050514221191,-0.07304999977350235,-0.06405000388622284
1779999133078241300,14.2552412109375,9.04995059967041,-0.07304999977350235,-0.08505000174045563
1779999133095518000,14.27251806640625,9.945000648498535,-0.07304999977350235,-0.1660500019788742
1779999133112795000,14.289794921875,10.765950202941895,-0.09405000507831573,-0.23595000803470612
1779999133130071600,14.307071533203125,11.070000648498535,-0.11400000751018524,-0.2550000250339508
1779999133147348200,14.32434814453125,10.656000137329102,-0.0990000069141388,-0.23295001685619354
1779999133164625000,14.341625,9.796950340270996,-0.08205000311136246,-0.17805001139640808
1779999133181901600,14.358901611328125,8.979000091552734,-0.07800000160932541,-0.11100000888109207
1779999133199178200,14.37617822265625,8.694000244140625,-0.05100000277161598,-0.09000000357627869
1779999133216455000,14.393454833984375,9.070050239562988,-0.07304999977350235,-0.10395000129938126
1779999133233731600,14.410731689453126,9.933000564575195,-0.09405000507831573,-0.1660500019788742
1779999133251008300,14.42800830078125,10.735050201416016,-0.10200000554323196,-0.21000000834465027
1779999133268285000,14.445284912109376,11.02500057220459,-0.0970500037074089,-0.24495001137256622
1779999133285561900,14.462561767578125,10.620000839233398,-0.07500000298023224,-0.22605000436306
1779999133302838300,14.47983837890625,9.784950256347656,-0.06795000284910202,-0.1660500019788742
1779999133320115000,14.497114990234374,9,-0.06599999964237213,-0.10200000554323196
1779999133337391600,14.5143916015625,8.722949981689453,-0.06599999964237213,-0.06105000153183937
1779999133354668300,14.531668212890626,9.108000755310059,-0.0799500048160553,-0.08700000494718552
1779999133371945000,14.548945068359375,9.91200065612793,-0.07800000160932541,-0.16200000047683716
1779999133389221600,14.5662216796875,10.70205020904541,-0.08700000494718552,-0.22905001044273376
1779999133406498300,14.583498291015625,10.981050491333008,-0.10200000554323196,-0.2530499994754791
1779999133423775000,14.60077490234375,10.603050231933594,-0.0990000069141388,-0.22095000743865967
1779999133441051600,14.6180517578125,9.816000938415527,-0.09195000678300858,-0.16200000047683716
1779999133458328300,14.635328369140625,9.03600025177002,-0.04905000329017639,-0.11595000326633453
1779999133475605000,14.65260498046875,8.746950149536133,-0.06105000153183937,-0.09495000541210175
1779999133492881700,14.669881591796875,9.120000839233398,-0.0799500048160553,-0.12105000764131546
1779999133510158300,14.687158447265626,9.921000480651855,-0.09000000357627869,-0.16395001113414764
1779999133527435300,14.704435302734375,10.692000389099121,-0.10395000129938126,-0.22395001351833344
1779999133544712000,14.7217119140625,10.969950675964355,-0.0970500037074089,-0.2550000250339508
1779999133561988400,14.73898828125,10.596000671386719,-0.08505000174045563,-0.23595000803470612
1779999133579265000,14.75626513671875,9.804000854492188,-0.08505000174045563,-0.16200000047683716
1779999133596541700,14.773541748046876,9.04800033569336,-0.07304999977350235,-0.10200000554323196
1779999133613818600,14.790818603515625,8.778000831604004,-0.07005000114440918,-0.07800000160932541
1779999133631095300,14.80809521484375,9.133950233459473,-0.06300000101327896,-0.1189500093460083
1779999133648372000,14.8253720703125,9.907050132751465,-0.07500000298023224,-0.18105000257492065
1779999133665648600,14.842648681640625,10.675050735473633,-0.10200000554323196,-0.21405000984668732
1779999133682925000,14.859925048828124,10.938000679016113,-0.11100000888109207,-0.24795001745224
1779999133700202000,14.877201904296875,10.584000587463379,-0.10605000704526901,-0.21000000834465027
1779999133717478700,14.894478759765626,9.808950424194336,-0.07304999977350235,-0.17100000381469727
1779999133734755300,14.91175537109375,9.072000503540039,-0.0580500029027462,-0.1189500093460083
1779999133752032000,14.929031982421876,8.79900074005127,-0.07500000298023224,-0.0799500048160553
1779999133769308700,14.94630859375,9.145950317382812,-0.06300000101327896,-0.0990000069141388
1779999133786585300,14.96358544921875,9.90195083618164,-0.08505000174045563,-0.16905000805854797
1779999133803862000,14.980862060546874,10.656000137329102,-0.0990000069141388,-0.22605000436306
1779999133821138700,14.998138671875,10.930950164794922,-0.09195000678300858,-0.23805001378059387
1779999133838415400,15.015415283203126,10.582050323486328,-0.0970500037074089,-0.21405000984668732
1779999133855692000,15.032692138671875,9.804000854492188,-0.06795000284910202,-0.17100000381469727
1779999133872968700,15.04996875,9.072000503540039,-0.07304999977350235,-0.10200000554323196
1779999133890245400,15.067245361328125,8.818050384521484,-0.06105000153183937,-0.08700000494718552
1779999133907522000,15.08452197265625,9.148950576782227,-0.0799500048160553,-0.10695000737905502
1779999133924798700,15.101798828125,9.904950141906738,-0.09405000507831573,-0.1660500019788742
1779999133942075400,15.119075439453125,10.630050659179688,-0.08700000494718552,-0.23805001378059387
1779999133959352000,15.13635205078125,10.912050247192383,-0.10395000129938126,-0.25995001196861267
1779999133976628700,15.153628662109375,10.582050323486328,-0.0970500037074089,-0.24300001561641693
1779999133993905400,15.170905517578126,9.832950592041016,-0.09000000357627869,-0.15900000929832458
1779999134011182000,15.18818212890625,9.100950241088867,-0.06795000284910202,-0.12105000764131546
1779999134028459000,15.205458984375,8.830050468444824,-0.06300000101327896,-0.0970500037074089
1779999134045735400,15.2227353515625,9.163050651550293,-0.06795000284910202,-0.11595000326633453
1779999134063012000,15.24001220703125,9.88800048828125,-0.09195000678300858,-0.15405000746250153
1779999134080288800,15.257288818359376,10.606050491333008,-0.08700000494718552,-0.2050500065088272
1779999134097565400,15.2745654296875,10.861950874328613,-0.0990000069141388,-0.23295001685619354
1779999134114842400,15.29184228515625,10.551000595092773,-0.08700000494718552,-0.22605000436306
1779999134132119000,15.309119140625,9.826050758361816,-0.07005000114440918,-0.1660500019788742
1779999134149395500,15.3263955078125,9.120000839233398,-0.07005000114440918,-0.0990000069141388
1779999134166672400,15.34367236328125,8.854050636291504,-0.07500000298023224,-0.08295000344514847
1779999134183948800,15.36094873046875,9.175050735473633,-0.07005000114440918,-0.10695000737905502
1779999134201225500,15.3782255859375,9.883050918579102,-0.07005000114440918,-0.17595000565052032
1779999134218502100,15.395502197265625,10.584000587463379,-0.08205000311136246,-0.22395001351833344
1779999134235778800,15.41277880859375,10.869000434875488,-0.0970500037074089,-0.23295001685619354
1779999134253055500,15.430055419921874,10.552950859069824,-0.10200000554323196,-0.21000000834465027
1779999134270332200,15.447332275390625,9.838050842285156,-0.08700000494718552,-0.16200000047683716
1779999134287608800,15.46460888671875,9.127050399780273,-0.06795000284910202,-0.11595000326633453
1779999134304885800,15.4818857421875,8.860950469970703,-0.06300000101327896,-0.10395000129938126
1779999134322162400,15.499162353515626,9.172050476074219,-0.06795000284910202,-0.12300000339746475
1779999134339439000,15.516439208984375,9.90000057220459,-0.09405000507831573,-0.1660500019788742
1779999134356715800,15.5337158203125,10.596000671386719,-0.10395000129938126,-0.21900001168251038
1779999134373992400,15.550992431640625,10.867050170898438,-0.10200000554323196,-0.24300001561641693
1779999134391269000,15.56826904296875,10.552950859069824,-0.08505000174045563,-0.22395001351833344
1779999134408545800,15.5855458984375,9.82800006866455,-0.07500000298023224,-0.17595000565052032
1779999134425822500,15.602822509765625,9.136950492858887,-0.07304999977350235,-0.1189500093460083
1779999134443099100,15.62009912109375,8.875950813293457,-0.07005000114440918,-0.08700000494718552
1779999134460375600,15.63737548828125,9.192000389099121,-0.0799500048160553,-0.0970500037074089
1779999134477652500,15.654652587890626,9.88800048828125,-0.06599999964237213,-0.18105000257492065
1779999134494929200,15.67192919921875,10.5600004196167,-0.09000000357627869,-0.22905001044273376
1779999134512205800,15.689205810546875,10.836000442504883,-0.10200000554323196,-0.23595000803470612
1779999134529482500,15.706482421875,10.522050857543945,-0.0990000069141388,-0.21000000834465027
1779999134546759200,15.72375927734375,9.850050926208496,-0.08505000174045563,-0.16905000805854797
1779999134564035800,15.741035888671876,9.160050392150879,-0.06599999964237213,-0.10395000129938126
1779999134581312500,15.7583125,8.89995002746582,-0.05100000277161598,-0.08700000494718552
1779999134598589200,15.775589111328125,9.193950653076172,-0.06300000101327896,-0.11400000751018524
1779999134615865900,15.792865966796874,9.87600040435791,-0.08505000174045563,-0.15195000171661377
1779999134633142500,15.810142578125,10.54800033569336,-0.09195000678300858,-0.20205001533031464
1779999134650419200,15.827419189453124,10.809000968933105,-0.09195000678300858,-0.23100000619888306
1779999134667695900,15.84469580078125,10.522050857543945,-0.08700000494718552,-0.22095000743865967
1779999134684972500,15.86197265625,9.826050758361816,-0.0799500048160553,-0.16905000805854797
1779999134702249200,15.879249267578125,9.201000213623047,-0.07500000298023224,-0.13305000960826874
1779999134719526000,15.89652587890625,8.931000709533691,-0.06599999964237213,-0.10200000554323196
1779999134736802300,15.91380224609375,9.226950645446777,-0.06599999964237213,-0.1279500126838684
1779999134754079000,15.931078857421875,9.88800048828125,-0.07304999977350235,-0.1860000044107437
1779999134771356000,15.94835595703125,10.534050941467285,-0.0990000069141388,-0.21900001168251038
1779999134788632600,15.965632568359375,10.797000885009766,-0.0990000069141388,-0.22395001351833344
1779999134805909200,15.9829091796875,10.492950439453125,-0.10200000554323196,-0.2070000171661377
1779999134823186000,16.00018603515625,9.838050842285156,-0.06599999964237213,-0.17805001139640808
1779999134840462600,16.017462646484375,9.175050735473633,-0.07005000114440918,-0.11400000751018524
1779999134857739300,16.0347392578125,8.950050354003906,-0.0580500029027462,-0.09495000541210175
1779999134875016000,16.052015869140625,9.226950645446777,-0.08205000311136246,-0.10905000567436218
1779999134892292600,16.069292724609376,9.877950668334961,-0.09195000678300858,-0.15195000171661377
1779999134909569300,16.0865693359375,10.527000427246094,-0.08505000174045563,-0.21195000410079956
1779999134926846000,16.103845947265626,10.773000717163086,-0.08505000174045563,-0.23295001685619354
1779999134944122600,16.12112255859375,10.4839506149292,-0.08205000311136246,-0.22395001351833344
1779999134961399300,16.1383994140625,9.829950332641602,-0.09000000357627869,-0.16395001113414764
1779999134978676000,16.155676025390626,9.217950820922852,-0.07800000160932541,-0.11400000751018524
1779999134995952600,16.17295263671875,8.959050178527832,-0.07304999977350235,-0.09195000678300858
1779999135013229300,16.190229248046876,9.256050109863281,-0.06795000284910202,-0.12600000202655792
1779999135030506000,16.207506103515627,9.8860502243042,-0.07304999977350235,-0.1860000044107437
1779999135047782700,16.22478271484375,10.515000343322754,-0.10605000704526901,-0.21705001592636108
1779999135073697800,16.25069775390625,10.680000305175781,-0.10200000554323196,-0.21900001168251038
1779999135090974200,16.26797412109375,10.1850004196167,-0.08505000174045563,-0.1860000044107437
1779999135108251000,16.2852509765625,9.487950325012207,-0.06300000101327896,-0.1469999998807907
1779999135125527600,16.302527587890626,9.028950691223145,-0.06105000153183937,-0.11100000888109207
1779999135142804200,16.31980419921875,9.04800033569336,-0.0799500048160553,-0.0970500037074089
1779999135160081000,16.337080810546876,9.555000305175781,-0.0970500037074089,-0.12300000339746475
1779999135177357600,16.354357666015623,10.228050231933594,-0.08505000174045563,-0.1860000044107437
1779999135194634200,16.37163427734375,10.69005012512207,-0.07500000298023224,-0.23595000803470612
1779999135211911000,16.388910888671877,10.656000137329102,-0.0799500048160553,-0.24105000495910645
1779999135229187600,16.4061875,10.165950775146484,-0.09195000678300858,-0.1860000044107437
1779999135246464300,16.42346435546875,9.510000228881836,-0.08700000494718552,-0.13500000536441803
1779999135263741200,16.4407412109375,9.067049980163574,-0.0799500048160553,-0.09495000541210175
1779999135281017600,16.458017578125,9.082050323486328,-0.06105000153183937,-0.09195000678300858
1779999135298294500,16.47529443359375,9.550950050354004,-0.06300000101327896,-0.14505000412464142
1779999135315571000,16.492571044921874,10.1850004196167,-0.07500000298023224,-0.19995000958442688
1779999135332847900,16.509847900390625,10.636950492858887,-0.09000000357627869,-0.21705001592636108
1779999135350124500,16.52712451171875,10.639050483703613,-0.09195000678300858,-0.21000000834465027
1779999135367401200,16.544401123046875,10.17300033569336,-0.08205000311136246,-0.18300001323223114
1779999135384677600,16.561677734375,9.52695083618164,-0.08505000174045563,-0.1399500072002411
1779999135401954300,16.578954345703124,9.07395076751709,-0.06599999964237213,-0.12600000202655792
1779999135419231000,16.59623095703125,9.096000671386719,-0.06599999964237213,-0.13305000960826874
1779999135436507600,16.613507568359374,9.567000389099121,-0.0990000069141388,-0.15195000171661377
1779999135453784600,16.63078466796875,10.213050842285156,-0.08505000174045563,-0.2070000171661377
1779999135471061200,16.648061279296876,10.656000137329102,-0.0990000069141388,-0.23295001685619354
1779999135488337700,16.665337646484375,10.635000228881836,-0.09405000507831573,-0.23805001378059387
1779999135505614600,16.682614501953125,10.156050682067871,-0.08505000174045563,-0.1860000044107437
1779999135522891000,16.69989111328125,9.522000312805176,-0.09000000357627869,-0.1279500126838684
1779999135540167700,16.717167724609375,9.07395076751709,-0.06300000101327896,-0.10905000567436218
1779999135557444600,16.734444580078126,9.096000671386719,-0.07304999977350235,-0.10905000567436218
1779999135574721000,16.751720947265625,9.571950912475586,-0.0799500048160553,-0.1469999998807907
1779999135591997700,16.768997802734376,10.204050064086914,-0.07304999977350235,-0.18105000257492065
1779999135609274400,16.7862744140625,10.623000144958496,-0.10395000129938126,-0.2050500065088272
1779999135626551000,16.803551025390625,10.579050064086914,-0.09000000357627869,-0.22605000436306
1779999135643828000,16.820827880859376,10.129950523376465,-0.07304999977350235,-0.21195000410079956
1779999135661104400,16.8381044921875,9.547950744628906,-0.07800000160932541,-0.15405000746250153
1779999135678381000,16.855381103515626,9.145950317382812,-0.06105000153183937,-0.10695000737905502
1779999135695657700,16.87265771484375,9.181950569152832,-0.06105000153183937,-0.08700000494718552
1779999135712934400,16.889934326171876,9.60300064086914,-0.06105000153183937,-0.12600000202655792
1779999135730210800,16.9072109375,10.141950607299805,-0.07005000114440918,-0.1660500019788742
1779999135747487700,16.92448779296875,10.516950607299805,-0.08205000311136246,-0.21000000834465027
1779999135764764400,16.941764404296876,10.474050521850586,-0.09000000357627869,-0.2070000171661377
1779999135782041000,16.959041015625,10.096050262451172,-0.0799500048160553,-0.2070000171661377
1779999135799317800,16.97631787109375,9.582000732421875,-0.10200000554323196,-0.1399500072002411
1779999135816594200,16.99359423828125,9.201000213623047,-0.12300000339746475,-0.08700000494718552
1779999135833871000,17.01087109375,9.213000297546387,-0.10200000554323196,-0.09000000357627869
1779999135851147800,17.028147705078126,9.541050910949707,-0.05595000088214874,-0.13500000536441803
1779999135868424400,17.045424560546873,10.089000701904297,-0.07304999977350235,-0.21405000984668732
1779999135885701000,17.062701171875,10.519950866699219,-0.031950000673532486,-0.3049500286579132
1779999135902977800,17.079977783203127,10.608000755310059,-0.09405000507831573,-0.21195000410079956
1779999135920254200,17.097254150390626,10.273050308227539,-0.14505000412464142,-0.08700000494718552
1779999135937531100,17.11453125,9.64905071258545,-0.0799500048160553,-0.09495000541210175
1779999135954807800,17.131807861328124,9.160050392150879,-0.046950001269578934,-0.13500000536441803
1779999135972084500,17.14908447265625,9.072000503540039,-0.0010500000789761543,-0.16905000805854797
1779999135989361200,17.166361083984373,9.507000923156738,-0.025050001218914986,-0.1879500150680542
1779999136006637800,17.183637939453124,10.14900016784668,-0.09195000678300858,-0.16905000805854797
1779999136023914200,17.200914306640627,10.596000671386719,-0.13005000352859497,-0.17400000989437103
1779999136041191000,17.21819091796875,10.611000061035156,-0.10200000554323196,-0.1879500150680542
1779999136058467800,17.2354677734375,10.16295051574707,-0.08505000174045563,-0.1860000044107437
1779999136075744500,17.25274462890625,9.543000221252441,-0.06300000101327896,-0.16905000805854797
1779999136093021200,17.270021240234374,9.093000411987305,-0.07800000160932541,-0.1380000114440918
1779999136110297900,17.2872978515625,9.127050399780273,-0.11805000901222229,-0.10905000567436218
1779999136127574500,17.304574462890624,9.58395004272461,-0.11595000326633453,-0.14295001327991486
1779999136144851200,17.321851318359375,10.1850004196167,-0.09000000357627869,-0.2070000171661377
1779999136162128000,17.3391279296875,10.600950241088867,-0.09000000357627869,-0.2740500271320343
1779999136179404500,17.356404541015625,10.587000846862793,-0.09000000357627869,-0.2670000195503235
1779999136196681200,17.37368115234375,10.18695068359375,-0.11805000901222229,-0.21405000984668732
1779999136213957600,17.39095751953125,9.59595012664795,-0.11100000888109207,-0.13095000386238098
1779999136231234300,17.408234375,9.177000045776367,-0.0799500048160553,-0.0970500037074089
1779999136248511200,17.42551123046875,9.124950408935547,-0.05100000277161598,-0.11400000751018524
1779999136265788000,17.442787841796875,9.510000228881836,-0.0799500048160553,-0.14505000412464142
1779999136283064300,17.460064208984374,10.108050346374512,-0.09195000678300858,-0.17805001139640808
1779999136300341200,17.47734130859375,10.564950942993164,-0.09405000507831573,-0.20205001533031464
1779999136317618000,17.494617919921875,10.591050148010254,-0.09405000507831573,-0.21405000984668732
1779999136334894300,17.511894287109374,10.189050674438477,-0.0799500048160553,-0.1980000138282776
1779999136352171000,17.5291708984375,9.61305046081543,-0.07500000298023224,-0.16200000047683716
1779999136369448000,17.546447998046876,9.177000045776367,-0.08505000174045563,-0.11595000326633453
1779999136386724400,17.563724365234375,9.151050567626953,-0.06300000101327896,-0.11400000751018524
1779999136404001000,17.5810009765625,9.531000137329102,-0.09000000357627869,-0.14505000412464142
1779999136421277700,17.598277587890625,10.113000869750977,-0.09195000678300858,-0.1980000138282776
1779999136438554400,17.615554443359375,10.546050071716309,-0.0990000069141388,-0.22905001044273376
1779999136455831300,17.632831298828126,10.584000587463379,-0.09195000678300858,-0.22905001044273376
1779999136473107700,17.650107666015625,10.1850004196167,-0.07800000160932541,-0.1980000138282776
1779999136490384400,17.66738427734375,9.607950210571289,-0.07800000160932541,-0.15405000746250153
1779999136507661000,17.6846611328125,9.187050819396973,-0.07800000160932541,-0.1189500093460083
1779999136524937700,17.701937744140626,9.163050651550293,-0.07800000160932541,-0.10905000567436218
1779999136542214100,17.719214111328125,9.543000221252441,-0.07005000114440918,-0.14295001327991486
1779999136559490800,17.73649072265625,10.102950096130371,-0.09000000357627869,-0.18105000257492065
1779999136576767700,17.753767822265626,10.516950607299805,-0.08700000494718552,-0.21705001592636108
1779999136594044400,17.77104443359375,10.552950859069824,-0.10395000129938126,-0.21405000984668732
1779999136611321000,17.788321044921876,10.19205093383789,-0.09405000507831573,-0.19005000591278076
1779999136628597800,17.80559765625,9.62505054473877,-0.07005000114440918,-0.13500000536441803
1779999136645874400,17.82287451171875,9.205950736999512,-0.06300000101327896,-0.11595000326633453
1779999136663151000,17.840151123046876,9.151050567626953,-0.05400000140070915,-0.10905000567436218
1779999136680427800,17.857427734375,9.529050827026367,-0.07800000160932541,-0.1399500072002411
1779999136697704400,17.874704345703126,10.096050262451172,-0.09195000678300858,-0.18105000257492065
1779999136714981000,17.891981201171873,10.516950607299805,-0.09405000507831573,-0.21405000984668732
1779999136732257800,17.9092578125,10.555950164794922,-0.09405000507831573,-0.22905001044273376
1779999136749534500,17.926534423828127,10.1850004196167,-0.08505000174045563,-0.2070000171661377
1779999136766811000,17.943810791015625,9.634050369262695,-0.0970500037074089,-0.1660500019788742
1779999136784087800,17.961087890625,9.220050811767578,-0.08700000494718552,-0.13095000386238098
1779999136801364500,17.978364501953124,9.189000129699707,-0.07800000160932541,-0.1279500126838684
1779999136818641200,17.99564111328125,9.550950050354004,-0.07800000160932541,-0.16200000047683716
1779999136835917800,18.012917724609373,10.087050437927246,-0.09405000507831573,-0.19500000774860382
1779999136853194200,18.0301943359375,10.51200008392334,-0.0970500037074089,-0.21405000984668732
1779999136870471000,18.047470947265627,10.53600025177002,-0.11100000888109207,-0.2070000171661377
1779999136887747800,18.064747802734374,10.1850004196167,-0.09000000357627869,-0.1860000044107437
1779999136905024500,18.0820244140625,9.559950828552246,-0.07304999977350235,-0.1469999998807907
1779999136922301200,18.09930126953125,9.180000305175781,-0.0580500029027462,-0.1279500126838684
1779999136939577900,18.116577880859374,9.163050651550293,-0.0580500029027462,-0.12300000339746475
1779999136956854300,18.133854248046877,9.5910005569458,-0.07800000160932541,-0.15405000746250153
1779999136974131000,18.151130859375,10.16100025177002,-0.10605000704526901,-0.1860000044107437
1779999136991407900,18.168407958984375,10.576950073242188,-0.09000000357627869,-0.21705001592636108
1779999137008684300,18.185684326171874,10.570050239562988,-0.09195000678300858,-0.23100000619888306
1779999137025961200,18.202961181640624,10.087050437927246,-0.08700000494718552,-0.19005000591278076
1779999137043237600,18.220237548828123,9.58395004272461,-0.0580500029027462,-0.16200000047683716
1779999137060514300,18.237514404296874,9.277950286865234,-0.0799500048160553,-0.12105000764131546
1779999137077791000,18.254791015625,9.229950904846191,-0.0799500048160553,-0.11400000751018524
1779999137095067600,18.272067626953124,9.519000053405762,-0.07500000298023224,-0.1380000114440918
1779999137112344300,18.28934423828125,10.19895076751709,-0.0990000069141388,-0.19500000774860382
1779999137129621000,18.30662109375,10.486050605773926,-0.07800000160932541,-0.22605000436306
1779999137146897700,18.323897705078124,10.4839506149292,-0.12105000764131546,-0.2050500065088272
1779999137164174300,18.34117431640625,9.933000564575195,-0.08505000174045563,-0.17100000381469727
1779999137181451000,18.358450927734374,9.397050857543945,-0.07304999977350235,-0.1380000114440918
1779999137198727700,18.375727783203125,9.244050025939941,-0.0799500048160553,-0.13500000536441803
1779999137216004000,18.393004150390624,9.460050582885742,-0.07500000298023224,-0.15000000596046448
1779999137233281000,18.410281005859375,9.997950553894043,-0.10200000554323196,-0.1660500019788742
1779999137250557700,18.4275576171875,10.246950149536133,-0.09000000357627869,-0.18300001323223114
1779999137267834400,18.44483447265625,10.387950897216797,-0.10605000704526901,-0.19500000774860382
1779999137285111000,18.462111083984375,9.985950469970703,-0.09000000357627869,-0.18300001323223114
1779999137302387700,18.4793876953125,8.916000366210938,-0.043950002640485764,-0.1399500072002411
1779999137319664000,18.4966640625,9.682050704956055,-0.16395001113414764,-0.12600000202655792
1779999137336941000,18.513941162109376,9.685050010681152,-0.034950003027915955,-0.2070000171661377
1779999137354217700,18.5312177734375,10.900050163269043,-0.09195000678300858,-0.23805001378059387
1779999137371494400,18.548494384765625,9.388050079345703,-0.043950002640485764,-0.21195000410079956
1779999137388771000,18.56577099609375,9.121950149536133,-0.10905000567436218,-0.15405000746250153
1779999137406047700,18.5830478515625,8.919000625610352,-0.09195000678300858,-0.16905000805854797
1779999137423324200,18.60032421875,10.21095085144043,-0.12105000764131546,-0.25995001196861267
1779999137440601000,18.61760107421875,10.879050254821777,-0.11100000888109207,-0.3270000219345093
1779999137457877800,18.634877685546876,10.687050819396973,-0.13305000960826874,-0.3270000219345093
1779999137475154200,18.652154296875,9.949950218200684,-0.10200000554323196,-0.2959500253200531
1779999137492430800,18.669430908203125,8.815950393676758,-0.046950001269578934,-0.2569500207901001
1779999137509707500,18.68670751953125,8.50200080871582,-0.08505000174045563,-0.2530499994754791
1779999137526984200,18.703984130859375,9.414000511169434,-0.13500000536441803,-0.2670000195503235
1779999137544260900,18.7212607421875,10.366950035095215,-0.10605000704526901,-0.3960000276565552
1779999137561537300,18.738537353515625,10.81605052947998,-0.11805000901222229,-0.492000013589859
1779999137578814200,18.755814208984376,10.00005054473877,-0.08205000311136246,-0.4440000355243683
1779999137596091000,18.7730908203125,8.938050270080566,-0.07005000114440918,-0.4320000112056732
1779999137613367600,18.790367431640625,9.277950286865234,-0.11100000888109207,-0.4510500133037567
1779999137630644200,18.807644287109376,9.993000030517578,-0.11100000888109207,-0.5299500226974487
1779999137647921000,18.8249208984375,10.036050796508789,-0.0990000069141388,-0.612000048160553
1779999137665197600,18.842197509765626,10.13700008392334,-0.11805000901222229,-0.6550500392913818
1779999137682474200,18.85947412109375,10.564950942993164,-0.11400000751018524,-0.6739500164985657
1779999137699751000,18.8767509765625,9.763050079345703,-0.10200000554323196,-0.7020000219345093
1779999137717027600,18.894027587890626,9.241950035095215,-0.12300000339746475,-0.6640500426292419
1779999137734304300,18.91130419921875,9.574050903320312,-0.1660500019788742,-0.7050000429153442
1779999137751581000,18.928580810546876,10.230000495910645,-0.1489500105381012,-0.7810500264167786
1779999137768857600,18.945857666015623,10.31100082397461,-0.0970500037074089,-0.8359500169754028
1779999137786134300,18.96313427734375,10.125000953674316,-0.1279500126838684,-0.8479500412940979
1779999137803411000,18.980410888671877,9.931050300598145,-0.10605000704526901,-0.8680500388145447
1779999137820687600,18.9976875,9.04800033569336,-0.04200000315904617,-0.9490500688552856
1779999137837964300,19.01496435546875,9.522000312805176,-0.1279500126838684,-0.8149500489234924
1779999137855241000,19.032240966796873,9.718050003051758,-0.0970500037074089,-0.9130500555038452
1779999137872517400,19.049517333984376,10.077000617980957,-0.09195000678300858,-0.987000048160553
1779999137889794300,19.066794189453127,9.993000030517578,-0.07304999977350235,-1.0230000019073486
1779999137907071000,19.084071044921874,9.739950180053711,-0.034950003027915955,-1.0399500131607056
1779999137924347600,19.10134765625,9.772950172424316,-0.06599999964237213,-1.057050108909607
1779999137941624000,19.1186240234375,9.5910005569458,-0.08205000311136246,-1.0830000638961792
1779999137958900700,19.135900634765626,9.772950172424316,-0.07800000160932541,-1.1160000562667847
1779999137976177400,19.153177490234373,10.243950843811035,-0.10200000554323196,-1.1910001039505005
1779999137993454000,19.1704541015625,10.17495059967041,-0.10200000554323196,-1.2190500497817993
1779999138010730500,19.18773046875,9.93600082397461,-0.05400000140070915,-1.2499500513076782
1779999138028007200,19.205007080078126,9.235050201416016,-0.07800000160932541,-1.1880000829696655
1779999138045284000,19.2222841796875,9.486000061035156,-0.12495000660419464,-1.1740500926971436
1779999138062560800,19.239560791015624,9.8860502243042,-0.11100000888109207,-1.2720000743865967
1779999138079837400,19.25683740234375,10.350000381469727,-0.12495000660419464,-1.3510500192642212
1779999138097114000,19.274114013671873,9.87600040435791,-0.07800000160932541,-1.3650000095367432
1779999138114390800,19.291390869140624,9.696000099182129,-0.08205000311136246,-1.3170000314712524
1779999138131667500,19.30866748046875,9.475950241088867,-0.13305000960826874,-1.3050000667572021
1779999138148944100,19.325944091796874,9.771000862121582,-0.08205000311136246,-1.3680000305175781
1779999138166220800,19.343220703125,9.8860502243042,-0.0990000069141388,-1.4160000085830688
1779999138183497500,19.36049755859375,10.14900016784668,-0.10605000704526901,-1.4350500106811523
1779999138200774100,19.377774169921874,9.670050621032715,-0.037050001323223114,-1.477950096130371
1779999138218050800,19.39505078125,9.708000183105469,-0.10605000704526901,-1.4590500593185425
1779999138235327200,19.4123271484375,9.933000564575195,-0.13005000352859497,-1.4730000495910645
1779999138252604000,19.42960400390625,10.252050399780273,-0.10200000554323196,-1.5420000553131104
1779999138269880800,19.446880859375,9.919050216674805,-0.11400000751018524,-1.5180001258850098
1779999138287157200,19.4641572265625,9.808950424194336,-0.12105000764131546,-1.5019500255584717
1779999138304434000,19.481433837890624,9.490950584411621,-0.11100000888109207,-1.4710500240325928
1779999138321710600,19.498710693359374,9.373050689697266,-0.10905000567436218,-1.4830501079559326
1779999138338987300,19.5159873046875,9.631950378417969,-0.0990000069141388,-1.537950038909912
1779999138356264000,19.533263916015624,9.735000610351562,-0.13305000960826874,-1.5349500179290771
1779999138373540900,19.550540771484375,9.61305046081543,-0.11805000901222229,-1.5570000410079956
1779999138390817300,19.5678173828125,9.369000434875488,-0.04200000315904617,-1.5349500179290771
1779999138408094000,19.585093994140625,9.598050117492676,-0.12495000660419464,-1.5780000686645508
1779999138425370600,19.60237060546875,9.87600040435791,-0.10605000704526901,-1.6399500370025635
1779999138442647300,19.619647216796874,9.661050796508789,-0.14505000412464142,-1.6549500226974487
1779999138459924000,19.636924072265625,9.804000854492188,-0.17295001447200775,-1.6600500345230103
1779999138477200600,19.65420068359375,10.321050643920898,-0.10395000129938126,-1.76295006275177
1779999138494477300,19.671477294921875,10.221000671386719,-0.12105000764131546,-1.759950041770935
1779999138511754000,19.68875390625,9.022050857543945,-0.14205001294612885,-1.686000108718872
1779999138529030700,19.70603076171875,9.582000732421875,-0.13500000536441803,-1.7269500494003296
1779999138546307300,19.723307373046875,10.081950187683105,-0.17100000381469727,-1.7770501375198364
1779999138563584000,19.740583984375,10.081950187683105,-0.15900000929832458,-1.818000078201294
1779999138580860700,19.757860595703125,10.213050842285156,-0.13695000112056732,-1.852950096130371
1779999138598137000,19.77513720703125,9.541050910949707,-0.13305000960826874,-1.7940000295639038
1779999138615413800,19.792413818359375,9.426000595092773,-0.1399500072002411,-1.7430000305175781
1779999138632690700,19.809690673828126,9.541050910949707,-0.15195000171661377,-1.7650500535964966
1779999138649967000,19.826967041015624,9.366000175476074,-0.16905000805854797,-1.755000114440918
1779999138667244000,19.844244140625,9.61305046081543,-0.1469999998807907,-1.7910001277923584
1779999138684520400,19.8615205078125,9.991050720214844,-0.12300000339746475,-1.8630000352859497
1779999138701797000,19.878797119140625,10.113000869750977,-0.17295001447200775,-1.8490500450134277
1779999138719074000,19.896073974609376,9.814050674438477,-0.1969500035047531,-1.810050129890442
1779999138736350700,19.913350830078127,9.574050903320312,-0.12495000660419464,-1.8340500593185425
1779999138753627100,19.930627197265625,9.667950630187988,-0.12495000660419464,-1.8510000705718994
1779999138770903800,19.94790380859375,9.847050666809082,-0.13005000352859497,-1.8510000705718994
1779999138788180500,19.965180419921875,9.394950866699219,-0.06105000153183937,-1.8649500608444214
1779999138805457200,19.98245703125,9.546000480651855,-0.13305000960826874,-1.8390001058578491
1779999138822733800,19.99973388671875,9.814050674438477,-0.13695000112056732,-1.8750001192092896
1779999138840010500,20.017010498046876,9.664950370788574,-0.18495000898838043,-1.8580501079559326
1779999138857287200,20.034287109375,9.57705020904541,-0.16095000505447388,-1.8730500936508179
1779999138874563800,20.051563720703125,9.940950393676758,-0.1399500072002411,-1.915950059890747
1779999138891840500,20.068840576171876,9.937950134277344,-0.16395001113414764,-1.924950122833252
1779999138909117200,20.0861171875,9.993000030517578,-0.15900000929832458,-1.9039500951766968
1779999138926393600,20.1033935546875,9.771000862121582,-0.13695000112056732,-1.915950059890747
1779999138943670300,20.120670166015625,9.273000717163086,-0.15195000171661377,-1.852950096130371
1779999138960947000,20.137947021484376,9.418950080871582,-0.14505000412464142,-1.8630000352859497
1779999138978223900,20.155223876953126,9.736950874328613,-0.11805000901222229,-1.91100013256073
1779999138995500300,20.172500244140625,9.996000289916992,-0.15405000746250153,-1.9300501346588135
1779999139012777000,20.18977685546875,9.682050704956055,-0.11595000326633453,-1.9300501346588135
1779999139030053600,20.2070537109375,9.265950202941895,-0.1489500105381012,-1.8649500608444214
1779999139047330300,20.224330322265626,9.531000137329102,-0.1570500135421753,-1.852950096130371
1779999139064607000,20.24160693359375,9.85200023651123,-0.17295001447200775,-1.9009500741958618
1779999139081883400,20.25888330078125,9.955050468444824,-0.15900000929832458,-1.9440001249313354
1779999139099160300,20.276160400390626,9.943050384521484,-0.10395000129938126,-1.966050148010254
1779999139116437000,20.29343701171875,9.790050506591797,-0.13005000352859497,-1.9420500993728638
1779999139133713400,20.31071337890625,9.417000770568848,-0.1489500105381012,-1.8870000839233398
1779999139150990000,20.327989990234375,9.667950630187988,-0.13305000960826874,-1.908000111579895
1779999139168266800,20.345266845703126,9.807000160217285,-0.1469999998807907,-1.9369500875473022
1779999139185543400,20.36254345703125,9.865950584411621,-0.1489500105381012,-1.9320000410079956
1779999139202820000,20.379820068359376,9.655950546264648,-0.1489500105381012,-1.924950122833252
1779999139220096800,20.3970966796875,9.744000434875488,-0.15900000929832458,-1.9009500741958618
1779999139237373200,20.414373291015625,9.5910005569458,-0.1570500135421753,-1.8889501094818115
1779999139254650000,20.431650146484376,9.486000061035156,-0.15195000171661377,-1.8649500608444214
1779999139271926800,20.4489267578125,9.478950500488281,-0.15405000746250153,-1.8649500608444214
1779999139289203500,20.466203369140626,9.652950286865234,-0.1399500072002411,-1.894050121307373
1779999139306480000,20.483480224609377,9.696000099182129,-0.12300000339746475,-1.9180500507354736
1779999139323756800,20.5007568359375,9.802050590515137,-0.1279500126838684,-1.91100013256073
1779999139341033700,20.51803369140625,9.711000442504883,-0.16395001113414764,-1.8799500465393066
1779999139358310400,20.535310302734374,9.582000732421875,-0.17805001139640808,-1.8490500450134277
1779999139375586800,20.5525869140625,9.676950454711914,-0.14205001294612885,-1.8889501094818115
1779999139392863500,20.569863525390623,9.756000518798828,-0.12495000660419464,-1.924950122833252
1779999139410140200,20.58714013671875,9.795000076293945,-0.15405000746250153,-1.912950038909912
1779999139427416800,20.604416748046877,9.670050621032715,-0.16095000505447388,-1.9009500741958618
1779999139444693500,20.621693603515624,9.643950462341309,-0.12495000660419464,-1.897050142288208
1779999139461970200,20.63897021484375,9.675000190734863,-0.1279500126838684,-1.9039500951766968
1779999139479246800,20.656246826171873,9.663000106811523,-0.14505000412464142,-1.9009500741958618
1779999139496523500,20.6735234375,9.59595012664795,-0.17295001447200775,-1.8850500583648682
1779999139513800200,20.69080029296875,9.90000057220459,-0.15405000746250153,-1.908000111579895
1779999139531076900,20.708076904296874,9.957000732421875,-0.13695000112056732,-1.9230000972747803
1779999139548353500,20.725353515625,9.748950004577637,-0.1399500072002411,-1.9060500860214233
1779999139565630000,20.7426298828125,9.397050857543945,-0.14505000412464142,-1.8730500936508179
1779999139582907000,20.759906982421874,9.337950706481934,-0.13500000536441803,-1.855950117111206
1779999139600183600,20.77718359375,9.546000480651855,-0.16095000505447388,-1.870050072669983
1779999139617460200,20.794460205078124,9.90195083618164,-0.17805001139640808,-1.8990000486373901
1779999139634737000,20.81173681640625,9.841950416564941,-0.17595000565052032,-1.8919501304626465
1779999139652013300,20.829013427734374,9.63900089263916,-0.14505000412464142,-1.8919501304626465
1779999139669290200,20.846290283203125,9.436050415039062,-0.12105000764131546,-1.9060500860214233
1779999139686566700,20.863566650390624,9.484050750732422,-0.11595000326633453,-1.91100013256073
1779999139703843300,20.88084326171875,9.985950469970703,-0.18105000257492065,-1.908000111579895
1779999139721120000,20.8981201171875,10.041000366210938,-0.17595000565052032,-1.9180500507354736
1779999139738396700,20.915396728515624,10.015050888061523,-0.15900000929832458,-1.9420500993728638
1779999139755673300,20.93267333984375,9.433050155639648,-0.10395000129938126,-1.9009500741958618
1779999139772950000,20.949949951171874,9.417000770568848,-0.13500000536441803,-1.8679500818252563
1779999139790226700,20.967226806640625,9.541050910949707,-0.1489500105381012,-1.8750001192092896
1779999139807503400,20.98450341796875,9.675000190734863,-0.15900000929832458,-1.9060500860214233
1779999139824780000,21.001780029296874,9.622050285339355,-0.13500000536441803,-1.9180500507354736
1779999139842056700,21.019056640625,9.784950256347656,-0.1279500126838684,-1.9369500875473022
1779999139859333600,21.036333740234376,9.796950340270996,-0.11805000901222229,-1.9560000896453857
1779999139876610000,21.053610107421875,9.382950782775879,-0.17295001447200775,-1.8850500583648682
1779999139893886700,21.07088671875,9.421050071716309,-0.16095000505447388,-1.8870000839233398
1779999139911163400,21.088163330078125,9.832950592041016,-0.11805000901222229,-1.9489500522613525
1779999139928440000,21.105440185546875,9.985950469970703,-0.1469999998807907,-1.954050064086914
1779999139945716500,21.122716552734374,9.759000778198242,-0.13500000536441803,-1.954050064086914
1779999139962993200,21.1399931640625,10.003050804138184,-0.09405000507831573,-1.9900500774383545
1779999139980269800,21.157269775390624,9.909000396728516,-0.13305000960826874,-1.9609501361846924
1779999140006184700,21.183184814453124,10.194000244140625,-0.17595000565052032,-1.9350000619888306
1779999140023461400,21.20046142578125,10.642050743103027,-0.18105000257492065,-1.9369500875473022
1779999140040738000,21.217738037109374,11.407050132751465,-0.17805001139640808,-1.984950065612793
1779999140058015000,21.235014892578125,13.015050888061523,-0.2569500207901001,-2.0329501628875732
1779999140075291600,21.252291748046876,15.379950523376465,-0.3460500240325928,-2.1450002193450928
1779999140092568300,21.269568359375,18.87795066833496,-0.7279500365257263,-2.16195011138916
1779999140109844700,21.2868447265625,17.44500160217285,-0.17805001139640808,-2.5500001907348633
1779999140127121400,21.304121337890624,6.994950294494629,1.1440500020980835,-2.449050188064575
1779999140144398000,21.321398193359375,-3.484950065612793,0.35895001888275146,-0.4510500133037567
1779999140161674800,21.3386748046875,-7.515000343322754,-0.4650000333786011,1.1179500818252563
1779999140178951400,21.355951416015625,-7.254000186920166,-0.690000057220459,1.6150500774383545
1779999140196228000,21.37322802734375,-1.225950002670288,0.4810500144958496,-0.11400000751018524
1779999140213504500,21.39050439453125,10.635000228881836,1.8499500751495361,-2.9350502490997314
1779999140230781400,21.407781494140625,33.76395034790039,-2.076000213623047,-2.581050157546997
1779999140248058000,21.42505810546875,43.20705032348633,-2.6950502395629883,-2.6050500869750977
1779999140265334500,21.44233447265625,10.42905044555664,2.0220000743865967,-3.6150002479553223
1779999140282611200,21.459611083984374,-0.6640500426292419,0.6300000548362732,-0.492000013589859
1779999140299887900,21.476887939453125,-6.51900053024292,-0.5539500117301941,1.3090500831604004
1779999140317164500,21.49416455078125,-7.113000392913818,-0.5470499992370605,1.3519500494003296
1779999140334441200,21.511441162109374,-1.912950038909912,0.37800002098083496,0.0019500000635161996
1779999140351717600,21.528717529296873,9.097949981689453,1.3759500980377197,-2.4130501747131348
1779999140368994300,21.545994384765624,34.12095260620117,-1.8840000629425049,-2.6100001335144043
1779999140386271200,21.563271240234375,37.9759521484375,-1.9320000410079956,-2.1499500274658203
1779999140403548000,21.5805478515625,10.717950820922852,2.0820000171661377,-2.9449501037597656
1779999140420824300,21.59782421875,1.3170000314712524,0.2779500186443329,0.1579500138759613
1779999140438101000,21.61510107421875,-0.6060000061988831,-1.26705002784729,1.0740000009536743
1779999140455377700,21.632377685546874,-7.134000301361084,-0.6589500308036804,1.894950032234192
1779999140472654300,21.649654296875,-2.899050235748291,0.44505003094673157,0.30195000767707825
1779999140489931000,21.666930908203124,6.448950290679932,2.0680501461029053,-2.1720001697540283
1779999140507207700,21.684207763671875,19.093050003051758,-0.4630500078201294,-2.101950168609619
1779999140524484400,21.701484375,56.75100326538086,-4.615050315856934,-2.180999994277954
1779999140541761000,21.718760986328125,9.217950820922852,1.1970000267028809,-3.3490500450134277
1779999140559037700,21.73603759765625,1.1749500036239624,1.1350500583648682,-1.057050108909607
1779999140576314400,21.753314453125,-5.215050220489502,-0.19995000958442688,0.6889500617980957
