time,seconds_elapsed,z,y,x
1779999119222349600,0.399349609375,9.60663890838623,-0.09144800156354904,-1.9683820009231567
1779999119239626200,0.416626220703125,9.605637550354004,-0.08959399908781052,-1.9733439683914185
1779999119256903000,0.43390283203125,9.604486465454102,-0.08111300319433212,-1.9793119430541992
1779999119274179600,0.4511796875,9.604244232177734,-0.07776100188493729,-1.9806139469146729
1779999119291455700,0.468455810546875,9.604668617248535,-0.08108700066804886,-1.9784220457077026
1779999119308732400,0.485732421875,9.604852676391602,-0.08269499987363815,-1.9774589538574219
1779999119326009000,0.503009033203125,9.605109214782715,-0.08509600162506104,-1.9760940074920654
1779999119343285800,0.52028564453125,9.605321884155273,-0.08758900314569473,-1.9749490022659302
1779999119360562200,0.537562255859375,9.605419158935547,-0.08968000113964081,-1.9743839502334595
1779999119377838800,0.5548388671875,9.60544490814209,-0.09171999990940094,-1.9741660356521606
1779999119395115500,0.572115478515625,9.605452537536621,-0.09405399858951569,-1.9740229845046997
1779999119412392000,0.589391845703125,9.605441093444824,-0.09660200029611588,-1.9739660024642944
1779999119429668600,0.606668701171875,9.605267524719238,-0.0980990007519722,-1.9747329950332642
1779999119446945000,0.623945068359375,9.604883193969727,-0.0980679988861084,-1.9766069650650024
1779999119464221700,0.6412216796875,9.604345321655273,-0.09701000154018402,-1.9792670011520386
1779999119481498400,0.658498291015625,9.603717803955078,-0.09555400162935257,-1.9823709726333618
1779999119498774800,0.67577490234375,9.602907180786133,-0.09338200092315674,-1.9863749742507935
1779999119516051500,0.693051513671875,9.601887702941895,-0.09039299935102463,-1.9914040565490723
1779999119533328100,0.710328125,9.60089111328125,-0.08795399963855743,-1.9963079690933228
1779999119550604800,0.727604736328125,9.600153923034668,-0.08642800152301788,-1.9999370574951172
1779999119567881200,0.744881103515625,9.599691390991211,-0.08533100038766861,-2.002216100692749
1779999119585158000,0.762157958984375,9.599522590637207,-0.0846949964761734,-2.0030601024627686
1779999119602434600,0.7794345703125,9.599764823913574,-0.08498699963092804,-2.0018770694732666
1779999119619711000,0.7967109375,9.600491523742676,-0.08666100353002548,-1.9982860088348389
1779999119636988000,0.81398779296875,9.601645469665527,-0.08943500369787216,-1.9926049709320068
1779999119654264300,0.831264404296875,9.60294246673584,-0.09204699844121933,-1.9862409830093384
1779999119671541000,0.848541015625,9.604013442993164,-0.09353400021791458,-1.9810060262680054
1779999119688817700,0.865817626953125,9.604636192321777,-0.09436500072479248,-1.9779629707336426
1779999119706094000,0.883093994140625,9.604829788208008,-0.0948679968714714,-1.977004051208496
1779999119723370800,0.900370849609375,9.604598045349121,-0.0952019989490509,-1.9781049489974976
1779999119740647400,0.9176474609375,9.603967666625977,-0.09505899995565414,-1.981158971786499
1779999119757924000,0.934924072265625,9.603058815002441,-0.09434100240468979,-1.9855870008468628
1779999119775200500,0.952200439453125,9.602033615112305,-0.09334100037813187,-1.9905920028686523
1779999119792477000,0.969476806640625,9.601007461547852,-0.09258300065994263,-1.9955830574035645
1779999119809753600,0.986753662109375,9.600096702575684,-0.09230399876832962,-1.9999899864196777
1779999119827030300,1.0040302734375,9.599360466003418,-0.09240999817848206,-2.003525972366333
1779999119844306700,1.021306640625,9.598760604858398,-0.09264999628067017,-2.006373882293701
1779999119861583400,1.038583251953125,9.59821891784668,-0.09276799857616425,-2.008963108062744
1779999119878860000,1.055860107421875,9.597688674926758,-0.09302300214767456,-2.0114779472351074
1779999119896136700,1.07313671875,9.59717845916748,-0.09385299682617188,-2.013875961303711
1779999119913413400,1.090413330078125,9.596681594848633,-0.09518399834632874,-2.0161819458007812
1779999119930689800,1.107689697265625,9.596202850341797,-0.09611400216817856,-2.018419027328491
1779999119947966500,1.124966552734375,9.595760345458984,-0.09648600220680237,-2.0205070972442627
1779999119965243100,1.1422431640625,9.59539794921875,-0.09666799753904343,-2.022218942642212
1779999119982519800,1.159519775390625,9.59518814086914,-0.09686599671840668,-2.0232110023498535
1779999119999796500,1.17679638671875,9.595170021057129,-0.09724099934101105,-2.0232760906219482
1779999120017073000,1.194072998046875,9.59547233581543,-0.09682399779558182,-2.021857976913452
1779999120042988000,1.219988037109375,9.595748901367188,-0.09806100279092789,-2.020474910736084
1779999120060264700,1.2372646484375,9.595826148986816,-0.09731800109148026,-2.0201499462127686
1779999120077541400,1.254541259765625,9.595987319946289,-0.09655500203371048,-2.0194180011749268
1779999120094817800,1.27181787109375,9.596370697021484,-0.0970500037074089,-2.017570972442627
1779999120112094500,1.289094482421875,9.596906661987305,-0.09790199995040894,-2.0149779319763184
1779999120129371100,1.30637109375,9.597437858581543,-0.09890399873256683,-2.0123910903930664
1779999120146647800,1.323647705078125,9.597761154174805,-0.10069099813699722,-2.010754108428955
1779999120163924200,1.34092431640625,9.598299026489258,-0.10123199969530106,-2.008147954940796
1779999120181201000,1.358200927734375,9.599055290222168,-0.10209599882364273,-2.0044920444488525
1779999120198477300,1.375477294921875,9.599870681762695,-0.10475700348615646,-2.0004498958587646
1779999120215754200,1.392754150390625,9.600614547729492,-0.10622300207614899,-1.9968090057373047
1779999120233030700,1.41003076171875,9.601354598999023,-0.10725399851799011,-1.9931859970092773
1779999120250307300,1.427307373046875,9.602309226989746,-0.1084040030837059,-1.9885129928588867
1779999120267584000,1.444583984375,9.603705406188965,-0.10980500280857086,-1.9816370010375977
1779999120284860400,1.4618603515625,9.60593318939209,-0.11168999969959259,-1.9705849885940552
1779999120302137000,1.47913720703125,9.609574317932129,-0.11502499878406525,-1.9521780014038086
1779999120319413800,1.496413818359375,9.615368843078613,-0.12061300128698349,-1.9220689535140991
1779999120336690400,1.5136904296875,9.624484062194824,-0.12722399830818176,-1.87283194065094
1779999120353967000,1.530967041015625,9.638749122619629,-0.12492399662733078,-1.790418028831482
1779999120371243500,1.548243408203125,9.659408569335938,-0.10360600054264069,-1.6528680324554443
1779999120388520200,1.565520263671875,9.685001373291016,-0.09651800245046616,-1.4302289485931396
1779999120405796900,1.582796875,9.709416389465332,-0.11252500116825104,-1.1251460313796997
1779999120423073500,1.600073486328125,9.730887413024902,-0.09771700203418732,-0.7835000157356262
1779999120440350000,1.617349853515625,9.750310897827148,-0.021685000509023666,-0.47055700421333313
1779999120457626600,1.634626708984375,9.765106201171875,0.11423099786043167,-0.23759199678897858
1779999120474903300,1.6519033203125,9.774643898010254,0.2375520020723343,-0.1059579998254776
1779999120492180000,1.669179931640625,9.779409408569336,0.2376600056886673,-0.05433199927210808
1779999120509456600,1.68645654296875,9.777364730834961,0.1778320074081421,-0.06792700290679932
1779999120526733000,1.703733154296875,9.775630950927734,0.25488999485969543,-0.1270579993724823
1779999120544009700,1.721009765625,9.774120330810547,0.37549200654029846,-0.19244900345802307
1779999120561286400,1.738286376953125,9.772051811218262,0.4511600136756897,-0.21816100180149078
1779999120578563000,1.75556298828125,9.771306037902832,0.44710901379585266,-0.19046899676322937
1779999120595839500,1.772839599609375,9.774985313415527,0.3988580107688904,-0.12274199724197388
1779999120613116200,1.7901162109375,9.778775215148926,0.38206401467323303,-0.06329900026321411
1779999120630392800,1.807392822265625,9.780977249145508,0.41791799664497375,-0.048023998737335205
1779999120647669500,1.82466943359375,9.778864860534668,0.41011300683021545,-0.08122199773788452
1779999120664946200,1.8419462890625,9.779605865478516,0.35178500413894653,-0.1300089955329895
1779999120682222800,1.859222900390625,9.784173965454102,0.23853799700737,-0.1663990020751953
1779999120699499300,1.876499267578125,9.787750244140625,0.12071699649095535,-0.1770710051059723
1779999120716776000,1.89377587890625,9.789286613464355,0.05905599892139435,-0.16267900168895721
1779999120734052600,1.911052490234375,9.787933349609375,0.07517600059509277,-0.12999999523162842
1779999120751329300,1.928329345703125,9.7847900390625,0.17111599445343018,-0.092739999294281
1779999120768605700,1.945605712890625,9.785355567932129,0.269897997379303,-0.06544400006532669
1779999120785882400,1.96288232421875,9.785262107849121,0.21016700565814972,-0.058800000697374344
1779999120803159000,1.980158935546875,9.784090995788574,0.1974239945411682,-0.08740799874067307
1779999120820435700,1.997435791015625,9.782353401184082,0.30187100172042847,-0.1466909945011139
1779999120837712100,2.014712158203125,9.780595779418945,0.4065069854259491,-0.1941549926996231
1779999120854989000,2.031989013671875,9.778923988342285,0.44384199380874634,-0.19723199307918549
1779999120872265700,2.049265625,9.780588150024414,0.4097039997577667,-0.1567309945821762
1779999120889542100,2.066542236328125,9.784992218017578,0.3568139970302582,-0.09963300079107285
1779999120906819000,2.083819091796875,9.78693962097168,0.3458789885044098,-0.07051300257444382
1779999120924095500,2.101095458984375,9.786870002746582,0.37626999616622925,-0.08212999999523163
1779999120941372200,2.1183720703125,9.785744667053223,0.35009801387786865,-0.12154199928045273
1779999120958648800,2.13564892578125,9.788610458374023,0.24594900012016296,-0.15605199337005615
1779999120975925500,2.152925537109375,9.7923583984375,0.14399799704551697,-0.17406900227069855
1779999120993202000,2.170201904296875,9.794327735900879,0.09757599979639053,-0.17584599554538727
1779999121010478600,2.187478515625,9.793085098266602,0.11428999900817871,-0.15978200733661652
1779999121027755300,2.20475537109375,9.789851188659668,0.18965399265289307,-0.13100400567054749
1779999121045032000,2.222031982421875,9.789363861083984,0.2857140004634857,-0.10023699700832367
1779999121062308600,2.23930859375,9.790456771850586,0.26371699571609497,-0.08058799803256989
1779999121079585000,2.2565849609375,9.789587020874023,0.23985399305820465,-0.09501899778842926
1779999121096861700,2.27386181640625,9.78767204284668,0.31328099966049194,-0.1438159942626953
1779999121114138400,2.291138427734375,9.786861419677734,0.36812499165534973,-0.19240400195121765
1779999121131415000,2.3084150390625,9.787785530090332,0.35674700140953064,-0.2071249932050705
1779999121148691700,2.325691650390625,9.790545463562012,0.2836019992828369,-0.1851859986782074
1779999121165968400,2.342968505859375,9.794347763061523,0.1973080039024353,-0.14484800398349762
1779999121183245000,2.3602451171875,9.796133995056152,0.16014200448989868,-0.11710400134325027
1779999121200521700,2.377521728515625,9.796565055847168,0.20055200159549713,-0.11771299690008163
1779999121217798400,2.39479833984375,9.795710563659668,0.17871899902820587,-0.13917699456214905
1779999121235074800,2.41207470703125,9.796635627746582,0.11323700100183487,-0.16387400031089783
1779999121252351500,2.4293515625,9.797930717468262,0.06287100166082382,-0.18493099510669708
1779999121269628200,2.446628173828125,9.798447608947754,0.033027999103069305,-0.19044899940490723
1779999121286904800,2.46390478515625,9.798188209533691,0.024424999952316284,-0.1782499998807907
1779999121304181500,2.481181396484375,9.79802131652832,0.04163699969649315,-0.15299999713897705
1779999121321458000,2.4984580078125,9.798763275146484,0.06675200164318085,-0.12706999480724335
1779999121338734600,2.515734619140625,9.799554824829102,0.05457000061869621,-0.11419100314378738
1779999121356011300,2.53301123046875,9.798843383789062,0.06429699808359146,-0.12544600665569305
1779999121373288000,2.550287841796875,9.797928810119629,0.06940300017595291,-0.15308000147342682
1779999121390564600,2.567564697265625,9.798049926757812,0.060731999576091766,-0.18119099736213684
1779999121407841300,2.58484130859375,9.79837417602539,0.07555100321769714,-0.19676999747753143
1779999121425118000,2.602117919921875,9.79775619506836,0.10284200310707092,-0.19442500174045563
1779999121442394600,2.61939453125,9.796613693237305,0.13778099417686462,-0.1747249960899353
1779999121459671000,2.636671142578125,9.796441078186035,0.18238499760627747,-0.147380992770195
1779999121476947700,2.65394775390625,9.79750919342041,0.19176499545574188,-0.12664799392223358
1779999121494224400,2.671224365234375,9.797452926635742,0.16753099858760834,-0.12858599424362183
1779999121511501000,2.6885009765625,9.796019554138184,0.20661400258541107,-0.15707699954509735
1779999121528777700,2.70577783203125,9.795747756958008,0.22493399679660797,-0.1909170001745224
1779999121554692900,2.73169287109375,9.796784400939941,0.16655200719833374,-0.20672999322414398
1779999121571969300,2.74896923828125,9.797728538513184,0.13473400473594666,-0.19240300357341766
1779999121589246000,2.766245849609375,9.79803466796875,0.136013001203537,-0.17048199474811554
1779999121606522600,2.783522705078125,9.79799747467041,0.17854300141334534,-0.15329499542713165
1779999121623799300,2.80079931640625,9.798506736755371,0.17981299757957458,-0.14428499341011047
1779999121641076000,2.818075927734375,9.79860782623291,0.15315300226211548,-0.15031200647354126
1779999121658352400,2.835352294921875,9.7976655960083,0.1710509955883026,-0.1746699959039688
1779999121675629000,2.852629150390625,9.797632217407227,0.19891700148582458,-0.19753600656986237
1779999121692906000,2.869906005859375,9.797881126403809,0.1810459941625595,-0.20588800311088562
1779999121710182700,2.8871826171875,9.79848861694336,0.14941400289535522,-0.19335199892520905
1779999121727459300,2.904459228515625,9.799538612365723,0.1291559934616089,-0.17145399749279022
1779999121744735700,2.92173583984375,9.800070762634277,0.13800400495529175,-0.1545329988002777
1779999121762012700,2.9390126953125,9.800427436828613,0.14501899480819702,-0.1483680009841919
1779999121779289000,2.9562890625,9.800399780273438,0.12889400124549866,-0.1551699936389923
1779999121796565800,2.973565673828125,9.800219535827637,0.11811500042676926,-0.17238600552082062
1779999121813842400,2.990842529296875,9.800289154052734,0.11344800144433975,-0.19105300307273865
1779999121831119400,3.008119384765625,9.800348281860352,0.12739799916744232,-0.1999330073595047
1779999121848395800,3.025395751953125,9.800065040588379,0.13731299340724945,-0.19395700097084045
1779999121865672400,3.04267236328125,9.800032615661621,0.1454779952764511,-0.174903005361557
1779999121882949000,3.05994921875,9.800501823425293,0.16112999618053436,-0.1545030027627945
1779999121900225800,3.077225830078125,9.801025390625,0.1597210019826889,-0.14386099576950073
1779999121917502200,3.094502197265625,9.800816535949707,0.15696600079536438,-0.14959600567817688
1779999121934779100,3.111779052734375,9.800241470336914,0.16739599406719208,-0.16870099306106567
1779999121952055800,3.129055908203125,9.80021858215332,0.16699600219726562,-0.1880210041999817
1779999121969332500,3.14633251953125,9.800354957580566,0.1647060066461563,-0.19638699293136597
1779999121986609200,3.163609130859375,9.800436973571777,0.16101999580860138,-0.18956699967384338
1779999122003885800,3.1808857421875,9.800569534301758,0.16235500574111938,-0.17112299799919128
1779999122021162200,3.198162353515625,9.800997734069824,0.1757259964942932,-0.1512089967727661
1779999122038439200,3.215439208984375,9.801513671875,0.17303699254989624,-0.14016200602054596
1779999122055715600,3.232715576171875,9.801411628723145,0.1710350066423416,-0.1437000036239624
1779999122072992500,3.249992431640625,9.800950050354004,0.17637899518013,-0.16011300683021545
1779999122090269200,3.267269287109375,9.80083179473877,0.17806699872016907,-0.17830100655555725
1779999122107545900,3.2845458984375,9.80102825164795,0.17260600626468658,-0.1866230070590973
1779999122124822500,3.301822509765625,9.801447868347168,0.15613499283790588,-0.17974600195884705
1779999122142099000,3.319098876953125,9.801899909973145,0.13858500123023987,-0.16197200119495392
1779999122159375600,3.336375732421875,9.802289009094238,0.14489200711250305,-0.1444060057401657
1779999122176652500,3.353652587890625,9.80264663696289,0.1477780044078827,-0.13496099412441254
1779999122193929000,3.370928955078125,9.802716255187988,0.13801200687885284,-0.13704000413417816
1779999122211205600,3.38820556640625,9.80224609375,0.15078499913215637,-0.14992399513721466
1779999122228482300,3.405482421875,9.802277565002441,0.141635000705719,-0.1626420021057129
1779999122245759000,3.422759033203125,9.80259895324707,0.12441100180149078,-0.1675810068845749
1779999122263035600,3.44003564453125,9.802640914916992,0.11931400001049042,-0.16278399527072906
1779999122280312300,3.457312255859375,9.802602767944336,0.12486899644136429,-0.14904999732971191
1779999122297589000,3.474589111328125,9.803008079528809,0.12055599689483643,-0.132764995098114
1779999122314865700,3.49186572265625,9.803359985351562,0.12085100263357162,-0.1232289969921112
1779999122332142300,3.509142333984375,9.803281784057617,0.12094300240278244,-0.12531299889087677
1779999122349419000,3.5264189453125,9.80301284790039,0.11818200349807739,-0.13658300042152405
1779999122366695700,3.54369580078125,9.802876472473145,0.12110800296068192,-0.1500059962272644
1779999122383972600,3.56097265625,9.802976608276367,0.11696899682283401,-0.1571439951658249
1779999122401249000,3.5782490234375,9.802992820739746,0.11364399641752243,-0.154122993350029
1779999122418525700,3.595525634765625,9.802997589111328,0.11422400176525116,-0.1419830024242401
1779999122435802400,3.61280224609375,9.803302764892578,0.1128849983215332,-0.12748900055885315
1779999122453079000,3.6300791015625,9.80362319946289,0.11166399717330933,-0.11897899955511093
1779999122470355700,3.647355712890625,9.803529739379883,0.11170899868011475,-0.12144099920988083
1779999122487632400,3.66463232421875,9.803241729736328,0.1102830022573471,-0.13278000056743622
1779999122504909000,3.681908935546875,9.803131103515625,0.1109900027513504,-0.1458130031824112
1779999122522185700,3.699185791015625,9.80319881439209,0.1093520000576973,-0.15295299887657166
1779999122539462400,3.71646240234375,9.803194046020508,0.10741599649190903,-0.15024599432945251
1779999122556739000,3.733739013671875,9.803201675415039,0.10749399662017822,-0.13868099451065063
1779999122574016000,3.75101611328125,9.803484916687012,0.10638599842786789,-0.12445899844169617
1779999122591292400,3.76829248046875,9.803783416748047,0.10585299879312515,-0.11604399979114532
1779999122608569000,3.785569091796875,9.803702354431152,0.10554700344800949,-0.11827900260686874
1779999122625845800,3.802845703125,9.803412437438965,0.10491800308227539,-0.12949900329113007
1779999122643122400,3.820122314453125,9.803300857543945,0.10524400323629379,-0.14266499876976013
1779999122660399000,3.837399169921875,9.803366661071777,0.10395000129938126,-0.1502380073070526
1779999122677675800,3.85467578125,9.80335521697998,0.10303100198507309,-0.14810800552368164
1779999122694952400,3.871952392578125,9.803359031677246,0.10294300317764282,-0.13718000054359436
1779999122712229000,3.88922900390625,9.80362319946289,0.10184500366449356,-0.12347500026226044
1779999122729505800,3.906505859375,9.803909301757812,0.10136900097131729,-0.115215003490448
1779999122746782500,3.923782470703125,9.803839683532715,0.10079900175333023,-0.11724399775266647
1779999122764059100,3.94105908203125,9.80355453491211,0.10057699680328369,-0.12815900146961212
1779999122781335800,3.958335693359375,9.80344295501709,0.10050799697637558,-0.14108599722385406
1779999122798612500,3.975612548828125,9.80350112915039,0.09968599677085876,-0.14878599345684052
1779999122815889200,3.99288916015625,9.803487777709961,0.09921900182962418,-0.1469549983739853
1779999122833165800,4.010165771484375,9.803494453430176,0.098860003054142,-0.13642899692058563
1779999122850442500,4.0274423828125,9.803739547729492,0.09819599986076355,-0.12315499782562256
1779999122867719200,4.04471923828125,9.804014205932617,0.09763099998235703,-0.11503800004720688
1779999122884995800,4.061995849609375,9.80395221710205,0.09730099886655807,-0.11685200035572052
1779999122902272500,4.0792724609375,9.803677558898926,0.09716299921274185,-0.12730799615383148
1779999122919549200,4.096549072265625,9.803569793701172,0.09717799723148346,-0.13970500230789185
1779999122936826000,4.113826171875,9.80361557006836,0.09673299640417099,-0.1469469964504242
1779999122954102800,4.131102783203125,9.80359935760498,0.09624399989843369,-0.14471900463104248
1779999122971379500,4.14837939453125,9.803601264953613,0.09606199711561203,-0.13392400741577148
1779999122988655900,4.16565576171875,9.803839683532715,0.09547500312328339,-0.12041900306940079
1779999123005932500,4.1829326171875,9.804113388061523,0.09488700330257416,-0.11216600239276886
1779999123023209500,4.20020947265625,9.804048538208008,0.09456299990415573,-0.11403100192546844
1779999123040486100,4.217486083984375,9.80377197265625,0.09416099637746811,-0.12470699846744537
1779999123057762800,4.2347626953125,9.803656578063965,0.09398700296878815,-0.13763000071048737
1779999123075039200,4.252039306640625,9.80370807647705,0.09318900108337402,-0.14567700028419495
1779999123092316200,4.269316162109375,9.803707122802734,0.09233800321817398,-0.1445460021495819
1779999123109592800,4.2865927734375,9.803709983825684,0.09181000292301178,-0.13492099940776825
1779999123126869500,4.303869384765625,9.803930282592773,0.09098199754953384,-0.12237100303173065
1779999123144146200,4.321146240234375,9.804186820983887,0.09021899849176407,-0.11451099812984467
1779999123161422800,4.3384228515625,9.804133415222168,0.08979500085115433,-0.11617200076580048
1779999123178699500,4.355699462890625,9.80386734008789,0.08945299685001373,-0.12630900740623474
1779999123195976200,4.37297607421875,9.803750038146973,0.08939599990844727,-0.13863199949264526
1779999123213252900,4.3902529296875,9.803791046142578,0.08883199840784073,-0.14622600376605988
1779999123230529500,4.407529541015625,9.803784370422363,0.08825699985027313,-0.14477500319480896
1779999123247806200,4.42480615234375,9.803787231445312,0.08789899945259094,-0.13496099412441254
1779999123265083000,4.442082763671875,9.80400276184082,0.08724000304937363,-0.12221299856901169
1779999123282359600,4.459359619140625,9.804264068603516,0.08653800189495087,-0.11411099880933762
1779999123299636200,4.47663623046875,9.804218292236328,0.08605699986219406,-0.11554999649524689
1779999123316913000,4.493912841796875,9.803954124450684,0.08561299741268158,-0.1256520003080368
1779999123334189800,4.51118994140625,9.803831100463867,0.08530399948358536,-0.13821600377559662
1779999123351466200,4.52846630859375,9.803873062133789,0.08448100090026855,-0.1463170051574707
1779999123368743000,4.545742919921875,9.803874969482422,0.08361999690532684,-0.14559899270534515
1779999123386019600,4.56301953125,9.803879737854004,0.08287200331687927,-0.13654999434947968
1779999123403296300,4.580296142578125,9.804085731506348,0.08195099979639053,-0.12443199753761292
1779999123420573200,4.5975732421875,9.80433464050293,0.08097899705171585,-0.11666200309991837
1779999123437849600,4.614849609375,9.804290771484375,0.0803299993276596,-0.11808600276708603
1779999123455126300,4.632126220703125,9.80402946472168,0.07975099980831146,-0.1279599964618683
1779999123472403000,4.64940283203125,9.803900718688965,0.07936300337314606,-0.14035700261592865
1779999123489679600,4.6666796875,9.803936004638672,0.07858400046825409,-0.14850500226020813
1779999123506956500,4.68395654296875,9.803939819335938,0.07776899635791779,-0.1480100005865097
1779999123524233200,4.701233154296875,9.803945541381836,0.07713200151920319,-0.13927899301052094
1779999123541510000,4.718510009765625,9.804144859313965,0.07637699693441391,-0.1273529976606369
1779999123558786600,4.73578662109375,9.804394721984863,0.07556899636983871,-0.11945299804210663
1779999123576063200,4.753063232421875,9.804364204406738,0.0750809982419014,-0.12042500078678131
1779999123601978000,4.77897802734375,9.804025650024414,0.07473699748516083,-0.13563799858093262
1779999123619255000,4.796255126953125,9.803991317749023,0.07441999763250351,-0.14611800014972687
1779999123636531700,4.81353173828125,9.804019927978516,0.07392500340938568,-0.14978699386119843
1779999123653808400,4.830808349609375,9.803997993469238,0.07354199886322021,-0.14445500075817108
1779999123671084800,4.848084716796875,9.804086685180664,0.07324600219726562,-0.1329060047864914
1779999123688361700,4.86536181640625,9.804354667663574,0.07267100363969803,-0.12176799774169922
1779999123705638400,4.882638427734375,9.804505348205566,0.0723629966378212,-0.11746499687433243
1779999123722915000,4.8999150390625,9.80434513092041,0.07207600027322769,-0.12251699715852737
1779999123740191700,4.917191650390625,9.80412769317627,0.07200299948453903,-0.13355299830436707
1779999123757468400,4.934468505859375,9.804093360900879,0.07156600058078766,-0.1439570039510727
1779999123774745000,4.9517451171875,9.804123878479004,0.07087100297212601,-0.14792099595069885
1779999123792021800,4.969021728515625,9.804106712341309,0.07036799937486649,-0.1434600055217743
1779999123809298400,4.98629833984375,9.804186820983887,0.06983699649572372,-0.13320699334144592
1779999123826575000,5.0035751953125,9.804427146911621,0.06895100325345993,-0.12323299795389175
1779999123843852000,5.02085205078125,9.804553031921387,0.06832200288772583,-0.1196179986000061
1779999123861128400,5.03812841796875,9.804394721984863,0.06777600198984146,-0.12474899739027023
1779999123878405400,5.0554052734375,9.804182052612305,0.06753099709749222,-0.13558299839496613
1779999123895681800,5.072681884765625,9.804141998291016,0.06708499789237976,-0.14599600434303284
1779999123912958500,5.08995849609375,9.804169654846191,0.06636100262403488,-0.15016299486160278
1779999123930235400,5.1072353515625,9.804157257080078,0.0655289962887764,-0.14576199650764465
1779999123947512000,5.124511962890625,9.804243087768555,0.06486699730157852,-0.13539400696754456
1779999123964788700,5.141788818359375,9.804484367370605,0.0638590008020401,-0.12529000639915466
1779999123982065400,5.1590654296875,9.804612159729004,0.06309700012207031,-0.12161900103092194
1779999123999342000,5.176342041015625,9.804451942443848,0.06238099932670593,-0.1268160045146942
1779999124016618800,5.19361865234375,9.80423355102539,0.06183300167322159,-0.13784199953079224
1779999124033895400,5.2108955078125,9.80418586730957,0.06103700026869774,-0.1486160010099411
1779999124051172000,5.228172119140625,9.804215431213379,0.0599219985306263,-0.1534149944782257
1779999124068448800,5.24544873046875,9.804211616516113,0.05886700004339218,-0.1498979926109314
1779999124085725400,5.262725341796875,9.804293632507324,0.05784599855542183,-0.14045700430870056
1779999124103002000,5.280002197265625,9.804518699645996,0.0565360002219677,-0.1311739981174469
1779999124120278800,5.29727880859375,9.804631233215332,0.05534899979829788,-0.12799200415611267
1779999124137555500,5.314555419921875,9.804468154907227,0.05429700016975403,-0.13326600193977356
1779999124154832100,5.33183203125,9.804247856140137,0.053495001047849655,-0.14413699507713318
1779999124172108800,5.34910888671875,9.804189682006836,0.052473001182079315,-0.1547199934720993
1779999124189385500,5.366385498046875,9.804215431213379,0.05125899985432625,-0.15954400599002838
1779999124206662100,5.383662109375,9.804213523864746,0.050009001046419144,-0.1563359946012497
1779999124223939000,5.40093896484375,9.804300308227539,0.04885999858379364,-0.14732900261878967
1779999124241215700,5.4182158203125,9.804520606994629,0.04765599966049194,-0.1382409930229187
1779999124258492200,5.4354921875,9.804635047912598,0.04658599942922592,-0.13501900434494019
1779999124275768800,5.452768798828125,9.804479598999023,0.04576599970459938,-0.13994500041007996
1779999124293045800,5.470045654296875,9.804264068603516,0.045187000185251236,-0.15020500123500824
1779999124310322400,5.487322509765625,9.80419921875,0.04467000067234039,-0.1600780040025711
1779999124327598800,5.504598876953125,9.80421257019043,0.04400400072336197,-0.16418500244617462
1779999124344875500,5.52187548828125,9.804210662841797,0.04338100180029869,-0.16032099723815918
1779999124362152400,5.53915234375,9.804301261901855,0.04281900078058243,-0.1507059931755066
1779999124379429000,5.55642919921875,9.804535865783691,0.042155999690294266,-0.1409430056810379
1779999124396705800,5.573705810546875,9.804667472839355,0.04158199951052666,-0.13708500564098358
1779999124413982500,5.590982421875,9.804525375366211,0.04116300120949745,-0.14149799942970276
1779999124431259100,5.608259033203125,9.804312705993652,0.040922001004219055,-0.15146100521087646
1779999124448535800,5.625535888671875,9.804243087768555,0.04053699970245361,-0.16125699877738953
1779999124465812500,5.6428125,9.804254531860352,0.03996099904179573,-0.16549499332904816
1779999124483089200,5.660089111328125,9.804251670837402,0.03935299813747406,-0.16192400455474854
1779999124500365800,5.67736572265625,9.804339408874512,0.03876899927854538,-0.15271100401878357
1779999124517642500,5.694642578125,9.804564476013184,0.0381149984896183,-0.1432269960641861
1779999124534919200,5.711919189453125,9.80469799041748,0.03751099854707718,-0.1392589956521988
1779999124552195800,5.72919580078125,9.804574966430664,0.03703799843788147,-0.14319400489330292
1779999124569472500,5.746472412109375,9.80437183380127,0.036674998700618744,-0.15258200466632843
1779999124586749400,5.76374951171875,9.804299354553223,0.03618299961090088,-0.1620510071516037
1779999124604025900,5.78102587890625,9.80430793762207,0.035468000918626785,-0.16642199456691742
1779999124621302800,5.798302734375,9.804309844970703,0.03470199927687645,-0.16337600350379944
1779999124638579500,5.815579345703125,9.804393768310547,0.033980999141931534,-0.15479199588298798
1779999124655856000,5.832856201171875,9.804604530334473,0.03309499844908714,-0.14586499333381653
1779999124673132800,5.8501328125,9.804729461669922,0.03226599842309952,-0.14222699403762817
1779999124690409500,5.867409423828125,9.804598808288574,0.03160800039768219,-0.14630000293254852
1779999124707686100,5.88468603515625,9.804394721984863,0.031120000407099724,-0.1557140052318573
1779999124724962800,5.901962890625,9.804315567016602,0.030546000227332115,-0.16516299545764923
1779999124742239500,5.919239501953125,9.804320335388184,0.029791999608278275,-0.169514000415802
1779999124759516200,5.93651611328125,9.804323196411133,0.029040999710559845,-0.16651399433612823
1779999124776792800,5.953792724609375,9.80440902709961,0.02833300083875656,-0.15806099772453308
1779999124794069800,5.97106982421875,9.80461597442627,0.027577999979257584,-0.14924100041389465
1779999124811346200,5.98834619140625,9.80473804473877,0.02688799984753132,-0.14555500447750092
1779999124828622800,6.005622802734375,9.804619789123535,0.026381999254226685,-0.14935100078582764
1779999124845899500,6.0228994140625,9.804421424865723,0.02603299915790558,-0.15831899642944336
1779999124863176400,6.040176513671875,9.804340362548828,0.025613000616431236,-0.16739200055599213
1779999124880453000,6.057453125,9.804340362548828,0.02504199929535389,-0.17160500586032867
1779999124897729800,6.074729736328125,9.80434513092041,0.024393999949097633,-0.16874699294567108
1779999124915006500,6.09200634765625,9.804429054260254,0.02382499910891056,-0.16056600213050842
1779999124932283100,6.109283203125,9.804631233215332,0.023221999406814575,-0.15189999341964722
1779999124949559800,6.126559814453125,9.804755210876465,0.02267399989068508,-0.1480959951877594
1779999124966836500,6.14383642578125,9.804647445678711,0.02229500003159046,-0.15156300365924835
1779999124984113200,6.161113037109375,9.80445671081543,0.022052999585866928,-0.16017700731754303
1779999125001389800,6.178389892578125,9.804370880126953,0.021748000755906105,-0.16895100474357605
1779999125018666800,6.195666748046875,9.80436897277832,0.0213019996881485,-0.17298799753189087
1779999125035943200,6.212943115234375,9.804373741149902,0.020827999338507652,-0.1701049953699112
1779999125053220000,6.23022021484375,9.804457664489746,0.020401999354362488,-0.1620209962129593
1779999125070496500,6.24749658203125,9.804657936096191,0.01990099996328354,-0.15339499711990356
1779999125087773400,6.2647734375,9.804787635803223,0.019457999616861343,-0.14940699934959412
1779999125105050000,6.282050048828125,9.804693222045898,0.019176000729203224,-0.15241999924182892
1779999125122326500,6.299326416015625,9.80451488494873,0.019039999693632126,-0.16044600307941437
1779999125139603500,6.316603515625,9.804431915283203,0.01876799948513508,-0.168723002076149
1779999125156880100,6.333880126953125,9.804428100585938,0.01832599937915802,-0.17251700162887573
1779999125174156800,6.35115673828125,9.804433822631836,0.01776999980211258,-0.16964000463485718
1779999125191433500,6.36843359375,9.80451774597168,0.017191000282764435,-0.16176100075244904
1779999125208710100,6.385710205078125,9.804705619812012,0.016566000878810883,-0.15353800356388092
1779999125225986800,6.40298681640625,9.804818153381348,0.01590999960899353,-0.15000799298286438
1779999125243263500,6.420263427734375,9.804712295532227,0.015407999977469444,-0.1534159928560257
1779999125260540200,6.4375400390625,9.804525375366211,0.015017000027000904,-0.16175700724124908
1779999125277816800,6.45481689453125,9.804437637329102,0.014550999738276005,-0.17036600410938263
1779999125295093500,6.472093505859375,9.80443000793457,0.013957999646663666,-0.17454999685287476
1779999125312370400,6.489370361328125,9.804436683654785,0.01329800020903349,-0.17215999960899353
1779999125329646800,6.506646728515625,9.804515838623047,0.01269300002604723,-0.16478599607944489
1779999125346923800,6.523923828125,9.804696083068848,0.012040000408887863,-0.15687400102615356
1779999125364200200,6.5412001953125,9.804808616638184,0.011474999599158764,-0.15332500636577606
1779999125381477000,6.55847705078125,9.80471134185791,0.011079000309109688,-0.15646199882030487
1779999125398753800,6.57575390625,9.80453109741211,0.010836999863386154,-0.1644120067358017
1779999125416030500,6.593030517578125,9.804441452026367,0.010533000342547894,-0.1726129949092865
1779999125433307000,6.610306884765625,9.804430961608887,0.010103000327944756,-0.1765100061893463
1779999125450583800,6.627583740234375,9.804441452026367,0.009638999588787556,-0.17396500706672668
1779999125467860500,6.644860595703125,9.804521560668945,0.009170000441372395,-0.166484996676445
1779999125485137200,6.66213720703125,9.804702758789062,0.008685000240802765,-0.15847299993038177
1779999125502413800,6.679413818359375,9.804818153381348,0.00821600016206503,-0.15479500591754913
1779999125519690200,6.696690185546875,9.804726600646973,0.007885999977588654,-0.15772399306297302
1779999125536967200,6.71396728515625,9.804551124572754,0.007693000137805939,-0.16547399759292603
1779999125554243800,6.731243896484375,9.804458618164062,0.007387999910861254,-0.1735920011997223
1779999125571520500,6.7485205078125,9.804445266723633,0.006951000075787306,-0.17754100263118744
1779999125588797400,6.76579736328125,9.804452896118164,0.006438999902456999,-0.1751980036497116
1779999125606073900,6.783073974609375,9.804532051086426,0.005944000091403723,-0.1680230051279068
1779999125623350500,6.8003505859375,9.804707527160645,0.005365999881178141,-0.16020500659942627
1779999125640627200,6.817627197265625,9.80482292175293,0.004834999796003103,-0.15647999942302704
1779999125657903900,6.83490380859375,9.804742813110352,0.004453999921679497,-0.15912100672721863
1779999125675180800,6.852180908203125,9.804571151733398,0.00420599989593029,-0.1665019989013672
1779999125692457500,6.86945751953125,9.804478645324707,0.0038769999518990517,-0.17435799539089203
1779999125709734100,6.886734130859375,9.804465293884277,0.0033889999613165855,-0.17824600636959076
1779999125727010800,6.9040107421875,9.804472923278809,0.002827000105753541,-0.1760690063238144
1779999125744287500,6.92128759765625,9.804549217224121,0.0022730000782757998,-0.16916599869728088
1779999125761564200,6.938564208984375,9.804717063903809,0.0016749999485909939,-0.16166000068187714
1779999125778840800,6.9558408203125,9.804825782775879,0.0011050000321120024,-0.1581069976091385
1779999125796117800,6.97311767578125,9.804744720458984,0.0006970000104047358,-0.16073699295520782
1779999125813394200,6.990394287109375,9.80457878112793,0.0004020000051241368,-0.1679379940032959
1779999125830670800,7.0076708984375,9.804485321044922,0.0000670000008540228,-0.17561699450016022
1779999125847947500,7.024947509765625,9.804468154907227,-0.000371000001905486,-0.17944499850273132
1779999125865224200,7.04222412109375,9.80447769165039,-0.0008619999862276018,-0.17731399834156036
1779999125882501000,7.059501220703125,9.804553031921387,-0.0013259999686852098,-0.170523002743721
1779999125899777800,7.07677783203125,9.804718971252441,-0.001829999964684248,-0.16305099427700043
1779999125917054500,7.094054443359375,9.804830551147461,-0.0023399998899549246,-0.15938499569892883
1779999125934331000,7.111330810546875,9.804757118225098,-0.002722000004723668,-0.1617950052022934
1779999125951607800,7.12860791015625,9.804594039916992,-0.002964999992400408,-0.1688150018453598
1779999125968884500,7.145884521484375,9.804498672485352,-0.003280000062659383,-0.17639799416065216
1779999125986161200,7.1631611328125,9.804479598999023,-0.003737000050023198,-0.18030999600887299
1779999126003437800,7.180437744140625,9.804488182067871,-0.004273999948054552,-0.17841100692749023
1779999126020714500,7.197714599609375,9.804561614990234,-0.004821000155061483,-0.17188400030136108
1779999126037991200,7.2149912109375,9.804720878601074,-0.005394000094383955,-0.1646299958229065
1779999126055267800,7.232267822265625,9.804827690124512,-0.005903999786823988,-0.16105300188064575
1779999126072544500,7.24954443359375,9.804755210876465,-0.006275000050663948,-0.1633860021829605
1779999126089821400,7.266821533203125,9.804597854614258,-0.00648800004273653,-0.17020800709724426
1779999126107097900,7.284097900390625,9.804500579833984,-0.006767999846488237,-0.17762300372123718
1779999126124374800,7.301374755859375,9.804478645324707,-0.0071299998089671135,-0.18147799372673035
1779999126141651200,7.318651123046875,9.804488182067871,-0.007540000136941671,-0.17968399822711945
1779999126158928000,7.335927978515625,9.80456256866455,-0.007939999923110008,-0.17334499955177307
1779999126176204800,7.353204833984375,9.804718971252441,-0.008376999758183956,-0.16618600487709045
1779999126193481500,7.3704814453125,9.804824829101562,-0.00880299974232912,-0.16255499422550201
1779999126210758000,7.3877578125,9.804760932922363,-0.009128999896347523,-0.1646919995546341
1779999126228034600,7.40503466796875,9.804604530334473,-0.009351000189781189,-0.17128999531269073
1779999126253949700,7.43094970703125,9.80449104309082,-0.009796000085771084,-0.18111799657344818
1779999126271226400,7.448226318359375,9.804486274719238,-0.010235999710857868,-0.18233199417591095
1779999126288503300,7.46550341796875,9.804516792297363,-0.010714000090956688,-0.17818400263786316
1779999126305779700,7.48277978515625,9.804635047912598,-0.011142999865114689,-0.17114299535751343
1779999126323056600,7.500056640625,9.804783821105957,-0.011606000363826752,-0.16544200479984283
1779999126340333000,7.5173330078125,9.804810523986816,-0.011944999918341637,-0.16452300548553467
1779999126357610000,7.53460986328125,9.804689407348633,-0.012140000239014626,-0.16896900534629822
1779999126374886700,7.55188671875,9.804556846618652,-0.01223399955779314,-0.17603799700737
1779999126392163300,7.569163330078125,9.804503440856934,-0.012469000183045864,-0.1816750019788742
1779999126409440000,7.58643994140625,9.804498672485352,-0.012775000184774399,-0.1826619952917099
1779999126426716700,7.603716552734375,9.804532051086426,-0.013132999651134014,-0.17839699983596802
1779999126443993300,7.620993408203125,9.80465030670166,-0.013478999957442284,-0.17124000191688538
1779999126461270000,7.63827001953125,9.804800033569336,-0.013907999731600285,-0.1654369980096817
1779999126478546700,7.655546630859375,9.804830551147461,-0.014210999943315983,-0.16441600024700165
1779999126495823600,7.67282373046875,9.804713249206543,-0.014413000084459782,-0.16875000298023224
1779999126513100000,7.69010009765625,9.804580688476562,-0.014554999768733978,-0.17575499415397644
1779999126530376700,7.707376708984375,9.804525375366211,-0.014826999977231026,-0.18145599961280823
1779999126547653400,7.7246533203125,9.804518699645996,-0.015197999775409698,-0.18269500136375427
1779999126564930000,7.741929931640625,9.804549217224121,-0.015623999759554863,-0.17891299724578857
1779999126582207000,7.75920703125,9.804657936096191,-0.015970999374985695,-0.17228999733924866
1779999126599483400,7.7764833984375,9.804800987243652,-0.016303999349474907,-0.1666399985551834
1779999126616760000,7.793760009765625,9.804840087890625,-0.016586000099778175,-0.16534699499607086
1779999126634036700,7.81103662109375,9.804736137390137,-0.016746999695897102,-0.1691790074110031
1779999126651313700,7.828313720703125,9.804611206054688,-0.016853999346494675,-0.17579099535942078
1779999126668590300,7.84559033203125,9.804553031921387,-0.017190000042319298,-0.18141299486160278
1779999126685867000,7.862866943359375,9.804545402526855,-0.01763099990785122,-0.18282699584960938
1779999126703143700,7.880143798828125,9.804574012756348,-0.018133999779820442,-0.17926399409770966
1779999126720420400,7.89742041015625,9.804678916931152,-0.018686000257730484,-0.17284199595451355
1779999126737697000,7.914697021484375,9.804816246032715,-0.019329000264406204,-0.16742800176143646
1779999126754973700,7.9319736328125,9.804849624633789,-0.019864000380039215,-0.16628199815750122
1779999126772250400,7.94925048828125,9.8047456741333,-0.02027600072324276,-0.17008699476718903
1779999126789527000,7.966527099609375,9.804624557495117,-0.020493999123573303,-0.17643800377845764
1779999126806803700,7.9838037109375,9.804569244384766,-0.020746000111103058,-0.18169400095939636
1779999126824080400,8.001080322265626,9.80456256866455,-0.021074000746011734,-0.18279099464416504
1779999126841357000,8.018357177734375,9.804594039916992,-0.021448999643325806,-0.17916500568389893
1779999126858633700,8.0356337890625,9.804696083068848,-0.021815000101923943,-0.1729000061750412
1779999126875910400,8.052910400390624,9.804827690124512,-0.022205999121069908,-0.1675969958305359
1779999126893187300,8.070187255859375,9.804861068725586,-0.022571999579668045,-0.16641299426555634
1779999126910464000,8.087464111328124,9.804764747619629,-0.022835999727249146,-0.1700119972229004
1779999126927740400,8.104740478515625,9.804648399353027,-0.023037999868392944,-0.17614400386810303
1779999126945017000,8.12201708984375,9.80459213256836,-0.02333199977874756,-0.18129600584506989
1779999126962294000,8.1392939453125,9.804582595825195,-0.023749999701976776,-0.18251299858093262
1779999126979570700,8.15657080078125,9.804612159729004,-0.024248000234365463,-0.17916299402713776
1779999126996847400,8.173847412109374,9.804707527160645,-0.02472200058400631,-0.17321600019931793
1779999127014124000,8.1911240234375,9.80483341217041,-0.02522299997508526,-0.16817300021648407
1779999127031400700,8.208400634765624,9.804862022399902,-0.025676000863313675,-0.16712599992752075
1779999127048677400,8.225677490234375,9.804763793945312,-0.026041999459266663,-0.17076599597930908
1779999127065954000,8.2429541015625,9.804644584655762,-0.026316000148653984,-0.1769540011882782
1779999127083230700,8.260230712890625,9.804585456848145,-0.026690000668168068,-0.1822350025177002
1779999127100507400,8.27750732421875,9.804574012756348,-0.027149999514222145,-0.1835860013961792
1779999127117784300,8.294784423828125,9.804604530334473,-0.02765900082886219,-0.18027600646018982
1779999127135061000,8.31206103515625,9.804702758789062,-0.02807600051164627,-0.17423200607299805
1779999127152337700,8.329337646484374,9.804830551147461,-0.028415000066161156,-0.16895900666713715
1779999127169614300,8.3466142578125,9.80487060546875,-0.02867799997329712,-0.16756199300289154
1779999127186891000,8.36389111328125,9.80478572845459,-0.028829999268054962,-0.170742005109787
1779999127204167700,8.381167724609375,9.80467700958252,-0.028903000056743622,-0.17639599740505219
1779999127221444400,8.3984443359375,9.804622650146484,-0.029027000069618225,-0.18118299543857574
1779999127238721000,8.415720947265624,9.804614067077637,-0.02924099937081337,-0.18227000534534454
1779999127255998000,8.432998046875,9.804643630981445,-0.029532000422477722,-0.17903000116348267
1779999127273274400,8.4502744140625,9.804736137390137,-0.029924999922513962,-0.17326700687408447
1779999127290551000,8.467551025390625,9.804856300354004,-0.030427999794483185,-0.16826899349689484
1779999127307827700,8.48482763671875,9.804887771606445,-0.03092299960553646,-0.16704300045967102
1779999127325104600,8.502104736328125,9.804800033569336,-0.03137600049376488,-0.17035800218582153
1779999127342381000,8.519381103515625,9.804683685302734,-0.031780000776052475,-0.17628799378871918
1779999127359657700,8.53665771484375,9.804619789123535,-0.0323759987950325,-0.1815659999847412
1779999127376934400,8.553934326171875,9.804604530334473,-0.033094000071287155,-0.18329699337482452
1779999127394211300,8.57121142578125,9.804627418518066,-0.03384700044989586,-0.1807049959897995
1779999127411488000,8.588488037109375,9.804709434509277,-0.03447800129652023,-0.17553000152111053
1779999127428764400,8.605764404296876,9.804814338684082,-0.03504300117492676,-0.17101900279521942
1779999127446041000,8.623041015625,9.804842948913574,-0.03548400104045868,-0.16999299824237823
1779999127463317800,8.64031787109375,9.804759979248047,-0.03574800118803978,-0.17312300205230713
1779999127480594700,8.6575947265625,9.804656028747559,-0.03583399951457977,-0.17841599881649017
1779999127497871400,8.674871337890625,9.80460262298584,-0.03585800155997276,-0.1827390044927597
1779999127515148000,8.69214794921875,9.804596900939941,-0.03591100126504898,-0.18355900049209595
1779999127532424700,8.7094248046875,9.804627418518066,-0.03604400157928467,-0.18038299679756165
1779999127549701400,8.726701416015626,9.804717063903809,-0.0362199991941452,-0.17486999928951263
1779999127566978000,8.74397802734375,9.804828643798828,-0.03646299988031387,-0.1701270043849945
1779999127584254700,8.761254638671875,9.80486011505127,-0.03671500086784363,-0.16894499957561493
1779999127601531400,8.778531494140625,9.804780006408691,-0.036935001611709595,-0.1720159947872162
1779999127618807800,8.795807861328125,9.804671287536621,-0.0371210016310215,-0.17758099734783173
1779999127636084700,8.813084716796874,9.804608345031738,-0.03747500106692314,-0.18250900506973267
1779999127653361400,8.830361328125,9.804593086242676,-0.037911999970674515,-0.18400000035762787
1779999127670638000,8.84763818359375,9.804619789123535,-0.038391001522541046,-0.1813340038061142
1779999127687915000,8.8649150390625,9.804701805114746,-0.03882100060582161,-0.1761859953403473
1779999127705191400,8.88219140625,9.80480670928955,-0.03924499824643135,-0.17164500057697296
1779999127722468000,8.899468017578124,9.804838180541992,-0.0396139994263649,-0.17049899697303772
1779999127739744800,8.916744873046875,9.804759979248047,-0.03985999897122383,-0.17346100509166718
1779999127757021700,8.934021728515624,9.80465316772461,-0.03999900072813034,-0.17873400449752808
1779999127774298400,8.95129833984375,9.804595947265625,-0.0401649996638298,-0.18329200148582458
1779999127791574800,8.96857470703125,9.804583549499512,-0.040410999208688736,-0.18453800678253174
1779999127808851700,8.985851806640625,9.804611206054688,-0.04069000110030174,-0.1818230003118515
1779999127826128100,9.003128173828125,9.804693222045898,-0.040980998426675797,-0.17667199671268463
1779999127843405000,9.020405029296874,9.804800987243652,-0.041269998997449875,-0.17204099893569946
1779999127860681700,9.037681640625,9.804839134216309,-0.04154900088906288,-0.17065200209617615
1779999127877958400,9.05495849609375,9.804770469665527,-0.041749000549316406,-0.17324300110340118
1779999127895234800,9.07223486328125,9.804671287536621,-0.0418969988822937,-0.17821699380874634
1779999127912511700,9.08951171875,9.804612159729004,-0.042142998427152634,-0.18273599445819855
1779999127929788400,9.106788330078125,9.804597854614258,-0.042475998401641846,-0.18418799340724945
1779999127947065000,9.124065185546876,9.804620742797852,-0.04288399964570999,-0.1818230003118515
1779999127964341800,9.141341796875,9.804696083068848,-0.04328500106930733,-0.17708000540733337
1779999127981618700,9.15861865234375,9.804793357849121,-0.043703000992536545,-0.17282600700855255
1779999127998895000,9.17589501953125,9.80482292175293,-0.04406299814581871,-0.17170800268650055
1779999128016172000,9.193172119140625,9.80474853515625,-0.04433999955654144,-0.17450299859046936
1779999128033448400,9.210448486328126,9.804645538330078,-0.04452100023627281,-0.17956699430942535
1779999128050725400,9.227725341796875,9.804587364196777,-0.0447550006210804,-0.18403999507427216
1779999128068002000,9.245001953125,9.804574966430664,-0.04505300149321556,-0.18535299599170685
1779999128085278700,9.26227880859375,9.804598808288574,-0.04537099972367287,-0.18281500041484833
1779999128102555400,9.279555419921875,9.804677963256836,-0.04564199969172478,-0.17789800465106964
1779999128119832000,9.29683203125,9.804780960083008,-0.04591599851846695,-0.17340999841690063
1779999128137109000,9.31410888671875,9.80482006072998,-0.04613799974322319,-0.17198799550533295
1779999128154385400,9.331385498046876,9.804757118225098,-0.04627000167965889,-0.1744060069322586
1779999128171662000,9.348662109375,9.804661750793457,-0.04631200060248375,-0.17911699414253235
1779999128188939000,9.36593896484375,9.804604530334473,-0.04638399928808212,-0.18336600065231323
1779999128206215400,9.38321533203125,9.804591178894043,-0.04654400050640106,-0.18466800451278687
1779999128223492000,9.4004921875,9.80461597442627,-0.04678399860858917,-0.18231900036334991
1779999128240768800,9.417768798828124,9.804691314697266,-0.04703599959611893,-0.17769299447536469
1779999128258045400,9.43504541015625,9.804784774780273,-0.047293998301029205,-0.17348100244998932
1779999128275322000,9.452322021484376,9.804818153381348,-0.04754599928855896,-0.1722320020198822
1779999128292599000,9.46959912109375,9.804753303527832,-0.04772200062870979,-0.17473100125789642
1779999128309875500,9.48687548828125,9.804656028747559,-0.047853000462055206,-0.17952099442481995
1779999128327152400,9.50415234375,9.804595947265625,-0.04802799969911575,-0.1838569939136505
1779999128344429000,9.521428955078125,9.804582595825195,-0.0482960008084774,-0.18509599566459656
1779999128361705700,9.538705810546874,9.804608345031738,-0.048615001142024994,-0.1826079934835434
1779999128378982400,9.555982421875,9.804683685302734,-0.04889500141143799,-0.17780500650405884
1779999128396259300,9.57325927734375,9.804783821105957,-0.04922100156545639,-0.1733669936656952
1779999128413536000,9.590535888671875,9.804824829101562,-0.04951300099492073,-0.17182600498199463
1779999128430812700,9.607812744140626,9.804768562316895,-0.049740999937057495,-0.1739410012960434
1779999128448089300,9.62508935546875,9.804678916931152,-0.049897000193595886,-0.17836399376392365
1779999128465365800,9.64236572265625,9.804620742797852,-0.05007899925112724,-0.18250900506973267
1779999128482642700,9.659642578125,9.804607391357422,-0.050296999514102936,-0.18377600610256195
1779999128499919400,9.67691943359375,9.804630279541016,-0.050581999123096466,-0.1813810020685196
1779999128517195800,9.69419580078125,9.804705619812012,-0.05086899921298027,-0.17660599946975708
1779999128534472700,9.71147265625,9.804805755615234,-0.05111100152134895,-0.17213299870491028
1779999128551749400,9.728749267578126,9.804842948913574,-0.05137199908494949,-0.1706179976463318
1779999128569026000,9.746026123046875,9.804788589477539,-0.051566001027822495,-0.1728059947490692
1779999128586302500,9.763302490234375,9.80469799041748,-0.051722001284360886,-0.17728200554847717
1779999128603579400,9.780579345703124,9.804636001586914,-0.05196100100874901,-0.18151900172233582
1779999128620856000,9.79785595703125,9.804619789123535,-0.05226000025868416,-0.18302300572395325
1779999128638132700,9.8151328125,9.804640769958496,-0.05260799825191498,-0.1809989959001541
1779999128655409400,9.832409423828125,9.804707527160645,-0.05295199900865555,-0.17655600607395172
1779999128672686300,9.849686279296876,9.804800033569336,-0.05329800024628639,-0.17225299775600433
1779999128689962800,9.866962646484374,9.804841995239258,-0.05362600088119507,-0.17059999704360962
1779999128707239400,9.884239501953125,9.804794311523438,-0.05389999970793724,-0.1724659949541092
1779999128724516400,9.901516357421874,9.804707527160645,-0.05406299978494644,-0.17665499448776245
1779999128741793000,9.91879296875,9.804651260375977,-0.054260000586509705,-0.18069900572299957
1779999128759069700,9.936069580078126,9.804635047912598,-0.05449799820780754,-0.1821029931306839
1779999128776346400,9.953346435546875,9.804656028747559,-0.05480499938130379,-0.18010999262332916
1779999128793623000,9.970623046875,9.804720878601074,-0.055135998874902725,-0.17576399445533752
1779999128810900000,9.98789990234375,9.80481243133545,-0.055424999445676804,-0.1714940071105957
1779999128828176400,10.00517626953125,9.804855346679688,-0.055695999413728714,-0.16978199779987335
1779999128845453000,10.022453125,9.80481243133545,-0.055907998234033585,-0.1714950054883957
1779999128862729700,10.039729736328125,9.804729461669922,-0.05611800029873848,-0.17547999322414398
1779999128880006700,10.057006591796876,9.804671287536621,-0.05640900135040283,-0.17946100234985352
1779999128897283300,10.074283447265625,9.804652214050293,-0.05672699958086014,-0.18106499314308167
1779999128914560000,10.09156005859375,9.804668426513672,-0.05707100033760071,-0.1794459968805313
1779999128931837000,10.1088369140625,9.804729461669922,-0.05743199959397316,-0.17558300495147705
1779999128949113300,10.12611328125,9.804807662963867,-0.057806000113487244,-0.17174699902534485
1779999128966390000,10.14339013671875,9.80484390258789,-0.05814399942755699,-0.17025700211524963
1779999128983666700,10.160666748046875,9.804800033569336,-0.058407001197338104,-0.17195500433444977
1779999129000943400,10.177943359375,9.80472183227539,-0.0585860013961792,-0.17579999566078186
1779999129018220300,10.19522021484375,9.804667472839355,-0.058743998408317566,-0.1795949935913086
1779999129044135400,10.221135498046875,9.804654121398926,-0.059098999947309494,-0.18051999807357788
1779999129061411800,10.238411865234376,9.804692268371582,-0.05931499972939491,-0.17741799354553223
1779999129078688500,10.2556884765625,9.804773330688477,-0.05952500179409981,-0.17301200330257416
1779999129095965200,10.272965087890626,9.804845809936523,-0.05969800055027008,-0.16988599300384521
1779999129113241900,10.290241943359375,9.80484676361084,-0.059829000383615494,-0.16980800032615662
1779999129130518500,10.3075185546875,9.804783821105957,-0.05986399948596954,-0.1726509928703308
1779999129156433700,10.33343359375,9.804691314697266,-0.06008800119161606,-0.17831499874591827
1779999129173710300,10.35071044921875,9.804675102233887,-0.06032099947333336,-0.17966200411319733
1779999129190987000,10.367987060546875,9.804691314697266,-0.06063200160861015,-0.177948996424675
1779999129208264000,10.385263916015624,9.804750442504883,-0.06094399839639664,-0.17409400641918182
1779999129225540400,10.402540283203125,9.804828643798828,-0.06122700124979019,-0.17023800313472748
1779999129242817000,10.419817138671876,9.804869651794434,-0.06148200109601021,-0.1685989946126938
1779999129260093700,10.43709375,9.804834365844727,-0.06164199858903885,-0.16999000310897827
1779999129277370600,10.45437060546875,9.804765701293945,-0.06169100105762482,-0.17343999445438385
1779999129294647300,10.471647216796875,9.804716110229492,-0.06170300021767616,-0.176828995347023
1779999129311923700,10.488923828125,9.804703712463379,-0.061767999082803726,-0.17792600393295288
1779999129329200400,10.506200439453124,9.80472469329834,-0.06185699999332428,-0.17600199580192566
1779999129346477000,10.52347705078125,9.80478572845459,-0.06196900084614754,-0.1719149947166443
1779999129363754000,10.54075390625,9.804869651794434,-0.062073998153209686,-0.16789300739765167
1779999129381030700,10.55803076171875,9.804909706115723,-0.0621660016477108,-0.16627299785614014
1779999129398307300,10.575307373046876,9.80487060546875,-0.06219799816608429,-0.1678519994020462
1779999129415584000,10.592583984375,9.804795265197754,-0.062206000089645386,-0.1715800017118454
1779999129432860700,10.609860595703125,9.804743766784668,-0.06231600046157837,-0.17517699301242828
1779999129450137300,10.627137451171874,9.804729461669922,-0.0625,-0.17637400329113007
1779999129467414000,10.6444140625,9.80474853515625,-0.06275399774312973,-0.1743910014629364
1779999129484690700,10.661690673828126,9.8048095703125,-0.0629820004105568,-0.17016999423503876
1779999129501967600,10.678967529296875,9.80489444732666,-0.06316299736499786,-0.1659640073776245
1779999129519244300,10.696244384765626,9.804936408996582,-0.06335300207138062,-0.16414600610733032
1779999129536521000,10.71352099609375,9.804902076721191,-0.06349299848079681,-0.1655369997024536
1779999129553797400,10.73079736328125,9.804827690124512,-0.06360799819231033,-0.16924600303173065
1779999129571074300,10.74807421875,9.804770469665527,-0.06377200037240982,-0.17315100133419037
1779999129588351000,10.76535107421875,9.80474853515625,-0.0639059990644455,-0.17501099407672882
1779999129605627600,10.782627685546874,9.804760932922363,-0.06402400135993958,-0.1739400029182434
1779999129622904300,10.799904296875,9.804807662963867,-0.06413999944925308,-0.17059800028800964
1779999129640181000,10.817180908203126,9.804884910583496,-0.06419800221920013,-0.16675600409507751
1779999129657457700,10.834457763671875,9.804935455322266,-0.06427299976348877,-0.1646060049533844
1779999129674734300,10.851734375,9.804920196533203,-0.06429699808359146,-0.165243998169899
1779999129692011000,10.869010986328124,9.804864883422852,-0.06418599933385849,-0.16811899840831757
1779999129709288000,10.886287841796875,9.804816246032715,-0.06407800316810608,-0.17142200469970703
1779999129726564400,10.903564453125,9.80479907989502,-0.06409800052642822,-0.17297899723052979
1779999129743841000,10.920841064453125,9.80481243133545,-0.06421300023794174,-0.17176200449466705
1779999129761117700,10.93811767578125,9.804859161376953,-0.0644339993596077,-0.16840699315071106
1779999129778394600,10.95539453125,9.804929733276367,-0.06460999697446823,-0.16486699879169464
1779999129795671300,10.97267138671875,9.804965019226074,-0.06470700353384018,-0.16325700283050537
1779999129812948000,10.989947998046874,9.804937362670898,-0.06474299728870392,-0.16445499658584595
1779999129830224600,11.007224609375,9.804874420166016,-0.06480400264263153,-0.16761299967765808
1779999129847501000,11.0245009765625,9.804827690124512,-0.06494300067424774,-0.17080700397491455
1779999129864778000,11.041778076171875,9.80481243133545,-0.06510499864816666,-0.172093003988266
1779999129882054700,11.0590546875,9.804826736450195,-0.06532599776983261,-0.1706639975309372
1779999129899331300,11.076331298828125,9.8048734664917,-0.06553500145673752,-0.16728800535202026
1779999129916608300,11.093608154296875,9.80494213104248,-0.06576800346374512,-0.16373500227928162
1779999129933884700,11.110884765625,9.804980278015137,-0.06601600348949432,-0.16199499368667603
1779999129951161300,11.128161376953125,9.804954528808594,-0.06624499708414078,-0.1629759967327118
1779999129977076500,11.154076416015625,9.804864883422852,-0.06650099903345108,-0.1678609997034073
1779999129994353200,11.171353271484374,9.804827690124512,-0.06670200079679489,-0.17072099447250366
1779999130011629800,11.1886298828125,9.804823875427246,-0.06690599769353867,-0.1711360067129135
1779999130028906500,11.205906494140624,9.804850578308105,-0.0672060027718544,-0.1688079982995987
1779999130046183400,11.223183349609375,9.804909706115723,-0.06754299998283386,-0.16510799527168274
1779999130063459800,11.2404599609375,9.804967880249023,-0.06784799695014954,-0.16223299503326416
1779999130080736500,11.257736572265625,9.804976463317871,-0.06811399757862091,-0.16186299920082092
1779999130098013400,11.275013427734375,9.804926872253418,-0.06827700138092041,-0.16407300531864166
1779999130115289900,11.292289794921874,9.804866790771484,-0.0684560015797615,-0.1674869954586029
1779999130132566800,11.30956689453125,9.804832458496094,-0.06871599704027176,-0.17007200419902802
1779999130149843500,11.326843505859374,9.804826736450195,-0.06898599863052368,-0.1703750044107437
1779999130167120100,11.3441201171875,9.804851531982422,-0.06921699643135071,-0.16825099289417267
1779999130184396800,11.361396728515626,9.804905891418457,-0.06940600275993347,-0.16486799716949463
1779999130201673500,11.378673583984375,9.804963111877441,-0.06951499730348587,-0.16211199760437012
1779999130218950100,11.3959501953125,9.804976463317871,-0.06960000097751617,-0.1615239977836609
1779999130236226800,11.413226806640624,9.804940223693848,-0.06959400326013565,-0.16325999796390533
1779999130253503500,11.43050341796875,9.804888725280762,-0.06954800337553024,-0.16619400680065155
1779999130270780200,11.4477802734375,9.80486011505127,-0.06953900307416916,-0.1684899926185608
1779999130288056800,11.465056884765625,9.80485725402832,-0.06962700188159943,-0.16867999732494354
1779999130305333500,11.48233349609375,9.804884910583496,-0.06978099793195724,-0.16644999384880066
1779999130322610400,11.4996103515625,9.804941177368164,-0.06996999680995941,-0.1629669964313507
1779999130339887000,11.51688720703125,9.8049955368042,-0.07012700289487839,-0.160194993019104
1779999130357163500,11.53416357421875,9.805006980895996,-0.07025200128555298,-0.15970399975776672
1779999130374440200,11.551440185546875,9.80496597290039,-0.07033199816942215,-0.16164100170135498
1779999130391716900,11.568716796875,9.804912567138672,-0.07039400190114975,-0.16478100419044495
1779999130408993800,11.585993896484375,9.804879188537598,-0.07049500197172165,-0.16723500192165375
1779999130426270500,11.6032705078125,9.804874420166016,-0.07061800360679626,-0.16752000153064728
1779999130443547000,11.620546875,9.804900169372559,-0.07073000073432922,-0.16539399325847626
1779999130460823600,11.637823486328125,9.804954528808594,-0.0708250030875206,-0.16207599639892578
1779999130478100500,11.6551005859375,9.805006980895996,-0.07092099636793137,-0.15948599576950073
1779999130495377000,11.672376953125,9.805014610290527,-0.07096900045871735,-0.15908999741077423
1779999130512653600,11.689653564453126,9.804974555969238,-0.07099000364542007,-0.16101700067520142
1779999130529930500,11.706930419921875,9.804923057556152,-0.07098399847745895,-0.16401299834251404
1779999130547207200,11.724207275390626,9.80489444732666,-0.07100699841976166,-0.16627700626850128
1779999130564483800,11.74148388671875,9.804891586303711,-0.07108999788761139,-0.16644500195980072
1779999130581760500,11.758760498046875,9.804917335510254,-0.07119999825954437,-0.16431599855422974
1779999130599037200,11.776037109375,9.804967880249023,-0.07132100313901901,-0.16106100380420685
1779999130616314000,11.793314208984375,9.80501937866211,-0.07141099870204926,-0.15854699909687042
1779999130633590500,11.810590576171874,9.805026054382324,-0.07149799913167953,-0.1581840068101883
1779999130650867200,11.8278671875,9.804986000061035,-0.0715629979968071,-0.16011099517345428
1779999130668143900,11.845143798828126,9.804935455322266,-0.07165800034999847,-0.16314800083637238
1779999130685420800,11.8624208984375,9.804903030395508,-0.07175400108098984,-0.1655530035495758
1779999130702697500,11.879697509765625,9.80489730834961,-0.071834996342659,-0.165925994515419
1779999130719974000,11.896973876953124,9.804919242858887,-0.07199700176715851,-0.16398699581623077
1779999130737250800,11.914250732421875,9.804970741271973,-0.07218100130558014,-0.16081400215625763
1779999130754527200,11.93152734375,9.805021286010742,-0.07234799861907959,-0.15823599696159363
1779999130771804200,11.94880419921875,9.805031776428223,-0.07245700061321259,-0.15769800543785095
1779999130789080800,11.966080810546876,9.8049955368042,-0.07249800115823746,-0.15943199396133423
1779999130806357500,11.983357421875,9.80494499206543,-0.07254999876022339,-0.16233199834823608
1779999130823634200,12.00063427734375,9.804915428161621,-0.07270199805498123,-0.16464200615882874
1779999130840910800,12.017910888671874,9.80490779876709,-0.07292400300502777,-0.16505199670791626
1779999130858187500,12.0351875,9.80492877960205,-0.07312700152397156,-0.1633249968290329
1779999130875464200,12.052464111328124,9.804972648620605,-0.07331299781799316,-0.16050300002098083
1779999130892741000,12.0697412109375,9.805014610290527,-0.07347699999809265,-0.1583009958267212
1779999130910017800,12.087017822265626,9.805017471313477,-0.07364699989557266,-0.1581069976091385
1779999130927294200,12.104294189453125,9.804976463317871,-0.07380100339651108,-0.1601019948720932
1779999130944571100,12.121571044921875,9.80492115020752,-0.07393199950456619,-0.16320399940013885
1779999130961847600,12.13884765625,9.804888725280762,-0.07406400144100189,-0.16571800410747528
1779999130979124500,12.15612451171875,9.804882049560547,-0.07419999688863754,-0.16625599563121796
1779999130996401200,12.173401123046874,9.804901123046875,-0.07438500225543976,-0.16453999280929565
1779999131013677800,12.190677734375,9.804945945739746,-0.07459399849176407,-0.1616230010986328
1779999131030954500,12.20795458984375,9.80499267578125,-0.07475800067186356,-0.1592720001935959
1779999131048231200,12.225231201171875,9.805001258850098,-0.07485999912023544,-0.15887899696826935
1779999131065507800,12.2425078125,9.804963111877441,-0.07486200332641602,-0.16069099307060242
1779999131082784500,12.259784423828124,9.804912567138672,-0.0748559981584549,-0.16361600160598755
1779999131100061200,12.277061279296875,9.804883003234863,-0.07488100230693817,-0.16592200100421906
1779999131117337900,12.294337890625,9.804880142211914,-0.07496900111436844,-0.16623899340629578
1779999131134614500,12.311614501953125,9.804903030395508,-0.0750499963760376,-0.1642249971628189
1779999131151891200,12.32889111328125,9.804954528808594,-0.07511299848556519,-0.1609410047531128
1779999131169168000,12.34616796875,9.805008888244629,-0.07511600106954575,-0.15817999839782715
1779999131186444500,12.363444580078125,9.80502700805664,-0.07509499788284302,-0.15739299356937408
1779999131203721200,12.38072119140625,9.8049955368042,-0.07508599758148193,-0.15887700021266937
1779999131220998000,12.397997802734375,9.804949760437012,-0.0750890001654625,-0.161639004945755
1779999131238274600,12.415274658203124,9.804917335510254,-0.07518400251865387,-0.16401299834251404
1779999131255551200,12.43255126953125,9.80490779876709,-0.0753289982676506,-0.16471000015735626
1779999131272828000,12.449827880859376,9.804922103881836,-0.07553300261497498,-0.16339099407196045
1779999131290104600,12.4671044921875,9.804960250854492,-0.07574799656867981,-0.1609169989824295
1779999131307381200,12.48438134765625,9.804998397827148,-0.07598800212144852,-0.1588740050792694
1779999131324658000,12.501657958984374,9.805004119873047,-0.07618200033903122,-0.15856699645519257
1779999131341934600,12.5189345703125,9.804967880249023,-0.07630199939012527,-0.16025400161743164
1779999131359211500,12.53621142578125,9.80492115020752,-0.07642599940299988,-0.16298100352287292
1779999131376488200,12.55348828125,9.804890632629395,-0.07651299983263016,-0.1651969999074936
1779999131393764600,12.5707646484375,9.804884910583496,-0.07658399641513824,-0.1656769961118698
1779999131411041300,12.588041259765625,9.804903030395508,-0.07662300020456314,-0.16413399577140808
1779999131428318200,12.605318115234375,9.804945945739746,-0.07662799954414368,-0.1614370048046112
1779999131445595000,12.622594970703124,9.804991722106934,-0.07658500224351883,-0.15915699303150177
1779999131462871600,12.63987158203125,9.80500602722168,-0.0764629989862442,-0.1585569977760315
1779999131480148200,12.657148193359374,9.804978370666504,-0.07629700005054474,-0.1599539965391159
1779999131497425000,12.6744248046875,9.804936408996582,-0.07613500207662582,-0.16248199343681335
1779999131514701800,12.691701904296876,9.804909706115723,-0.0760980024933815,-0.16461999714374542
1779999131531978500,12.708978515625,9.804903030395508,-0.07616300135850906,-0.1650650054216385
1779999131549255200,12.726255126953125,9.80492115020752,-0.07630199939012527,-0.16357800364494324
1779999131566531600,12.743531494140624,9.804960250854492,-0.07643900066614151,-0.16104699671268463
1779999131583808500,12.76080859375,9.804999351501465,-0.07658500224351883,-0.15901599824428558
1779999131601085200,12.778085205078124,9.805004119873047,-0.07674799859523773,-0.1587350070476532
1779999131618361900,12.79536181640625,9.80496883392334,-0.07688000053167343,-0.1603890061378479
1779999131635638500,12.812638427734376,9.804923057556152,-0.07700800150632858,-0.16298599541187286
1779999131652915000,12.8299150390625,9.804895401000977,-0.07711300253868103,-0.16508300602436066
1779999131670191900,12.84719189453125,9.804886817932129,-0.07722800225019455,-0.16554899513721466
1779999131687468500,12.864468505859374,9.804903984069824,-0.07735799998044968,-0.16417600214481354
1779999131704745200,12.8817451171875,9.804941177368164,-0.07748399674892426,-0.16184300184249878
1779999131722022000,12.89902197265625,9.804976463317871,-0.07758300006389618,-0.1599770039319992
1779999131739298600,12.916298583984375,9.80498218536377,-0.07762899994850159,-0.15971699357032776
1779999131756575200,12.9335751953125,9.804949760437012,-0.0776199996471405,-0.1612890064716339
1779999131773852000,12.950851806640625,9.80490779876709,-0.07761300355195999,-0.16376399993896484
1779999131791128600,12.968128662109375,9.80488109588623,-0.07763300091028214,-0.16573500633239746
1779999131808405200,12.9854052734375,9.804877281188965,-0.0776590034365654,-0.16605199873447418
1779999131825682000,13.002681884765625,9.80489730834961,-0.07770200073719025,-0.16449500620365143
1779999131842958600,13.01995849609375,9.804937362670898,-0.0777439996600151,-0.16192500293254852
1779999131860235300,13.0372353515625,9.80497932434082,-0.07777799665927887,-0.15982599556446075
1779999131877512000,13.054511962890626,9.804988861083984,-0.07775899767875671,-0.1594099998474121
1779999131894788600,13.07178857421875,9.804959297180176,-0.07767699658870697,-0.16089700162410736
1779999131912065300,13.089065185546875,9.804917335510254,-0.07761300355195999,-0.16335999965667725
1779999131929342000,13.106342041015624,9.804891586303711,-0.07762099802494049,-0.1653210073709488
1779999131946619000,13.123618896484375,9.804886817932129,-0.07768899947404861,-0.1656319946050644
1779999131963895600,13.1408955078125,9.804905891418457,-0.07776500284671783,-0.1641020029783249
1779999131981172200,13.158172119140625,9.804945945739746,-0.07781899720430374,-0.16161200404167175
1779999131998448600,13.17544873046875,9.804984092712402,-0.07787399739027023,-0.15955999493598938
1779999132015725300,13.192725341796875,9.8049955368042,-0.07791700214147568,-0.159060999751091
1779999132033002200,13.210002197265625,9.804967880249023,-0.07790499925613403,-0.16038499772548676
1779999132050279000,13.22727880859375,9.804929733276367,-0.07786700129508972,-0.16271400451660156
1779999132067555600,13.2445556640625,9.804903984069824,-0.07782799750566483,-0.16463600099086761
1779999132084832300,13.261832275390624,9.804901123046875,-0.07784699648618698,-0.16495800018310547
1779999132102109000,13.27910888671875,9.804919242858887,-0.07791700214147568,-0.16345900297164917
1779999132119385300,13.29638525390625,9.804959297180176,-0.07797300070524216,-0.16098900139331818
1779999132136662300,13.313662353515625,9.8049955368042,-0.07801300287246704,-0.1589670032262802
1779999132153939000,13.33093896484375,9.80500602722168,-0.07804399728775024,-0.1585260033607483
1779999132171215600,13.348215576171874,9.804978370666504,-0.0780780017375946,-0.15990999341011047
1779999132188492300,13.3654921875,9.804938316345215,-0.07807999849319458,-0.16229599714279175
1779999132205769200,13.382769287109374,9.804911613464355,-0.07809799909591675,-0.16428600251674652
1779999132223045600,13.400045654296875,9.80490493774414,-0.07816500216722488,-0.1647060066461563
1779999132240322600,13.417322509765626,9.804923057556152,-0.07829400151968002,-0.16325999796390533
1779999132257599200,13.43459912109375,9.804962158203125,-0.07847700268030167,-0.16078299283981323
1779999132274876000,13.4518759765625,9.804998397827148,-0.07860299944877625,-0.15876999497413635
1779999132292152600,13.469152587890624,9.80500602722168,-0.07867900282144547,-0.15840399265289307
1779999132309429200,13.48642919921875,9.804977416992188,-0.07871200144290924,-0.15987899899482727
1779999132326706000,13.503705810546874,9.804932594299316,-0.07884100079536438,-0.16235099732875824
1779999132343982600,13.520982666015625,9.804903984069824,-0.07902999967336655,-0.1644359976053238
1779999132361259300,13.53825927734375,9.80489444732666,-0.07926400005817413,-0.1650010049343109
1779999132378536000,13.555535888671875,9.804909706115723,-0.07944700121879578,-0.1638070046901703
1779999132395812600,13.5728125,9.804943084716797,-0.07954899966716766,-0.16164399683475494
1779999132413089000,13.590089111328124,9.804976463317871,-0.07965199649333954,-0.15985000133514404
1779999132430366000,13.607365966796875,9.804981231689453,-0.07970599830150604,-0.15948499739170074
1779999132447642600,13.624642578125,9.80495834350586,-0.07974299788475037,-0.1607459932565689
1779999132464919000,13.6419189453125,9.80492115020752,-0.0797019973397255,-0.16287599503993988
1779999132482196000,13.659196044921876,9.804898262023926,-0.07959000021219254,-0.16462400555610657
1779999132499472600,13.67647265625,9.804895401000977,-0.07948300242424011,-0.16495899856090546
1779999132516749300,13.693749267578125,9.804912567138672,-0.07944700121879578,-0.1635880023241043
1779999132534026000,13.71102587890625,9.804950714111328,-0.0794449970126152,-0.161204993724823
1779999132551302700,13.728302734375,9.8049898147583,-0.07944100350141525,-0.15915200114250183
1779999132568579300,13.745579345703124,9.80500316619873,-0.07939299941062927,-0.15857699513435364
1779999132585856300,13.762856201171875,9.80497932434082,-0.07926999777555466,-0.15977999567985535
1779999132603132700,13.780132568359376,9.804944038391113,-0.07919999957084656,-0.1619880050420761
1779999132620409300,13.797409423828125,9.804917335510254,-0.07915399968624115,-0.16391000151634216
1779999132637686000,13.81468603515625,9.804910659790039,-0.0791729986667633,-0.16439099609851837
1779999132654962700,13.831962646484374,9.804925918579102,-0.07921899855136871,-0.1631840020418167
1779999132672239600,13.849239501953125,9.804960250854492,-0.07925699651241302,-0.16101199388504028
1779999132689516000,13.86651611328125,9.804994583129883,-0.07928600162267685,-0.15916399657726288
1779999132706792700,13.883792724609375,9.805004119873047,-0.07929699867963791,-0.15874400734901428
1779999132724069400,13.9010693359375,9.804980278015137,-0.07929100096225739,-0.15998299419879913
1779999132741346300,13.91834619140625,9.80494213104248,-0.07927600294351578,-0.1621199995279312
1779999132758622700,13.935622802734375,9.804917335510254,-0.07927499711513519,-0.16394299268722534
1779999132775899600,13.952899658203124,9.804911613464355,-0.07928799837827682,-0.16439199447631836
1779999132793176000,13.970176025390625,9.804926872253418,-0.07931400090456009,-0.16320399940013885
1779999132810452700,13.98745263671875,9.804960250854492,-0.0793360024690628,-0.16106699407100677
1779999132827729700,14.004729736328125,9.8049955368042,-0.07935100048780441,-0.15919999778270721
1779999132845006300,14.02200634765625,9.80500602722168,-0.07936699688434601,-0.15867699682712555
1779999132862283000,14.039282958984375,9.804986000061035,-0.07934200018644333,-0.1597609966993332
1779999132879559700,14.0565595703125,9.804950714111328,-0.07934600114822388,-0.16178500652313232
1779999132896836400,14.07383642578125,9.804924964904785,-0.07937599718570709,-0.163565993309021
1779999132914113000,14.091113037109375,9.804917335510254,-0.07945200055837631,-0.16406700015068054
1779999132931389700,14.1083896484375,9.804930686950684,-0.07954200357198715,-0.1630209982395172
1779999132948666400,14.125666259765625,9.804962158203125,-0.07961899787187576,-0.16109099984169006
1779999132965943000,14.142943115234376,9.804990768432617,-0.07970400154590607,-0.15943700075149536
1779999132983219700,14.1602197265625,9.804998397827148,-0.07977499812841415,-0.1590300053358078
1779999133000496400,14.177496337890625,9.804978370666504,-0.07979399710893631,-0.1601260006427765
1779999133017773000,14.19477294921875,9.804943084716797,-0.07977999746799469,-0.1620820015668869
1779999133035049700,14.2120498046875,9.804920196533203,-0.07972899824380875,-0.16377100348472595
1779999133052326400,14.229326416015626,9.804914474487305,-0.079694002866745,-0.1642249971628189
1779999133069603000,14.24660302734375,9.804929733276367,-0.07969799637794495,-0.16309399902820587
1779999133086879700,14.263879638671876,9.804963111877441,-0.07970000058412552,-0.16098299622535706
1779999133104156400,14.281156494140625,9.804998397827148,-0.07964300364255905,-0.1591320037841797
1779999133121433000,14.29843310546875,9.805009841918945,-0.07958400249481201,-0.15860000252723694
1779999133138709800,14.315709716796874,9.8049898147583,-0.07953900098800659,-0.15963399410247803
1779999133155986700,14.332986572265625,9.804954528808594,-0.07954099774360657,-0.1616079956293106
1779999133173263000,14.35026318359375,9.804929733276367,-0.07957900315523148,-0.16342000663280487
1779999133190540000,14.3675400390625,9.804920196533203,-0.07964599877595901,-0.16406400501728058
1779999133207816400,14.38481640625,9.804931640625,-0.07968399673700333,-0.16321900486946106
1779999133225093400,14.40209326171875,9.804959297180176,-0.07972899824380875,-0.16142800450325012
1779999133242370000,14.4193701171875,9.804990768432617,-0.07979200035333633,-0.15977199375629425
1779999133259646700,14.436646728515624,9.805001258850098,-0.07979799807071686,-0.15922099351882935
1779999133276923400,14.45392333984375,9.804986000061035,-0.07974900305271149,-0.16007299721240997
1779999133294200000,14.471199951171876,9.804956436157227,-0.079646997153759,-0.1617709994316101
1779999133311476500,14.4884765625,9.804935455322266,-0.07953999936580658,-0.16326099634170532
1779999133328753400,14.50575341796875,9.804932594299316,-0.07946799695491791,-0.1636189967393875
1779999133346030000,14.523030029296875,9.804946899414062,-0.07945600152015686,-0.16256199777126312
1779999133363306800,14.540306640625,9.804976463317871,-0.07943099737167358,-0.1606149971485138
1779999133380583200,14.557583251953124,9.805009841918945,-0.07939799875020981,-0.1588979959487915
1779999133397860000,14.574860107421875,9.805020332336426,-0.0793600007891655,-0.1584019958972931
1779999133415136800,14.59213671875,9.805001258850098,-0.07935000211000443,-0.15938299894332886
1779999133432413400,14.609413330078125,9.804967880249023,-0.07940299808979034,-0.16124700009822845
1779999133449690000,14.626690185546876,9.804944038391113,-0.07950499653816223,-0.16290700435638428
1779999133466966500,14.643966552734375,9.804935455322266,-0.07961200177669525,-0.1634490042924881
1779999133484243200,14.6612431640625,9.804945945739746,-0.07970999926328659,-0.16265499591827393
1779999133501520100,14.67852001953125,9.80496883392334,-0.07982300221920013,-0.16111299395561218
1779999133518796800,14.695796875,9.804993629455566,-0.07991199940443039,-0.15979799628257751
1779999133536073500,14.713073486328126,9.8049955368042,-0.07996799796819687,-0.15958300232887268
1779999133553350000,14.730349853515625,9.804976463317871,-0.07996799796819687,-0.16068199276924133
1779999133570626800,14.747626708984376,9.804944038391113,-0.07992800325155258,-0.16254200041294098
1779999133587903500,14.764903564453125,9.804919242858887,-0.07990899682044983,-0.16419799625873566
1779999133605180200,14.78218017578125,9.804910659790039,-0.07997000217437744,-0.16474400460720062
1779999133622456800,14.799456787109374,9.804923057556152,-0.08003400266170502,-0.16389399766921997
1779999133639733800,14.816733642578125,9.804949760437012,-0.08007799834012985,-0.16220900416374207
1779999133657010200,14.83401025390625,9.804977416992188,-0.08005800098180771,-0.16074299812316895
1779999133674286800,14.851286865234375,9.804984092712402,-0.08004800230264664,-0.16034699976444244
1779999133691563500,14.8685634765625,9.80496597290039,-0.08003100007772446,-0.16127899289131165
1779999133708840200,14.885840087890625,9.804937362670898,-0.08003400266170502,-0.16297000646591187
1779999133726117000,14.9031171875,9.804916381835938,-0.08002600073814392,-0.1644670069217682
1779999133743393800,14.920393798828124,9.804909706115723,-0.08001399785280228,-0.16492900252342224
1779999133760670200,14.937670166015625,9.80492115020752,-0.08004400134086609,-0.16404199600219727
1779999133777947000,14.95494677734375,9.804947853088379,-0.08012200146913528,-0.16232900321483612
1779999133795223600,14.9722236328125,9.804976463317871,-0.08019199967384338,-0.16083300113677979
1779999133812500200,14.989500244140626,9.80498218536377,-0.08023100346326828,-0.1604360044002533
1779999133829777200,15.006777099609375,9.80496597290039,-0.08022599667310715,-0.16131600737571716
1779999133847053600,15.024053466796875,9.804937362670898,-0.08021000027656555,-0.16291099786758423
1779999133864330500,15.04133056640625,9.804919242858887,-0.08021099865436554,-0.16427700221538544
1779999133881607000,15.05860693359375,9.804914474487305,-0.08021300286054611,-0.1646070033311844
1779999133898883800,15.0758837890625,9.804926872253418,-0.08023799955844879,-0.1636890023946762
1779999133916160500,15.093160400390625,9.804952621459961,-0.08028899878263474,-0.16200199723243713
1779999133933437200,15.110437255859376,9.804980278015137,-0.08033599704504013,-0.16051700711250305
1779999133950713600,15.127713623046875,9.804986953735352,-0.08036299794912338,-0.16014599800109863
1779999133967990300,15.144990234375,9.80496597290039,-0.08037800341844559,-0.16121000051498413
1779999133985267000,15.162266845703124,9.804933547973633,-0.08041100203990936,-0.16311100125312805
1779999134002543900,15.1795439453125,9.80490779876709,-0.08048799633979797,-0.1647450029850006
1779999134019820500,15.196820556640626,9.804901123046875,-0.0805869996547699,-0.16529500484466553
1779999134037097200,15.21409716796875,9.804910659790039,-0.08066900074481964,-0.16453899443149567
1779999134054374000,15.231373779296876,9.804935455322266,-0.08069100230932236,-0.16301099956035614
1779999134071650300,15.248650390625,9.804960250854492,-0.08071199804544449,-0.1616249978542328
1779999134088927200,15.26592724609375,9.804967880249023,-0.08068100363016129,-0.16116799414157867
1779999134106204000,15.283203857421874,9.804954528808594,-0.08063100278377533,-0.16189800202846527
1779999134123480600,15.30048046875,9.804930686950684,-0.0805480033159256,-0.1634179949760437
1779999134140757200,15.31775732421875,9.804909706115723,-0.08043599873781204,-0.1648229956626892
1779999134158034000,15.335033935546875,9.80490493774414,-0.08036500215530396,-0.16521500051021576
1779999134175310600,15.352310546875,9.804917335510254,-0.08039499819278717,-0.1643269956111908
1779999134192587300,15.369587158203124,9.804944038391113,-0.08045099675655365,-0.16265299916267395
1779999134209864000,15.386864013671875,9.804970741271973,-0.08046100288629532,-0.16121800243854523
1779999134227140600,15.404140625,9.804978370666504,-0.08044900000095367,-0.16085200011730194
1779999134244417300,15.421417236328125,9.804961204528809,-0.08039800077676773,-0.1617410033941269
1779999134261694000,15.43869384765625,9.804931640625,-0.08041500300168991,-0.16333800554275513
1779999134278970600,15.455970703125,9.804911613464355,-0.08048299700021744,-0.16472800076007843
1779999134296247300,15.473247314453126,9.804903984069824,-0.08056099712848663,-0.16517199575901031
1779999134313524000,15.49052392578125,9.804914474487305,-0.08062300086021423,-0.1644809991121292
1779999134330800600,15.507800537109375,9.804935455322266,-0.0807029977440834,-0.163114994764328
1779999134348077300,15.525077392578124,9.804956436157227,-0.08081699907779694,-0.16194400191307068
1779999134365354000,15.54235400390625,9.80495834350586,-0.08093299716711044,-0.16173599660396576
1779999134382630700,15.559630615234376,9.804938316345215,-0.08101800084114075,-0.16272400319576263
1779999134399907300,15.5769072265625,9.804909706115723,-0.0810289978981018,-0.16440699994564056
1779999134417184000,15.59418408203125,9.804888725280762,-0.08102399855852127,-0.1658950001001358
1779999134434461000,15.6114609375,9.804880142211914,-0.08102300018072128,-0.16637000441551208
1779999134451737300,15.6287373046875,9.804891586303711,-0.08104400336742401,-0.16555599868297577
1779999134469014000,15.646013916015624,9.804917335510254,-0.08108200132846832,-0.16392000019550323
1779999134486290700,15.663290771484375,9.80494499206543,-0.08105099946260452,-0.1624460071325302
1779999134503567400,15.6805673828125,9.804956436157227,-0.08098500221967697,-0.16193699836730957
1779999134520844000,15.697843994140625,9.804944038391113,-0.08089599758386612,-0.1626249998807907
1779999134538120700,15.71512060546875,9.804919242858887,-0.08084899932146072,-0.1640789955854416
1779999134555397400,15.7323974609375,9.804900169372559,-0.08079499751329422,-0.1653980016708374
1779999134572674000,15.749674072265625,9.804896354675293,-0.0807500034570694,-0.1657389998435974
1779999134589950700,15.76695068359375,9.80490779876709,-0.08068899810314178,-0.16488400101661682
1779999134607227600,15.7842275390625,9.804933547973633,-0.08060699701309204,-0.16328200697898865
1779999134624504300,15.80150439453125,9.804960250854492,-0.08053699880838394,-0.1618019938468933
1779999134641780700,15.81878076171875,9.804972648620605,-0.08042600005865097,-0.16129200160503387
1779999134659057400,15.836057373046875,9.804960250854492,-0.08032199740409851,-0.1619729995727539
1779999134676334000,15.853333984375,9.804937362670898,-0.08021099865436554,-0.1633789986371994
1779999134693610800,15.87061083984375,9.804917335510254,-0.08016800135374069,-0.1646769940853119
1779999134710887700,15.8878876953125,9.804911613464355,-0.08017300069332123,-0.1651799976825714
1779999134728164000,15.9051640625,9.804919242858887,-0.0802140012383461,-0.16459299623966217
1779999134745440800,15.922440673828126,9.804938316345215,-0.08028099685907364,-0.16332300007343292
1779999134762717400,15.939717529296875,9.804959297180176,-0.08030799776315689,-0.1622070074081421
1779999134779994000,15.956994140625,9.804963111877441,-0.08032800257205963,-0.16199100017547607
1779999134797271000,15.97427099609375,9.804946899414062,-0.0802839994430542,-0.16287299990653992
1779999134814547700,15.991547607421875,9.804920196533203,-0.08023200184106827,-0.16437700390815735
1779999134831824400,16.008824462890626,9.804902076721191,-0.08012700080871582,-0.16565600037574768
1779999134849100800,16.026100830078125,9.804898262023926,-0.08001899719238281,-0.1659640073776245
1779999134866377500,16.04337744140625,9.804912567138672,-0.07991299778223038,-0.16510500013828278
1779999134883654400,16.060654296875,9.804937362670898,-0.07984600216150284,-0.16353100538253784
1779999134900930800,16.077930908203125,9.804964065551758,-0.07981199771165848,-0.1620749980211258
1779999134918207500,16.09520751953125,9.804976463317871,-0.07973600178956985,-0.16152800619602203
1779999134935484200,16.112484130859375,9.804965019226074,-0.07965999841690063,-0.16211199760437012
1779999134952760800,16.1297607421875,9.804943084716797,-0.07959499955177307,-0.16342000663280487
1779999134970037800,16.147037841796877,9.804925918579102,-0.07961799949407578,-0.16463199257850647
1779999134987314400,16.164314453125,9.804919242858887,-0.07969000190496445,-0.16501399874687195
1779999135004590800,16.1815908203125,9.804927825927734,-0.07980699837207794,-0.16429999470710754
1779999135021867500,16.198867431640625,9.804947853088379,-0.07992000132799149,-0.1629450023174286
1779999135039144200,16.216144287109376,9.804967880249023,-0.08000200241804123,-0.1617719978094101
1779999135056420900,16.2334208984375,9.804974555969238,-0.08009500056505203,-0.16151200234889984
1779999135073697800,16.25069775390625,9.804957389831543,-0.08018600195646286,-0.16234000027179718
1779999135090974200,16.26797412109375,9.804932594299316,-0.08026900142431259,-0.1637520045042038
1779999135108251000,16.2852509765625,9.804914474487305,-0.08031400293111801,-0.1649319976568222
1779999135125527600,16.302527587890626,9.804909706115723,-0.08033400028944016,-0.16524100303649902
1779999135142804200,16.31980419921875,9.804920196533203,-0.08034399896860123,-0.16447800397872925
1779999135160081000,16.337080810546876,9.804943084716797,-0.08041200041770935,-0.16303299367427826
1779999135177357600,16.354357666015623,9.80496597290039,-0.08050499856472015,-0.16170799732208252
1779999135194634200,16.37163427734375,9.804976463317871,-0.08051499724388123,-0.16126400232315063
1779999135211911000,16.388910888671877,9.804963111877441,-0.08045700192451477,-0.1619279980659485
1779999135229187600,16.4061875,9.804941177368164,-0.08041899651288986,-0.16329899430274963
1779999135246464300,16.42346435546875,9.80492115020752,-0.08043300360441208,-0.16454100608825684
1779999135263741200,16.4407412109375,9.804914474487305,-0.08054599910974503,-0.16491900384426117
1779999135281017600,16.458017578125,9.804923057556152,-0.08064299821853638,-0.16419699788093567
1779999135298294500,16.47529443359375,9.804946899414062,-0.08066999912261963,-0.16275200247764587
1779999135315571000,16.492571044921874,9.804971694946289,-0.08069299906492233,-0.16140900552272797
1779999135332847900,16.509847900390625,9.804980278015137,-0.08071999996900558,-0.16092300415039062
1779999135350124500,16.52712451171875,9.804967880249023,-0.08075299859046936,-0.16151900589466095
1779999135367401200,16.544401123046875,9.804945945739746,-0.08077000081539154,-0.1628129929304123
1779999135384677600,16.561677734375,9.80492877960205,-0.08077900111675262,-0.1639920026063919
1779999135401954300,16.578954345703124,9.804923057556152,-0.08079399913549423,-0.16439199447631836
1779999135419231000,16.59623095703125,9.80492877960205,-0.08086399734020233,-0.16388800740242004
1779999135436507600,16.613507568359374,9.80494499206543,-0.08097899705171585,-0.16284599900245667
1779999135453784600,16.63078466796875,9.804960250854492,-0.08111999928951263,-0.16197699308395386
1779999135471061200,16.648061279296876,9.804960250854492,-0.08122900128364563,-0.16191799938678741
1779999135488337700,16.665337646484375,9.80494213104248,-0.08130499720573425,-0.16284899413585663
1779999135505614600,16.682614501953125,9.804916381835938,-0.08131799846887589,-0.1643269956111908
1779999135522891000,16.69989111328125,9.804898262023926,-0.08130499720573425,-0.16555500030517578
1779999135540167700,16.717167724609375,9.80489444732666,-0.08130200207233429,-0.16585099697113037
1779999135557444600,16.734444580078126,9.80490493774414,-0.08125600218772888,-0.16505299508571625
1779999135574721000,16.751720947265625,9.804929733276367,-0.08114899694919586,-0.16360299289226532
1779999135591997700,16.768997802734376,9.804956436157227,-0.08099400252103806,-0.16226300597190857
1779999135609274400,16.7862744140625,9.80496883392334,-0.08083400130271912,-0.16162699460983276
1779999135626551000,16.803551025390625,9.804965019226074,-0.08067899942398071,-0.1619029939174652
1779999135643828000,16.820827880859376,9.804947853088379,-0.0805400013923645,-0.16290000081062317
1779999135661104400,16.8381044921875,9.804933547973633,-0.0803690031170845,-0.16400499641895294
1779999135678381000,16.855381103515626,9.804929733276367,-0.08020199835300446,-0.164465993642807
1779999135695657700,16.87265771484375,9.804938316345215,-0.08001399785280228,-0.16389800608158112
1779999135712934400,16.889934326171876,9.804963111877441,-0.07982700318098068,-0.1624699980020523
1779999135730210800,16.9072109375,9.80499267578125,-0.07962799817323685,-0.1608790010213852
1779999135747487700,16.92448779296875,9.805011749267578,-0.07938399910926819,-0.15995000302791595
1779999135764764400,16.941764404296876,9.805012702941895,-0.07912500202655792,-0.1600240021944046
1779999135782041000,16.959041015625,9.805001258850098,-0.0789019986987114,-0.1608850061893463
1779999135799317800,16.97631787109375,9.804987907409668,-0.07876700162887573,-0.16186699271202087
1779999135816594200,16.99359423828125,9.804981231689453,-0.0788159966468811,-0.1622299998998642
1779999135833871000,17.01087109375,9.804986953735352,-0.07912400364875793,-0.16163299977779388
1779999135851147800,17.028147705078126,9.80500316619873,-0.07955200225114822,-0.16044199466705322
1779999135868424400,17.045424560546873,9.805013656616211,-0.0800660029053688,-0.1595579981803894
1779999135885701000,17.062701171875,9.80500316619873,-0.08052899688482285,-0.15991200506687164
1779999135902977800,17.079977783203127,9.804967880249023,-0.08089099824428558,-0.16162699460983276
1779999135920254200,17.097254150390626,9.804927825927734,-0.0813170000910759,-0.1637900024652481
1779999135937531100,17.11453125,9.804898262023926,-0.08180300146341324,-0.16533400118350983
1779999135954807800,17.131807861328124,9.804889678955078,-0.08217299729585648,-0.16572700440883636
1779999135972084500,17.14908447265625,9.804896354675293,-0.08233200013637543,-0.16516399383544922
1779999135989361200,17.166361083984373,9.804911613464355,-0.08227699995040894,-0.16432900726795197
1779999136006637800,17.183637939453124,9.804922103881836,-0.0821319967508316,-0.16377100348472595
1779999136023914200,17.200914306640627,9.804924964904785,-0.08211799710988998,-0.16370099782943726
1779999136041191000,17.21819091796875,9.804914474487305,-0.08215200155973434,-0.1642030030488968
1779999136058467800,17.2354677734375,9.804898262023926,-0.08211500197649002,-0.16517500579357147
1779999136075744500,17.25274462890625,9.804882049560547,-0.08206500113010406,-0.16618500649929047
1779999136093021200,17.270021240234374,9.8048734664917,-0.08208300173282623,-0.16673800349235535
1779999136110297900,17.2872978515625,9.804874420166016,-0.08235900104045868,-0.16654400527477264
1779999136127574500,17.304574462890624,9.804883003234863,-0.08285299688577652,-0.1657709926366806
1779999136144851200,17.321851318359375,9.804891586303711,-0.08339700102806091,-0.16504399478435516
1779999136162128000,17.3391279296875,9.804886817932129,-0.08387500047683716,-0.16509799659252167
1779999136179404500,17.356404541015625,9.80486011505127,-0.08426699787378311,-0.16628000140190125
1779999136196681200,17.37368115234375,9.80482292175293,-0.08462099730968475,-0.16823899745941162
1779999136213957600,17.39095751953125,9.804789543151855,-0.08495300263166428,-0.17008399963378906
1779999136231234300,17.408234375,9.804776191711426,-0.08527299761772156,-0.17089100182056427
1779999136248511200,17.42551123046875,9.804781913757324,-0.08543000370264053,-0.1703750044107437
1779999136265788000,17.442787841796875,9.804804801940918,-0.08546900004148483,-0.1690399944782257
1779999136283064300,17.460064208984374,9.804827690124512,-0.08543899655342102,-0.1677750051021576
1779999136300341200,17.47734130859375,9.804838180541992,-0.08537500351667404,-0.16724200546741486
1779999136317618000,17.494617919921875,9.804830551147461,-0.08529199659824371,-0.1676180064678192
1779999136334894300,17.511894287109374,9.804815292358398,-0.08514799922704697,-0.16856199502944946
1779999136352171000,17.5291708984375,9.804802894592285,-0.08500000089406967,-0.16947400569915771
1779999136369448000,17.546447998046876,9.80479907989502,-0.08487600088119507,-0.1697929948568344
1779999136386724400,17.563724365234375,9.804807662963867,-0.08482299745082855,-0.16923299431800842
1779999136404001000,17.5810009765625,9.804827690124512,-0.08479800075292587,-0.16803200542926788
1779999136421277700,17.598277587890625,9.804849624633789,-0.08477599918842316,-0.16688300669193268
1779999136438554400,17.615554443359375,9.80485725402832,-0.08473499864339828,-0.16647499799728394
1779999136455831300,17.632831298828126,9.80484676361084,-0.08469399809837341,-0.16705100238323212
1779999136473107700,17.650107666015625,9.804825782775879,-0.0846410021185875,-0.16825200617313385
1779999136490384400,17.66738427734375,9.804807662963867,-0.08458799868822098,-0.16935700178146362
1779999136507661000,17.6846611328125,9.804803848266602,-0.08452899754047394,-0.16972899436950684
1779999136524937700,17.701937744140626,9.804810523986816,-0.0844850018620491,-0.16919299960136414
1779999136542214400,17.71921435546875,9.804832458496094,-0.08443500101566315,-0.16801699995994568
1779999136559490800,17.73649072265625,9.804853439331055,-0.08436699956655502,-0.16682200133800507
1779999136576767700,17.753767822265626,9.804865837097168,-0.08428099751472473,-0.16626200079917908
1779999136594044400,17.77104443359375,9.804859161376953,-0.08417999744415283,-0.1666409969329834
1779999136611321000,17.788321044921876,9.804841995239258,-0.08409299701452255,-0.16766899824142456
1779999136628597800,17.80559765625,9.804825782775879,-0.0840189978480339,-0.1686670035123825
1779999136645874400,17.82287451171875,9.80482292175293,-0.08396100252866745,-0.168953999876976
1779999136663151000,17.840151123046876,9.804834365844727,-0.08389600366353989,-0.16829699277877808
1779999136680427800,17.857427734375,9.804854393005371,-0.0838410034775734,-0.16704200208187103
1779999136697704400,17.874704345703126,9.804875373840332,-0.08380399644374847,-0.16589200496673584
1779999136714981000,17.891981201171873,9.804883003234863,-0.08377300202846527,-0.165476992726326
1779999136732257800,17.9092578125,9.8048734664917,-0.08376199752092361,-0.1659889966249466
1779999136749534500,17.926534423828127,9.804853439331055,-0.08373399823904037,-0.1671459972858429
1779999136766811000,17.943810791015625,9.804834365844727,-0.08375100046396255,-0.16834299266338348
1779999136784087800,17.961087890625,9.804824829101562,-0.08382800221443176,-0.16893500089645386
1779999136801364500,17.978364501953124,9.804826736450195,-0.08396700024604797,-0.1686830073595047
1779999136818641200,17.99564111328125,9.804839134216309,-0.08409500122070312,-0.16783499717712402
1779999136835917800,18.012917724609373,9.804854393005371,-0.08420699834823608,-0.16701099276542664
1779999136853194200,18.0301943359375,9.804856300354004,-0.08428700268268585,-0.16682100296020508
1779999136870471000,18.047470947265627,9.804842948913574,-0.08433099836111069,-0.16746200621128082
1779999136887747800,18.064747802734374,9.804821968078613,-0.08437400311231613,-0.16862399876117706
1779999136905024500,18.0820244140625,9.80480670928955,-0.08426599949598312,-0.16970700025558472
1779999136922301000,18.099301025390623,9.804800033569336,-0.08407700061798096,-0.17025800049304962
1779999136939577900,18.116577880859374,9.804803848266602,-0.0837709978222847,-0.17020100355148315
1779999136956854300,18.133854248046877,9.804810523986816,-0.08343599736690521,-0.1698710024356842
1779999136974131000,18.151130859375,9.804815292358398,-0.08306200057268143,-0.16978900134563446
1779999136991407900,18.168407958984375,9.804807662963867,-0.08273100107908249,-0.17038799822330475
1779999137008684300,18.185684326171874,9.804783821105957,-0.0823810026049614,-0.17169299721717834
1779999137025961200,18.202961181640624,9.804758071899414,-0.08203999698162079,-0.1733269989490509
1779999137043237600,18.220237548828123,9.804737091064453,-0.08189000189304352,-0.17467699944972992
1779999137060514300,18.237514404296874,9.804730415344238,-0.08201999962329865,-0.17510099709033966
1779999137077791000,18.254791015625,9.804739952087402,-0.08229999989271164,-0.1742590069770813
1779999137095067600,18.272067626953124,9.804770469665527,-0.08260799944400787,-0.17239299416542053
1779999137112344300,18.28934423828125,9.804804801940918,-0.08319400250911713,-0.17021000385284424
1779999137129621000,18.30662109375,9.804834365844727,-0.083746999502182,-0.16844600439071655
1779999137155536100,18.3325361328125,9.804851531982422,-0.08468399941921234,-0.16711600124835968
1779999137172812800,18.349812744140625,9.804853439331055,-0.08496499806642532,-0.16691400110721588
1779999137190089500,18.36708935546875,9.804850578308105,-0.0850910022854805,-0.1670050024986267
1779999137207366100,18.3843662109375,9.804845809936523,-0.08517900109291077,-0.16729600727558136
1779999137224642600,18.401642578125,9.804839134216309,-0.0855180025100708,-0.1675579994916916
1779999137241919200,18.418919189453124,9.804839134216309,-0.08561400324106216,-0.1675020009279251
1779999137259196200,18.436196044921875,9.804844856262207,-0.08568499982357025,-0.1670359969139099
1779999137276472600,18.45347265625,9.804855346679688,-0.08558999747037888,-0.16655200719833374
1779999137293749200,18.470749267578125,9.804856300354004,-0.08533400297164917,-0.16663199663162231
1779999137311026000,18.48802587890625,9.804828643798828,-0.08584299683570862,-0.1680230051279068
1779999137328302600,18.505302490234374,9.804763793945312,-0.08682499825954437,-0.17140699923038483
1779999137345579300,18.522579345703125,9.804683685302734,-0.08615399897098541,-0.1762859970331192
1779999137362856000,18.53985595703125,9.804611206054688,-0.08557900041341782,-0.18040400743484497
1779999137380132600,18.557132568359375,9.804558753967285,-0.086326003074646,-0.18280300498008728
1779999137397409500,18.574409423828126,9.804473876953125,-0.08895000070333481,-0.18580299615859985
1779999137414686000,18.59168603515625,9.80429744720459,-0.09152700006961823,-0.1930990070104599
1779999137431962600,18.608962646484375,9.803990364074707,-0.09411399811506271,-0.20586900413036346
1779999137449239300,18.6262392578125,9.803621292114258,-0.09498000144958496,-0.221342995762825
1779999137466516000,18.643515869140625,9.803261756896973,-0.09701099991798401,-0.2354470044374466
1779999137483792400,18.66079248046875,9.802952766418457,-0.09918099641799927,-0.24720600247383118
1779999137501069000,18.678069091796875,9.802637100219727,-0.10125800222158432,-0.25920000672340393
1779999137518346000,18.695345947265626,9.802231788635254,-0.10206100344657898,-0.2744640111923218
1779999137535622700,18.71262255859375,9.801684379577637,-0.10244499891996384,-0.29315701127052307
1779999137552899000,18.729899169921875,9.801011085510254,-0.10235200077295303,-0.3135020136833191
1779999137570175700,18.74717578125,9.800263404846191,-0.101842001080513,-0.3342440128326416
1779999137587452400,18.764452392578125,9.799436569213867,-0.10078500211238861,-0.3562510013580322
1779999137604729000,18.78172900390625,9.798425674438477,-0.10012099891901016,-0.3821820020675659
1779999137622005800,18.799005859375,9.797130584716797,-0.1001340001821518,-0.41370201110839844
1779999137639282700,18.81628271484375,9.795563697814941,-0.10003200173377991,-0.4494349956512451
1779999137656559400,18.833559326171876,9.793811798095703,-0.09923599660396576,-0.4861440062522888
1779999137673836000,18.8508359375,9.791958808898926,-0.09840799868106842,-0.5217519998550415
1779999137691112400,18.868112548828126,9.790059089660645,-0.09834899753332138,-0.5557870268821716
1779999137708389000,18.88538916015625,9.788105964660645,-0.10022199898958206,-0.5890430212020874
1779999137725665800,18.902665771484376,9.78603458404541,-0.10408399999141693,-0.6225219964981079
1779999137742942700,18.919942626953127,9.78382682800293,-0.10789799690246582,-0.6563289761543274
1779999137760219400,18.937219482421874,9.7815523147583,-0.1100580021739006,-0.689382016658783
1779999137777496000,18.95449609375,9.779315948486328,-0.11041299998760223,-0.7204800248146057
1779999137794772500,18.9717724609375,9.777185440063477,-0.10992799699306488,-0.748947024345398
1779999137812049200,18.989049072265626,9.775152206420898,-0.10841500014066696,-0.7752630114555359
1779999137829325800,19.006325927734373,9.77305793762207,-0.10655400156974792,-0.8016350269317627
1779999137846602800,19.023602783203124,9.7708101272583,-0.10310299694538116,-0.8292499780654907
1779999137863879200,19.040879150390627,9.768403053283691,-0.0974780023097992,-0.8578400015830994
1779999137881155800,19.05815576171875,9.765896797180176,-0.09089600294828415,-0.8864030241966248
1779999137898432500,19.0754326171875,9.763299942016602,-0.084415003657341,-0.9148229956626892
1779999137915709200,19.092709228515623,9.760554313659668,-0.0792979970574379,-0.9437940120697021
1779999137932985900,19.10998583984375,9.757585525512695,-0.07535199820995331,-0.9741560220718384
1779999137950262500,19.127262451171877,9.754353523254395,-0.07196599990129471,-1.0062600374221802
1779999137967539200,19.144539306640624,9.750914573669434,-0.06836500018835068,-1.0394209623336792
1779999137984815900,19.16181591796875,9.747442245483398,-0.06622099876403809,-1.071753978729248
1779999138002092300,19.17909228515625,9.744112968444824,-0.06661900132894516,-1.1017600297927856
1779999138019369000,19.196368896484376,9.740947723388672,-0.06873500347137451,-1.1294820308685303
1779999138036645600,19.213645751953123,9.737837791442871,-0.0719359964132309,-1.1560039520263672
1779999138053922300,19.23092236328125,9.734654426574707,-0.07546400278806686,-1.182453989982605
1779999138071199000,19.248198974609377,9.731395721435547,-0.079135000705719,-1.2088240385055542
1779999138088476000,19.265475830078124,9.728225708007812,-0.08307400345802307,-1.2338279485702515
1779999138105752600,19.282752685546875,9.725208282470703,-0.08653800189495087,-1.2571369409561157
1779999138123029000,19.300029052734374,9.722257614135742,-0.08869799971580505,-1.2796119451522827
1779999138140305700,19.3173056640625,9.719185829162598,-0.08986800163984299,-1.302698016166687
1779999138157582300,19.334582275390623,9.71594524383545,-0.09019500017166138,-1.3267110586166382
1779999138174859000,19.35185888671875,9.712656021118164,-0.08936800062656403,-1.3506920337677002
1779999138192136000,19.369135986328125,9.709527015686035,-0.08843400329351425,-1.3730829954147339
1779999138209412600,19.38641259765625,9.706571578979492,-0.08801300078630447,-1.393862009048462
1779999138226689000,19.40368896484375,9.703631401062012,-0.08772700279951096,-1.4142320156097412
1779999138243965700,19.420965576171874,9.700681686401367,-0.08677999675273895,-1.4344650506973267
1779999138261242400,19.438242431640624,9.697928428649902,-0.08666200190782547,-1.453102946281433
1779999138278519000,19.45551904296875,9.695632934570312,-0.08871400356292725,-1.4683749675750732
1779999138295795700,19.472795654296874,9.69384765625,-0.0925149992108345,-1.4800050258636475
1779999138313072400,19.490072265625,9.69238567352295,-0.09580200165510178,-1.4894219636917114
1779999138330349000,19.50734912109375,9.691004753112793,-0.09769599884748459,-1.4983229637145996
1779999138347625700,19.524625732421875,9.689619064331055,-0.09825100004673004,-1.5072189569473267
1779999138364902100,19.541902099609374,9.688258171081543,-0.09923899918794632,-1.5158419609069824
1779999138382179000,19.559178955078124,9.686799049377441,-0.10121800005435944,-1.5249229669570923
1779999138399455500,19.57645556640625,9.684924125671387,-0.10275699943304062,-1.5365580320358276
1779999138416732200,19.593732177734374,9.682421684265137,-0.10288199782371521,-1.552077054977417
1779999138434009000,19.611009033203125,9.67932415008545,-0.10292399674654007,-1.5711230039596558
1779999138451285800,19.62828564453125,9.67577838897705,-0.10489100217819214,-1.5925350189208984
1779999138468562400,19.6455625,9.671948432922363,-0.10890799760818481,-1.6152369976043701
1779999138485838800,19.6628388671875,9.668017387390137,-0.11355099827051163,-1.6382390260696411
1779999138503115500,19.680115478515624,9.664178848266602,-0.11724799871444702,-1.6605700254440308
1779999138520392200,19.69739208984375,9.660494804382324,-0.12062700092792511,-1.6817899942398071
1779999138537668900,19.7146689453125,9.656959533691406,-0.1241300031542778,-1.7018719911575317
1779999138554945500,19.731945556640625,9.65364933013916,-0.12702800333499908,-1.720460057258606
1779999138572222500,19.749222412109376,9.650716781616211,-0.12889200448989868,-1.736780047416687
1779999138589499000,19.766498779296874,9.6483736038208,-0.1291549950838089,-1.7497999668121338
1779999138606775600,19.783775634765625,9.64664077758789,-0.12948200106620789,-1.7593560218811035
1779999138624052200,19.80105224609375,9.645254135131836,-0.13140299916267395,-1.7668570280075073
1779999138641329000,19.818328857421875,9.643963813781738,-0.13382700085639954,-1.773758053779602
1779999138658605600,19.83560546875,9.642736434936523,-0.13548099994659424,-1.7803139686584473
1779999138675882200,19.85288232421875,9.641559600830078,-0.13781699538230896,-1.7864749431610107
1779999138693159000,19.870158935546876,9.640365600585938,-0.14101199805736542,-1.7926160097122192
1779999138710435600,19.887435546875,9.639071464538574,-0.1434909999370575,-1.7993370294570923
1779999138727712300,19.904712158203125,9.637577056884766,-0.14364799857139587,-1.8072680234909058
1779999138744989000,19.921989013671876,9.635881423950195,-0.14060500264167786,-1.8164889812469482
1779999138762265300,19.939265380859375,9.634138107299805,-0.13601799309253693,-1.8260610103607178
1779999138779542300,19.956542236328126,9.632535934448242,-0.13141800463199615,-1.8348560333251953
1779999138796819000,19.97381884765625,9.631168365478516,-0.12669800221920013,-1.8423980474472046
1779999138814095600,19.991095703125,9.630011558532715,-0.12245800346136093,-1.8487659692764282
1779999138831372300,20.008372314453126,9.628973960876465,-0.11961200088262558,-1.8543850183486938
1779999138848649000,20.02564892578125,9.62795352935791,-0.11988600343465805,-1.8596529960632324
1779999138865925400,20.04292529296875,9.62691879272461,-0.12377600371837616,-1.8647270202636719
1779999138883202000,20.0602021484375,9.625865936279297,-0.12964099645614624,-1.8697309494018555
1779999138900479000,20.07747900390625,9.624814987182617,-0.13494400680065155,-1.8747620582580566
1779999138917755600,20.094755615234376,9.62386703491211,-0.13863100111484528,-1.8793840408325195
1779999138935032000,20.112031982421875,9.623148918151855,-0.14026500284671783,-1.8829649686813354
1779999138952308700,20.129308837890626,9.622628211975098,-0.14064599573612213,-1.8856070041656494
1779999138969585400,20.14658544921875,9.62218189239502,-0.1399800032377243,-1.8879350423812866
1779999138986862000,20.163862060546876,9.62176513671875,-0.1379919946193695,-1.8902000188827515
1779999139004138800,20.181138671875,9.62149429321289,-0.13523299992084503,-1.891787052154541
1779999139021415200,20.198415283203126,9.621392250061035,-0.133419007062912,-1.8924460411071777
1779999139038692000,20.215692138671876,9.621261596679688,-0.13406600058078766,-1.893057942390442
1779999139055968800,20.23296875,9.620853424072266,-0.13626299798488617,-1.8949639797210693
1779999139073245200,20.2502451171875,9.6201171875,-0.13801999390125275,-1.8985610008239746
1779999139090521900,20.26752197265625,9.619233131408691,-0.13820800185203552,-1.9030100107192993
1779999139107798500,20.284798583984376,9.618452072143555,-0.1371079981327057,-1.9070080518722534
1779999139125075200,20.3020751953125,9.617856979370117,-0.1352889984846115,-1.9101250171661377
1779999139142352000,20.319351806640626,9.617334365844727,-0.13392800092697144,-1.912858009338379
1779999139159628500,20.336628662109376,9.61688232421875,-0.13249999284744263,-1.9152439832687378
1779999139176905200,20.3539052734375,9.61666488647461,-0.13114500045776367,-1.9164520502090454
1779999139194182000,20.371181884765626,9.616846084594727,-0.13090300559997559,-1.9155579805374146
1779999139211458600,20.38845849609375,9.617438316345215,-0.1325729936361313,-1.9124449491500854
1779999139228735200,20.4057353515625,9.618301391601562,-0.13555000722408295,-1.9078880548477173
1779999139246011600,20.42301171875,9.619199752807617,-0.13848699629306793,-1.9031519889831543
1779999139263288300,20.440288330078126,9.62002944946289,-0.1401599943637848,-1.8988419771194458
1779999139280565200,20.457565185546876,9.620758056640625,-0.14069800078868866,-1.8951200246810913
1779999139297842000,20.474842041015624,9.621371269226074,-0.14102600514888763,-1.8919930458068848
1779999139315118600,20.49211865234375,9.621806144714355,-0.14133000373840332,-1.8897650241851807
1779999139332395300,20.509395263671873,9.622050285339355,-0.14156599342823029,-1.888504981994629
1779999139349672000,20.526671875,9.622121810913086,-0.1416960060596466,-1.888126015663147
1779999139366948600,20.543948486328127,9.62204360961914,-0.1423950046300888,-1.8884719610214233
1779999139384225300,20.561225341796874,9.621846199035645,-0.14377999305725098,-1.8893779516220093
1779999139401501700,20.578501708984376,9.621570587158203,-0.14497600495815277,-1.8906910419464111
1779999139418778600,20.595778564453123,9.621308326721191,-0.1452140063047409,-1.8920060396194458
1779999139436055300,20.61305517578125,9.621124267578125,-0.144896000623703,-1.8929699659347534
1779999139453332000,20.63033203125,9.620993614196777,-0.1439809948205948,-1.8937029838562012
1779999139470608600,20.647608642578124,9.620856285095215,-0.14229699969291687,-1.8945239782333374
1779999139487885300,20.66488525390625,9.620710372924805,-0.14030200242996216,-1.895416021347046
1779999139505161700,20.68216162109375,9.620603561401367,-0.1390320062637329,-1.8960540294647217
1779999139522438400,20.6994384765625,9.620634078979492,-0.13923199474811554,-1.8958890438079834
1779999139539715300,20.71671533203125,9.620879173278809,-0.14078499376773834,-1.8945260047912598
1779999139556991700,20.73399169921875,9.621332168579102,-0.14257100224494934,-1.8920749425888062
1779999139574268400,20.751268310546877,9.621880531311035,-0.14439800381660461,-1.8891270160675049
1779999139591545000,20.768545166015624,9.622381210327148,-0.14610399305820465,-1.8864389657974243
1779999139608821800,20.78582177734375,9.622723579406738,-0.14778700470924377,-1.8845709562301636
1779999139626098400,20.803098388671874,9.622929573059082,-0.14885200560092926,-1.8834409713745117
1779999139643375000,20.820375,9.623061180114746,-0.14886799454689026,-1.8827699422836304
1779999139660651500,20.837651611328123,9.623050689697266,-0.14770600199699402,-1.8829150199890137
1779999139677928200,20.85492822265625,9.622713088989258,-0.14619700610637665,-1.8847490549087524
1779999139695205000,20.872205078125,9.621988296508789,-0.14438700675964355,-1.8885899782180786
1779999139712481800,20.889481689453124,9.62106990814209,-0.1426209956407547,-1.893399953842163
1779999139729758500,20.906758544921875,9.620295524597168,-0.14152200520038605,-1.897420048713684
1779999139747035100,20.92403515625,9.61987590789795,-0.14106500148773193,-1.8995850086212158
1779999139764311800,20.941311767578124,9.619739532470703,-0.14066700637340546,-1.9003020524978638
1779999139781588500,20.95858837890625,9.61968994140625,-0.14006300270557404,-1.9006019830703735
1779999139798865200,20.975865234375,9.619656562805176,-0.1390170007944107,-1.9008519649505615
1779999139816141800,20.993141845703125,9.619702339172363,-0.13775299489498138,-1.900702953338623
1779999139833418500,21.01041845703125,9.619876861572266,-0.13691900670528412,-1.8998769521713257
1779999139850695200,21.027695068359375,9.620099067687988,-0.13696299493312836,-1.898758053779602
1779999139867971600,21.0449716796875,9.620184898376465,-0.1372389942407608,-1.8982980251312256
1779999139885248300,21.062248291015624,9.619905471801758,-0.13674399256706238,-1.8997529745101929
1779999139902525000,21.07952490234375,9.619162559509277,-0.1347229927778244,-1.9036329984664917
1779999139919801600,21.096801513671874,9.61810302734375,-0.13204699754714966,-1.9091249704360962
1779999139937078300,21.114078369140625,9.617006301879883,-0.13057799637317657,-1.9147249460220337
1779999139954355000,21.13135498046875,9.616039276123047,-0.13103200495243073,-1.9195430278778076
1779999139971631600,21.148631591796875,9.615286827087402,-0.13226500153541565,-1.9232250452041626
1779999139988908300,21.165908203125,9.614802360534668,-0.13318100571632385,-1.9255980253219604
1779999140006184700,21.183184814453124,9.614802360534668,-0.1344749927520752,-1.9255019426345825
1779999140023461400,21.20046142578125,9.615788459777832,-0.1379999965429306,-1.9202320575714111
1779999140040738000,21.217738037109374,9.618436813354492,-0.14553199708461761,-1.9060529470443726
1779999140058015000,21.235014892578125,9.623427391052246,-0.15488000214099884,-1.8790940046310425
1779999140075291600,21.252291748046876,9.631891250610352,-0.16033099591732025,-1.8322160243988037
1779999140092568300,21.269568359375,9.645273208618164,-0.15574300289154053,-1.7532520294189453
1779999140109844700,21.2868447265625,9.664536476135254,-0.13110199570655823,-1.6238620281219482
1779999140127121400,21.304121337890624,9.688247680664062,-0.09102900326251984,-1.425799012184143
1779999140144398000,21.321398193359375,9.712644577026367,-0.06899899989366531,-1.1511820554733276
1779999140161674800,21.3386748046875,9.734272003173828,-0.06803800165653229,-0.8328559994697571
1779999140178951400,21.355951416015625,9.754420280456543,-0.054843999445438385,-0.5255669951438904
1779999140196228000,21.37322802734375,9.773273468017578,-0.004534000065177679,-0.2876420021057129
1779999140213504500,21.39050439453125,9.786097526550293,0.058212000876665115,-0.15194299817085266
1779999140230781400,21.407781494140625,9.790739059448242,0.056522998958826065,-0.1050029993057251
1779999140248058000,21.42505810546875,9.789422035217285,0.013957000337541103,-0.11910299956798553
1779999140265334500,21.44233447265625,9.787989616394043,0.023818999528884888,-0.16402199864387512
1779999140282611200,21.459611083984374,9.788847923278809,0.057659000158309937,-0.20856599509716034
1779999140299887900,21.476887939453125,9.789989471435547,0.07994300127029419,-0.2278040051460266
1779999140317164500,21.49416455078125,9.789443016052246,0.07663299888372421,-0.21243199706077576
1779999140334441200,21.511441162109374,9.789907455444336,0.06378600001335144,-0.17214399576187134
1779999140351717600,21.528717529296873,9.791736602783203,0.07476899772882462,-0.13420100510120392
1779999140368994300,21.545994384765624,9.793091773986816,0.10267099738121033,-0.12222199887037277
1779999140386271200,21.563271240234375,9.7913236618042,0.08161100000143051,-0.14447200298309326
1779999140403548000,21.5805478515625,9.789911270141602,0.07521499693393707,-0.18679699301719666
1779999140420824300,21.59782421875,9.790431022644043,0.06551600247621536,-0.22588099539279938
1779999140438101000,21.61510107421875,9.790961265563965,0.043731000274419785,-0.2427690029144287
1779999140455377700,21.632377685546874,9.79067325592041,0.031209999695420265,-0.23288699984550476
1779999140472654300,21.649654296875,9.790434837341309,0.04010700061917305,-0.20365899801254272
1779999140489931000,21.666930908203124,9.790457725524902,0.08710099756717682,-0.1719059944152832
1779999140507207700,21.684207763671875,9.791890144348145,0.14017300307750702,-0.1533930003643036
1779999140524484400,21.701484375,9.790924072265625,0.09423799812793732,-0.16068199276924133
1779999140541761000,21.718760986328125,9.789449691772461,0.10110100358724594,-0.19435100257396698
1779999140559037700,21.73603759765625,9.788713455200195,0.17012600600719452,-0.24247199296951294
1779999140576314400,21.753314453125,9.78911018371582,0.22784699499607086,-0.2712840139865875
1779999140593590800,21.7705908203125,9.788869857788086,0.23407000303268433,-0.2646850049495697
1779999140610867500,21.787867431640624,9.790228843688965,0.19958700239658356,-0.22707599401474
1779999140628144000,21.80514404296875,9.793060302734375,0.1675489991903305,-0.18631699681282043
1779999140645420800,21.8224208984375,9.79427719116211,0.17581400275230408,-0.17248299717903137
1779999140662697700,21.83969775390625,9.793036460876465,0.1869879961013794,-0.19171300530433655
1779999140679974100,21.85697412109375,9.792186737060547,0.1481429934501648,-0.22559000551700592
1779999140697250800,21.874250732421874,9.79284954071045,0.0816510021686554,-0.25710999965667725
1779999140714527500,21.891527587890625,9.793692588806152,0.0539029985666275,-0.27331599593162537
