time,seconds_elapsed,z,y,x
1779999119222349600,0.399349609375,-0.002474999986588955,0.0170499999076128,-0.02199999988079071
1779999119239626200,0.416626220703125,0.0012374999932944775,0.0317624993622303,0.02447500079870224
1779999119256903000,0.43390283203125,0.002474999986588955,0.035475000739097595,0.05252499878406525
1779999119274179600,0.4511796875,-0.002474999986588955,-0.002474999986588955,0.002474999986588955
1779999119291455700,0.468455810546875,-0.006049999967217445,-0.037812501192092896,-0.059812501072883606
1779999119308732400,0.485732421875,-0.00494999997317791,-0.0317624993622303,-0.04881250113248825
1779999119326009000,0.503009033203125,-0.0037124999798834324,-0.0037124999798834324,-0.0170499999076128
1779999119343285800,0.52028564453125,-0.0012374999932944775,0.02199999988079071,0.0147124994546175
1779999119360562200,0.537562255859375,-0.0012374999932944775,0.02199999988079071,0.01347499992698431
1779999119377838800,0.5548388671875,-0.0037124999798834324,0.006049999967217445,-0.00976249948143959
1779999119395115500,0.572115478515625,-0.002474999986588955,0.002474999986588955,-0.0147124994546175
1779999119412392000,0.589391845703125,-0.0037124999798834324,0.00494999997317791,-0.00494999997317791
1779999119429668600,0.606668701171875,-0.0012374999932944775,0.010999999940395355,0.01223750039935112
1779999119446945000,0.623945068359375,0,0.023237500339746475,0.02447500079870224
1779999119464221700,0.6412216796875,0,0.035475000739097595,0.028049999848008156
1779999119481498400,0.658498291015625,0,0.047712501138448715,0.03423750028014183
1779999119498774800,0.67577490234375,0.0012374999932944775,0.06599999964237213,0.04647500067949295
1779999119516051500,0.693051513671875,-0.002474999986588955,0.028049999848008156,-0.00976249948143959
1779999119533328100,0.710328125,-0.002474999986588955,-0.028049999848008156,-0.0635249987244606
1779999119550604800,0.727604736328125,-0.0012374999932944775,-0.047712501138448715,-0.01223750039935112
1779999119567881200,0.744881103515625,-0.00494999997317791,-0.03904999792575836,-0.0012374999932944775
1779999119585158000,0.762157958984375,-0.0037124999798834324,-0.05004999786615372,-0.002474999986588955
1779999119602434600,0.7794345703125,-0.006049999967217445,-0.06104999780654907,-0.02447500079870224
1779999119619711000,0.7967109375,-0.006049999967217445,-0.04647500067949295,-0.0170499999076128
1779999119636988000,0.81398779296875,-0.002474999986588955,-0.01952499896287918,0.002474999986588955
1779999119654264300,0.831264404296875,-0.0012374999932944775,0.0037124999798834324,0.002474999986588955
1779999119671541000,0.848541015625,-0.002474999986588955,0.030524998903274536,-0.0037124999798834324
1779999119688817700,0.865817626953125,0,0.05252499878406525,0.00976249948143959
1779999119706094000,0.883093994140625,0.0012374999932944775,0.054999999701976776,0.0147124994546175
1779999119723370800,0.900370849609375,-0.0012374999932944775,0.037950001657009125,-0.0035749999806284904
1779999119740647400,0.9176474609375,-0.0012374999932944775,0.020899999886751175,-0.0012374999932944775
1779999119757924000,0.934924072265625,0.0012374999932944775,0.01484999991953373,0.01718750037252903
1779999119775200500,0.952200439453125,-0.0012374999932944775,0.008662499487400055,0.00976249948143959
1779999119792477000,0.969476806640625,-0.00494999997317791,0.002612499985843897,-0.02433750033378601
1779999119809753600,0.986753662109375,-0.00494999997317791,0.006187499966472387,-0.018287500366568565
1779999119827030300,1.0040302734375,-0.0012374999932944775,0.015949999913573265,0.002474999986588955
1779999119844306700,1.021306640625,0,0.02213750034570694,0.0085249999538064
1779999119861583400,1.038583251953125,0,0.020899999886751175,0
1779999119878860000,1.055860107421875,-0.0012374999932944775,0.008662499487400055,0
1779999119896136700,1.07313671875,-0.002474999986588955,0.006187499966472387,-0.015812499448657036
1779999119913413400,1.090413330078125,-0.002474999986588955,0.008662499487400055,-0.004812499973922968
1779999119930689800,1.107689697265625,-0.0037124999798834324,0.011137500405311584,0.007424999959766865
1779999119947966500,1.124966552734375,-0.0037124999798834324,0.006187499966472387,0.00494999997317791
1779999119965243100,1.1422431640625,-0.002474999986588955,-0.004812499973922968,0.002474999986588955
1779999119982519800,1.159519775390625,-0.0012374999932944775,-0.009624999947845936,-0.0085249999538064
1779999119999796500,1.17679638671875,-0.0037124999798834324,-0.025575000792741776,-0.01952499896287918
1779999120017073000,1.194072998046875,0.002474999986588955,-0.0658624991774559,0.01952499896287918
1779999120042988000,1.219988037109375,-0.02447500079870224,-0.005912499967962503,-0.05128749832510948
1779999120060264700,1.2372646484375,0.0085249999538064,-0.04138749837875366,0.04399999976158142
1779999120077541400,1.254541259765625,0.002474999986588955,-0.04138749837875366,-0.00976249948143959
1779999120094817800,1.27181787109375,-0.006187499966472387,-0.023099999874830246,-0.02433750033378601
1779999120112094500,1.289094482421875,-0.0037124999798834324,-0.015812499448657036,-0.00976249948143959
1779999120129371100,1.30637109375,-0.002474999986588955,-0.023099999874830246,-0.010999999940395355
1779999120146647800,1.323647705078125,-0.0012374999932944775,-0.030387500301003456,-0.013337500393390656
1779999120163924200,1.34092431640625,-0.0012374999932944775,-0.027912499383091927,-0.0085249999538064
1779999120181201000,1.358200927734375,-0.00494999997317791,-0.015812499448657036,-0.0170499999076128
1779999120198477300,1.375477294921875,-0.0012374999932944775,-0.009624999947845936,0.00976249948143959
1779999120215754200,1.392754150390625,0.0012374999932944775,-0.025575000792741776,0.0085249999538064
1779999120233030700,1.41003076171875,0,-0.047712501138448715,-0.002474999986588955
1779999120258945500,1.435945556640625,-0.006049999967217445,-0.10147500038146973,-0.02681249938905239
1779999120276222200,1.45322216796875,-0.004812499973922968,-0.19552500545978546,-0.025712499395012856
1779999120293499000,1.470498779296875,-0.010999999940395355,-0.32862499356269836,-0.07081250101327896
1779999120310775300,1.487775390625,-0.020762499421834946,-0.5302000045776367,-0.12209999561309814
1779999120328052000,1.505052001953125,-0.01952499896287918,-0.8490625023841858,-0.047712501138448715
1779999120345328600,1.52232861328125,-0.013337500393390656,-1.4819749593734741,0.3493874967098236
1779999120371243500,1.548243408203125,-0.002337499987334013,-3.1215250492095947,0.5741999745368958
1779999120388520200,1.565520263671875,-0.02199999988079071,-4.274737358093262,-1.9486500024795532
1779999120405796900,1.582796875,-0.06710000336170197,-3.2705750465393066,0.5057250261306763
1779999120423073500,1.600073486328125,0.09652499854564667,-0.3811500072479248,2.052462577819824
1779999120440350000,1.617349853515625,0.002474999986588955,2.2748000621795654,3.0933375358581543
1779999120457626600,1.634626708984375,-0.3041499853134155,3.6027750968933105,1.5380749702453613
1779999120483541500,1.66054150390625,-0.1685750037431717,1.5332624912261963,-4.814700126647949
1779999120500818200,1.677818115234375,-0.03657500073313713,0.1625249981880188,-3.1068124771118164
1779999120518094800,1.6950947265625,0.02447500079870224,-2.255275011062622,5.4818501472473145
1779999120535371300,1.712371337890625,0.2223374992609024,-3.1850500106811523,2.0134124755859375
1779999120552648000,1.72964794921875,0.19181250035762787,-2.3945624828338623,-0.1551000028848648
1779999120569924600,1.746924560546875,-0.0035749999806284904,-0.37014999985694885,-0.678012490272522
1779999120595839500,1.772839599609375,-0.17338749766349792,2.6536123752593994,-0.6609625220298767
1779999120613116200,1.7901162109375,-0.11604999750852585,3.0665249824523926,-2.0684125423431396
1779999120630392800,1.807392822265625,-0.014574999921023846,1.9999375343322754,-3.0665249824523926
1779999120647669500,1.82466943359375,0.06971249729394913,-0.5803874731063843,3.379199981689453
1779999120664946200,1.8419462890625,0.035475000739097595,-2.949237585067749,-0.4776749908924103
1779999120682222800,1.859222900390625,-0.07452499866485596,-3.4134373664855957,-2.199037551879883
1779999120699499300,1.876499267578125,-0.042762499302625656,-1.8033125400543213,1.210687518119812
1779999120716776000,1.89377587890625,0.042762499302625656,0.8563500046730042,2.6034250259399414
1779999120742691000,1.919691162109375,-0.210099995136261,2.935762405395508,1.5380749702453613
1779999120759967500,1.936967529296875,-0.21615000069141388,2.2405624389648438,-2.1807498931884766
1779999120777244200,1.954244140625,-0.14409999549388885,0.1868624985218048,-5.766475200653076
1779999120794520800,1.971520751953125,-0.004812499973922968,-1.4990249872207642,2.805000066757202
1779999120811797500,1.988797607421875,0.17476250231266022,-1.875362515449524,3.2986249923706055
1779999120829074000,2.006073974609375,0.18700000643730164,-2.1807498931884766,0.7195374965667725
1779999120846350600,2.0233505859375,0.07328750193119049,-1.0506374835968018,-0.594962477684021
1779999120863627300,2.040627197265625,-0.059812501072883606,0.6877750158309937,-0.7684875130653381
1779999120880904000,2.057904052734375,-0.11233749985694885,2.1404623985290527,-0.9395374655723572
1779999120898180600,2.0751806640625,-0.07452499866485596,2.5020875930786133,-2.1685125827789307
1779999120915457300,2.092457275390625,0.05252499878406525,1.8215999603271484,-0.7134875059127808
1779999120932733700,2.109733642578125,0.01952499896287918,-0.25657498836517334,1.9938875436782837
1779999120950010400,2.12701025390625,-0.032999999821186066,-2.530137538909912,-1.8508875370025635
1779999120967287000,2.144287109375,-0.06710000336170197,-2.632849931716919,0.3078624904155731
1779999120984563700,2.161563720703125,0.06228749826550484,-1.031112551689148,1.7518874406814575
1779999121001840400,2.17884033203125,0.032999999821186066,0.7000125050544739,2.0794124603271484
1779999121019116800,2.19611669921875,-0.10628750175237656,1.9779374599456787,1.2253999710083008
1779999121036393500,2.2133935546875,-0.17586250603199005,2.104987382888794,-1.2694000005722046
1779999121053670400,2.23067041015625,-0.09404999762773514,0.9516375064849854,-4.162399768829346
1779999121079585000,2.2565849609375,0.01718750037252903,-0.9675874710083008,3.8911125659942627
1779999121096861700,2.27386181640625,0.11247500032186508,-1.8398874998092651,1.6285499334335327
1779999121114138400,2.291138427734375,0.07823749631643295,-2.239462375640869,-0.651199996471405
1779999121131415000,2.3084150390625,0.010999999940395355,-1.1631125211715698,-1.1874500513076782
1779999121148691700,2.325691650390625,-0.014574999921023846,0.5363875031471252,-0.6707249879837036
1779999121174606600,2.351606689453125,0.00976249948143959,2.3187999725341797,-0.5583875179290771
1779999121191883300,2.36888330078125,0.0317624993622303,1.9278874397277832,0.3396250009536743
1779999121209160000,2.386159912109375,-0.002474999986588955,0.23828749358654022,-0.037812501192092896
1779999121235074800,2.41207470703125,-0.02199999988079071,-2.129462480545044,0.3848625123500824
1779999121252351500,2.4293515625,-0.023237500339746475,-2.2895123958587646,-0.1905750036239624
1779999121269628200,2.446628173828125,-0.014574999921023846,-1.0873500108718872,-0.0989999994635582
1779999121286904800,2.46390478515625,0.01347499992698431,0.6242499947547913,0.6022499799728394
1779999121304181500,2.481181396484375,-0.004812499973922968,1.985224962234497,0.6487249732017517
1779999121321458000,2.4984580078125,-0.015812499448657036,2.1012749671936035,-0.7232499718666077
1779999121338734600,2.515734619140625,0.01347499992698431,1.281499981880188,-1.053112506866455
1779999121356011300,2.53301123046875,0.01952499896287918,-0.3543374836444855,1.513737440109253
1779999121373288000,2.550287841796875,-0.04152499884366989,-2.040225028991699,-1.3719749450683594
1779999121390564600,2.567564697265625,-0.03904999792575836,-2.1624624729156494,0.5473874807357788
1779999121407841300,2.58484130859375,0.042762499302625656,-0.8942999839782715,1.0665874481201172
1779999121425118000,2.602117919921875,0.025712499395012856,0.5729625225067139,1.1435874700546265
1779999121442394600,2.61939453125,-0.045237500220537186,1.6468374729156494,0.5131499767303467
1779999121459671000,2.636671142578125,-0.0695749968290329,1.7385499477386475,-1.2583999633789062
1779999121476947700,2.65394775390625,-0.05252499878406525,0.9725375175476074,-3.062812566757202
1779999121494224400,2.671224365234375,0.03423750028014183,-0.329862505197525,2.4080374240875244
1779999121511501000,2.6885009765625,0.03423750028014183,-1.4904999732971191,0.49720001220703125
1779999121528777700,2.70577783203125,-0.0085249999538064,-2.189275026321411,-1.6750249862670898
1779999121554692900,2.73169287109375,-0.010999999940395355,-0.5741999745368958,1.3011624813079834
1779999121571969300,2.74896923828125,0.020762499421834946,1.0995874404907227,1.5185500383377075
1779999121589246000,2.766245849609375,-0.04152499884366989,1.7543624639511108,0.5717250108718872
1779999121606522600,2.783522705078125,-0.042762499302625656,1.293737530708313,-1.596787452697754
1779999121623799300,2.80079931640625,-0.0085249999538064,0.6609625220298767,-2.172224998474121
1779999121641076000,2.818075927734375,0.020762499421834946,-0.6364874839782715,2.6401374340057373
1779999121658352400,2.835352294921875,0.023237500339746475,-1.609025001525879,-0.028049999848008156
1779999121675629000,2.852629150390625,-0.0317624993622303,-1.7336000204086304,-1.5503125190734863
1779999121692906000,2.869906005859375,-0.004812499973922968,-0.5119125247001648,0.030524998903274536
1779999121710182700,2.8871826171875,0.025712499395012856,0.8771125078201294,1.2999249696731567
1779999121727459300,2.904459228515625,-0.015812499448657036,1.6113624572753906,0.5717250108718872
1779999121744735700,2.92173583984375,-0.0170499999076128,1.3341624736785889,-1.264449954032898
1779999121770651000,2.94765087890625,0.02199999988079071,-0.14423750340938568,1.4244999885559082
1779999121787927600,2.964927490234375,-0.01209999993443489,-1.1411124467849731,0.21381250023841858
1779999121805204200,2.982204345703125,-0.02433750033378601,-1.7043124437332153,-1.5100250244140625
1779999121822481000,2.99948095703125,-0.007287499960511923,-1.1459250450134277,1.0163999795913696
1779999121839757600,3.016757568359375,0.04895000159740448,0.1868624985218048,1.032349944114685
1779999121857034000,3.034033935546875,-0.0035749999806284904,1.0481624603271484,0.4618625044822693
1779999121874311000,3.051310791015625,-0.02681249938905239,1.2876875400543213,-0.8600624799728394
1779999121891587600,3.068587646484375,-0.0170499999076128,1.0053999423980713,-1.9657000303268433
1779999121908864000,3.085864013671875,0.0317624993622303,0.1013374999165535,1.8460749387741089
1779999121926140700,3.103140625,-0.010999999940395355,-0.9858750104904175,-0.345674991607666
1779999121943417300,3.120417236328125,-0.025575000792741776,-1.3231624364852905,-1.1349250078201294
1779999121960694000,3.137694091796875,-0.01209999993443489,-0.9773499965667725,1.3279750347137451
1779999121977970700,3.154970703125,0.007424999959766865,-0.032999999821186066,0.7134875059127808
1779999121995247400,3.172247314453125,-0.013337500393390656,0.7525374889373779,0.07452499866485596
1779999122012524300,3.189524169921875,-0.02433750033378601,1.106874942779541,-1.0091124773025513
1779999122029800700,3.20680078125,0.0147124994546175,1.1764500141143799,-1.053112506866455
1779999122047077400,3.224077392578125,0.01966249942779541,0.41538751125335693,1.485550045967102
1779999122072992500,3.249992431640625,-0.0317624993622303,-1.093400001525879,-1.1386375427246094
1779999122090269200,3.267269287109375,-0.0085249999538064,-1.2364000082015991,1.144687533378601
1779999122107545900,3.2845458984375,0.006187499966472387,-0.6987749934196472,0.21986250579357147
1779999122124822500,3.301822509765625,-0.0035749999806284904,0.12209999561309814,-0.30662500858306885
1779999122142099000,3.319098876953125,-0.006049999967217445,0.9113500118255615,-0.6327750086784363
1779999122159375600,3.336375732421875,0.018424998968839645,1.2497375011444092,0.34209999442100525
1779999122176652500,3.353652587890625,0.0012374999932944775,0.8112499713897705,-0.00976249948143959
1779999122193929000,3.370928955078125,-0.006049999967217445,-0.12828749418258667,-0.1966249942779541
1779999122211205600,3.38820556640625,-0.007287499960511923,-0.9541124701499939,0.31638750433921814
1779999122228482300,3.405482421875,-0.02199999988079071,-1.2632124423980713,-0.4386250078678131
1779999122245759000,3.422759033203125,-0.007287499960511923,-0.7990124821662903,0.3591499924659729
1779999122263035600,3.44003564453125,0.0012374999932944775,0.1050499975681305,0.1013374999165535
1779999122280312300,3.457312255859375,0.00494999997317791,0.8845375180244446,-0.2798124849796295
1779999122297589000,3.474589111328125,0.01347499992698431,1.2449250221252441,0.04028749838471413
1779999122314865700,3.49186572265625,0.0085249999538064,0.8588249683380127,0.1405249983072281
1779999122332142300,3.509142333984375,-0.006049999967217445,-0.08676250278949738,-0.21381250023841858
1779999122349419000,3.5264189453125,-0.0085249999538064,-0.9333499670028687,0.22852499783039093
1779999122366695700,3.54369580078125,-0.0170499999076128,-1.2376375198364258,-0.2700499892234802
1779999122383972600,3.56097265625,-0.0085249999538064,-0.7892500162124634,0.18081249296665192
1779999122401249000,3.5782490234375,0,0.06476250290870667,0.05004999786615372
1779999122418525700,3.595525634765625,0.006187499966472387,0.8650124669075012,-0.17476250231266022
1779999122435802400,3.61280224609375,0.0147124994546175,1.2119250297546387,0.1307625025510788
1779999122453079000,3.6300791015625,0.007424999959766865,0.8380625247955322,-0.02447500079870224
1779999122470355700,3.647355712890625,-0.002474999986588955,-0.05128749832510948,-0.0147124994546175
1779999122487632400,3.66463232421875,-0.010999999940395355,-0.9053000211715698,0.037812501192092896
1779999122513547300,3.69054736328125,-0.014574999921023846,-1.0763499736785889,0.04028749838471413
1779999122530824000,3.707823974609375,-0.006049999967217445,-0.404387503862381,0.04152499884366989
1779999122548100900,3.725100830078125,0.0012374999932944775,0.47891250252723694,-0.059812501072883606
1779999122565377500,3.74237744140625,0.00976249948143959,1.101925015449524,0.025712499395012856
1779999122582654000,3.759654052734375,0.00976249948143959,1.0946375131607056,0.025712499395012856
1779999122599931000,3.776930908203125,0.002474999986588955,0.4398624897003174,-0.007287499960511923
1779999122617207600,3.79420751953125,-0.0085249999538064,-0.4862000048160553,0.01347499992698431
1779999122634484200,3.811484130859375,-0.015812499448657036,-1.1141624450683594,-0.057475000619888306
1779999122660399000,3.837399169921875,-0.00976249948143959,-0.7977749705314636,0.00976249948143959
1779999122677675800,3.85467578125,-0.0012374999932944775,0.01952499896287918,0.002474999986588955
1779999122703590700,3.880590576171875,0.0085249999538064,1.0714000463485718,-0.01347499992698431
1779999122720867600,3.89786767578125,0.010999999940395355,1.0799249410629272,0.032999999821186066
1779999122738144000,3.91514404296875,0.002474999986588955,0.4446749985218048,0.010999999940395355
1779999122755420700,3.932420654296875,-0.0085249999538064,-0.4618625044822693,-0.018287500366568565
1779999122772697300,3.949697265625,-0.015812499448657036,-1.0800625085830688,-0.01223750039935112
1779999122789974000,3.96697412109375,-0.013337500393390656,-1.0518749952316284,-0.02681249938905239
1779999122807251000,3.9842509765625,-0.006049999967217445,-0.4226749837398529,0.023237500339746475
1779999122824527600,4.001527587890625,0.002474999986588955,0.4311999976634979,0.010999999940395355
1779999122841804000,4.018803955078125,0.0085249999538064,1.04087495803833,-0.02447500079870224
1779999122859081000,4.0360810546875,0.010999999940395355,1.0628750324249268,0.054999999701976776
1779999122876357600,4.053357666015625,0.002474999986588955,0.4446749985218048,-0.01223750039935112
1779999122893634300,4.07063427734375,-0.007287499960511923,-0.4398624897003174,0.00494999997317791
1779999122910911000,4.087910888671875,-0.014574999921023846,-1.0591624975204468,-0.02681249938905239
1779999122928187600,4.105187744140625,-0.014574999921023846,-1.04087495803833,-0.01952499896287918
1779999122954102800,4.131102783203125,-0.004812499973922968,-0.01223750039935112,0.01347499992698431
1779999122971379500,4.14837939453125,0.0037124999798834324,0.7672500014305115,-0.018287500366568565
1779999122988655900,4.16565576171875,0.007424999959766865,1.1203500032424927,0.018287500366568565
1779999123005932500,4.1829326171875,0.006187499966472387,0.8368250131607056,0.02447500079870224
1779999123023209500,4.20020947265625,-0.002474999986588955,0.030524998903274536,-0.01347499992698431
1779999123040486100,4.217486083984375,-0.01223750039935112,-0.7880125045776367,-0.00494999997317791
1779999123057762800,4.2347626953125,-0.014574999921023846,-1.1081124544143677,-0.03904999792575836
1779999123075039200,4.252039306640625,-0.0085249999538064,-0.7892500162124634,0.010999999940395355
1779999123092316200,4.269316162109375,0,-0.02928750030696392,0.0085249999538064
1779999123109592800,4.2865927734375,0.0085249999538064,0.7415375113487244,-0.007287499960511923
1779999123126869500,4.303869384765625,0.01223750039935112,1.0958750247955322,0.0147124994546175
1779999123144146200,4.321146240234375,0.0085249999538064,0.8258249759674072,0.02681249938905239
1779999123161422800,4.3384228515625,0,0.04028749838471413,-0.0085249999538064
1779999123178699500,4.355699462890625,-0.010999999940395355,-0.7660124897956848,-0.007287499960511923
1779999123195976200,4.37297607421875,-0.014574999921023846,-1.0910625457763672,-0.030524998903274536
1779999123213252900,4.3902529296875,-0.010999999940395355,-0.7880125045776367,0.00494999997317791
1779999123230529500,4.407529541015625,-0.0035749999806284904,-0.04399999976158142,0.0085249999538064
1779999123247806200,4.42480615234375,0.00494999997317791,0.7195374965667725,-0.00494999997317791
1779999123265083000,4.442082763671875,0.008662499487400055,1.0799249410629272,0.00976249948143959
1779999123282359600,4.459359619140625,0.00494999997317791,0.8258249759674072,0.025712499395012856
1779999123308274700,4.485274658203125,-0.007287499960511923,-0.3628624975681305,-0.0085249999538064
1779999123334189800,4.51118994140625,-0.014574999921023846,-1.0678249597549438,-0.0317624993622303
1779999123351466200,4.52846630859375,-0.010999999940395355,-0.7842999696731567,0.0012374999932944775
1779999123368743000,4.545742919921875,-0.002337499987334013,-0.059812501072883606,0.0085249999538064
1779999123386019600,4.56301953125,0.00494999997317791,0.6939625144004822,-0.00494999997317791
1779999123403296300,4.580296142578125,0.008662499487400055,1.056825041770935,0.010999999940395355
1779999123420573200,4.5975732421875,0.006187499966472387,0.8222500085830688,0.023237500339746475
1779999123437849600,4.614849609375,-0.002337499987334013,0.07933750003576279,-0.007287499960511923
1779999123463764700,4.6407646484375,-0.014574999921023846,-0.9541124701499939,-0.02199999988079071
1779999123481041400,4.65804150390625,-0.013337500393390656,-0.9908249974250793,-0.0170499999076128
1779999123498318000,4.675318115234375,-0.007287499960511923,-0.4618625044822693,0.007287499960511923
1779999123524233200,4.701233154296875,0.00494999997317791,0.6682500243186951,0
1779999123541510000,4.718510009765625,0.00976249948143959,1.0335874557495117,0.010999999940395355
1779999123558786600,4.73578662109375,0.007424999959766865,0.8100125193595886,0.02447500079870224
1779999123576063200,4.753063232421875,0,0.08799999952316284,-0.0037124999798834324
1779999123601978000,4.77897802734375,-0.01223750039935112,-0.9333499670028687,-0.0170499999076128
1779999123619255000,4.796255126953125,-0.01223750039935112,-0.9798250198364258,-0.015812499448657036
1779999123636531700,4.81353173828125,-0.006049999967217445,-0.467912495136261,0.0085249999538064
1779999123653808400,4.830808349609375,0.002474999986588955,0.29686251282691956,0.007287499960511923
1779999123671084800,4.848084716796875,0.007424999959766865,0.8918250203132629,-0.0012374999932944775
1779999123688361700,4.86536181640625,0.007424999959766865,0.9810624718666077,0.02681249938905239
1779999123705638400,4.882638427734375,0.0037124999798834324,0.48743748664855957,0.00494999997317791
1779999123722915000,4.8999150390625,-0.007287499960511923,-0.3078624904155731,-0.006049999967217445
1779999123740191700,4.917191650390625,-0.0170499999076128,-0.9063999652862549,-0.018287500366568565
1779999123757468400,4.934468505859375,-0.018287500366568565,-0.9601625204086304,-0.02433750033378601
1779999123774745000,4.9517451171875,-0.010999999940395355,-0.4604874849319458,0.00976249948143959
1779999123792021800,4.969021728515625,0.0037124999798834324,0.2932874858379364,0.0037124999798834324
1779999123809298400,4.98629833984375,0.00976249948143959,0.8772500157356262,-0.0035749999806284904
1779999123826575000,5.0035751953125,0.007287499960511923,0.9604374766349792,0.030524998903274536
1779999123843852000,5.02085205078125,0.002474999986588955,0.47905001044273376,-0.002337499987334013
1779999123861128400,5.03812841796875,-0.004812499973922968,-0.29067498445510864,-0.0012374999932944775
1779999123878405400,5.0554052734375,-0.01347499992698431,-0.8819249868392944,-0.023099999874830246
1779999123895681800,5.072681884765625,-0.0147124994546175,-0.940637469291687,-0.015812499448657036
1779999123912958500,5.08995849609375,-0.0085249999538064,-0.4604874849319458,0.006187499966472387
1779999123930235400,5.1072353515625,-0.0012374999932944775,0.2774749994277954,0
1779999123947512000,5.124511962890625,0.00494999997317791,0.8529124855995178,0.0037124999798834324
1779999123964788700,5.141788818359375,0.00494999997317791,0.9444875121116638,0.015949999913573265
1779999123982065400,5.1590654296875,0,0.4838624894618988,0.007424999959766865
1779999123999342000,5.176342041015625,-0.0085249999538064,-0.2699125111103058,-0.00976249948143959
1779999124016618800,5.19361865234375,-0.015812499448657036,-0.8526374697685242,-0.023099999874830246
1779999124033895400,5.2108955078125,-0.015812499448657036,-0.9174000024795532,-0.015812499448657036
1779999124051172000,5.228172119140625,-0.0085249999538064,-0.4567750096321106,-0.0012374999932944775
1779999124068448800,5.24544873046875,0,0.26028749346733093,0.00494999997317791
1779999124094363600,5.27136376953125,0.007287499960511923,0.9457250237464905,0.007424999959766865
1779999124111640600,5.288640625,0.00494999997317791,0.7661499977111816,0.018424998968839645
1779999124128917200,5.305917236328125,-0.0037124999798834324,0.12223749607801437,-0.006049999967217445
1779999124154832100,5.33183203125,-0.01347499992698431,-0.8281624913215637,-0.01952499896287918
1779999124172108800,5.34910888671875,-0.0147124994546175,-0.8978750109672546,-0.018287500366568565
1779999124189385500,5.366385498046875,-0.0085249999538064,-0.4507249891757965,0.002474999986588955
1779999124215300600,5.392300537109375,0.0037124999798834324,0.5658124685287476,0.002474999986588955
1779999124232577300,5.409577392578125,0.007287499960511923,0.9198749661445618,0.01223750039935112
1779999124249854000,5.42685400390625,0.00494999997317791,0.7489625215530396,0.0170499999076128
1779999124267130600,5.444130615234375,-0.002474999986588955,0.12099999934434891,0.0012374999932944775
1779999124284407300,5.4614072265625,-0.00976249948143959,-0.5814874768257141,-0.01223750039935112
1779999124301684000,5.47868408203125,-0.01347499992698431,-0.9150624871253967,-0.018287500366568565
1779999124318960600,5.495960693359375,-0.0085249999538064,-0.717199981212616,-0.002474999986588955
1779999124336237300,5.5132373046875,-0.002474999986588955,-0.11728750169277191,0.0037124999798834324
1779999124353514000,5.530513916015625,0.00494999997317791,0.5449125170707703,0.006049999967217445
1779999124370790700,5.547790771484375,0.0085249999538064,0.8967750072479248,0.00976249948143959
1779999124388067300,5.5650673828125,0.007287499960511923,0.739062488079071,0.018287500366568565
1779999124405344000,5.582343994140625,0,0.13199999928474426,0
1779999124422620700,5.59962060546875,-0.0085249999538064,-0.5546749830245972,-0.010999999940395355
1779999124439897300,5.6168974609375,-0.01223750039935112,-0.8930624723434448,-0.018287500366568565
1779999124457174000,5.634174072265625,-0.00976249948143959,-0.7085375189781189,-0.0037124999798834324
1779999124483089200,5.660089111328125,0.0012374999932944775,0.2162874937057495,0.00494999997317791
1779999124509004300,5.68600439453125,0.00976249948143959,0.8760125041007996,0.01223750039935112
1779999124526280700,5.70328076171875,0.006187499966472387,0.7244874835014343,0.015949999913573265
1779999124543557400,5.720557373046875,0,0.13433749973773956,-0.0012374999932944775
1779999124560834300,5.737834228515625,-0.0085249999538064,-0.5339124798774719,-0.01347499992698431
1779999124578111000,5.755111083984375,-0.01223750039935112,-0.8650124669075012,-0.018287500366568565
1779999124595387600,5.7723876953125,-0.0085249999538064,-0.6890124678611755,-0.00494999997317791
1779999124612664300,5.789664306640625,-0.002474999986588955,-0.12581250071525574,0.002474999986588955
1779999124629941000,5.80694091796875,0.0037124999798834324,0.5057250261306763,0.006049999967217445
1779999124647217700,5.8242177734375,0.0085249999538064,0.8478249907493591,0.0085249999538064
1779999124664494300,5.841494384765625,0.00494999997317791,0.7062000036239624,0.015949999913573265
1779999124681771000,5.85877099609375,-0.002474999986588955,0.13928750157356262,0
1779999124699047700,5.876047607421875,-0.010999999940395355,-0.5119125247001648,-0.01223750039935112
1779999124716324400,5.893324462890625,-0.014574999921023846,-0.8392999768257141,-0.015812499448657036
1779999124733601000,5.91060107421875,-0.01223750039935112,-0.6767749786376953,-0.006049999967217445
1779999124750877700,5.927877685546875,-0.004812499973922968,-0.13199999928474426,0.00494999997317791
1779999124768154600,5.945154541015625,0.0037124999798834324,0.48496249318122864,0.0037124999798834324
1779999124794069800,5.97106982421875,0.006187499966472387,0.8197749853134155,0.0170499999076128
1779999124811346200,5.98834619140625,0.0012374999932944775,0.45086249709129333,0.007287499960511923
1779999124828622800,6.005622802734375,-0.006049999967217445,-0.1942874938249588,-0.00494999997317791
1779999124854538000,6.0315380859375,-0.01223750039935112,-0.8185374736785889,-0.018287500366568565
1779999124871814700,6.048814697265625,-0.0085249999538064,-0.6634374856948853,-0.0037124999798834324
1779999124889091300,6.06609130859375,-0.0012374999932944775,-0.13323749601840973,0.002474999986588955
1779999124906368300,6.0833681640625,0.00494999997317791,0.4666749835014343,0.006049999967217445
1779999124923644700,6.100644775390625,0.007287499960511923,0.7990124821662903,0.010999999940395355
1779999124940921300,6.11792138671875,0.006187499966472387,0.6732000112533569,0.01347499992698431
1779999124958198000,6.135197998046875,-0.0012374999932944775,0.14409999549388885,0.002474999986588955
1779999124975475000,6.152474853515625,-0.0085249999538064,-0.4739624857902527,-0.01223750039935112
1779999124992751600,6.169751708984375,-0.01223750039935112,-0.7929624915122986,-0.0147124994546175
1779999125010028300,6.1870283203125,-0.00976249948143959,-0.6499624848365784,-0.00494999997317791
1779999125027305000,6.204304931640625,-0.002474999986588955,-0.13805000483989716,0.002474999986588955
1779999125044581600,6.22158154296875,0.00494999997317791,0.4483875036239624,0.0085249999538064
1779999125061858300,6.2388583984375,0.007287499960511923,0.7745375037193298,0.00976249948143959
1779999125079135000,6.256135009765625,0.00494999997317791,0.6547750234603882,0.015949999913573265
1779999125096411600,6.27341162109375,-0.0012374999932944775,0.14300000667572021,0.0012374999932944775
1779999125113688300,6.290688232421875,-0.007287499960511923,-0.45567500591278076,-0.010999999940395355
1779999125130965000,6.307965087890625,-0.010999999940395355,-0.7672500014305115,-0.0147124994546175
1779999125148241700,6.32524169921875,-0.00976249948143959,-0.6316750049591064,-0.006049999967217445
1779999125174156800,6.35115673828125,0,0.16128750145435333,0.0037124999798834324
1779999125191433500,6.36843359375,0.00494999997317791,0.64267498254776,0.00494999997317791
1779999125208710100,6.385710205078125,0.006187499966472387,0.7562500238418579,0.01347499992698431
1779999125225986800,6.40298681640625,0.002474999986588955,0.4324375092983246,0.006049999967217445
1779999125251902000,6.42890185546875,-0.0085249999538064,-0.4361499845981598,-0.010999999940395355
1779999125269178400,6.446178466796875,-0.010999999940395355,-0.7477250099182129,-0.015812499448657036
1779999125286455300,6.463455322265625,-0.0085249999538064,-0.6206749677658081,-0.00494999997317791
1779999125303732000,6.48073193359375,-0.002337499987334013,-0.14300000667572021,0
1779999125321008600,6.498008544921875,0.002474999986588955,0.4166249930858612,0.006049999967217445
1779999125338285300,6.515285400390625,0.006187499966472387,0.734250009059906,0.00976249948143959
1779999125355562000,6.53256201171875,0.00494999997317791,0.6304374933242798,0.01347499992698431
1779999125372838700,6.549838623046875,-0.0012374999932944775,0.15152500569820404,0.0037124999798834324
1779999125390115300,6.567115234375,-0.007287499960511923,-0.4203374981880188,-0.010999999940395355
1779999125407392000,6.58439208984375,-0.010999999940395355,-0.7269625067710876,-0.01347499992698431
1779999125424668700,6.601668701171875,-0.0085249999538064,-0.6109125018119812,-0.006049999967217445
1779999125441945300,6.6189453125,-0.002337499987334013,-0.14781250059604645,0.002474999986588955
1779999125459222000,6.636221923828125,0.002474999986588955,0.39820000529289246,0.00494999997317791
1779999125476499000,6.6534990234375,0.006187499966472387,0.7159624695777893,0.00976249948143959
1779999125493775600,6.670775634765625,0.00494999997317791,0.6206749677658081,0.01223750039935112
1779999125511052000,6.688052001953125,-0.0012374999932944775,0.15757499635219574,0.0012374999932944775
1779999125528328700,6.70532861328125,-0.007287499960511923,-0.4006749987602234,-0.0085249999538064
1779999125545605400,6.72260546875,-0.010999999940395355,-0.7085375189781189,-0.0147124994546175
1779999125562882000,6.739882080078125,-0.0085249999538064,-0.6022499799728394,-0.00494999997317791
1779999125580159000,6.757158935546875,-0.002337499987334013,-0.15399999916553497,0.0012374999932944775
1779999125597435600,6.774435546875,0.002474999986588955,0.3811500072479248,0.006049999967217445
1779999125614712000,6.791712158203125,0.006187499966472387,0.6951999664306641,0.0085249999538064
1779999125631989000,6.808989013671875,0.0037124999798834324,0.6084374785423279,0.01223750039935112
1779999125649265700,6.826265625,-0.0012374999932944775,0.16005000472068787,0.002474999986588955
1779999125666542300,6.843542236328125,-0.007287499960511923,-0.38362500071525574,-0.010999999940395355
1779999125692457500,6.86945751953125,-0.010999999940395355,-0.6927250027656555,-0.010999999940395355
1779999125709734100,6.886734130859375,-0.007287499960511923,-0.40191251039505005,-0.0037124999798834324
1779999125727010800,6.9040107421875,0,0.11604999750852585,0.0037124999798834324
1779999125744287500,6.92128759765625,0.00494999997317791,0.5645750164985657,0.006187499966472387
1779999125761564200,6.938564208984375,0.006049999967217445,0.6891499757766724,0.01223750039935112
1779999125778840800,6.9558408203125,0.002474999986588955,0.41552498936653137,0.008662499487400055
1779999125796117800,6.97311767578125,-0.00494999997317791,-0.11343749612569809,-0.0035749999806284904
1779999125813394200,6.990394287109375,-0.00976249948143959,-0.5692499876022339,-0.013337500393390656
1779999125830670800,7.0076708984375,-0.010999999940395355,-0.6778749823570251,-0.00976249948143959
1779999125847947500,7.024947509765625,-0.006049999967217445,-0.39820000529289246,-0.0035749999806284904
1779999125865224200,7.04222412109375,0,0.10642500221729279,0.0037124999798834324
1779999125882501000,7.059501220703125,0.00494999997317791,0.5473874807357788,0.007424999959766865
1779999125899777800,7.07677783203125,0.006049999967217445,0.6733375191688538,0.010999999940395355
1779999125917054500,7.094054443359375,0.0012374999932944775,0.4105750024318695,0.007424999959766865
1779999125934331000,7.111330810546875,-0.0037124999798834324,-0.10243749618530273,-0.0035749999806284904
1779999125960246000,7.13724609375,-0.00976249948143959,-0.6523000001907349,-0.013337500393390656
1779999125977522700,7.154522705078125,-0.0085249999538064,-0.5692499876022339,-0.007287499960511923
1779999126003437800,7.180437744140625,-0.0012374999932944775,0.0966624990105629,0.0037124999798834324
1779999126020714500,7.197714599609375,0.0037124999798834324,0.5291000008583069,0.006187499966472387
1779999126037991200,7.2149912109375,0.006049999967217445,0.6573874950408936,0.010999999940395355
1779999126063906300,7.24090625,-0.0012374999932944775,0.1699499934911728,0.002474999986588955
1779999126081183000,7.258182861328125,-0.007287499960511923,-0.3394874930381775,-0.007287499960511923
1779999126098459600,7.275459716796875,-0.00976249948143959,-0.6338750123977661,-0.013337500393390656
1779999126124374800,7.301374755859375,-0.006049999967217445,-0.3895374834537506,-0.002337499987334013
1779999126141651200,7.318651123046875,0,0.08689999580383301,0.0037124999798834324
1779999126158928000,7.335927978515625,0.0037124999798834324,0.510812520980835,0.007424999959766865
1779999126176204800,7.353204833984375,0.00494999997317791,0.6428124904632568,0.010999999940395355
1779999126193481500,7.3704814453125,0.0012374999932944775,0.40328750014305115,0.007424999959766865
1779999126210758000,7.3877578125,-0.0037124999798834324,-0.08167500048875809,-0.002337499987334013
1779999126228034600,7.40503466796875,-0.0085249999538064,-0.511775016784668,-0.013337500393390656
1779999126253949700,7.43094970703125,-0.007287499960511923,-0.547249972820282,-0.006049999967217445
1779999126271226400,7.448226318359375,-0.0037124999798834324,-0.1671999990940094,0.0012374999932944775
1779999126288503300,7.46550341796875,0.0012374999932944775,0.3067624866962433,0.006187499966472387
1779999126305779700,7.48277978515625,0.004812499973922968,0.6048625111579895,0.0085249999538064
1779999126323056600,7.500056640625,0.004812499973922968,0.5511000156402588,0.010999999940395355
1779999126340333000,7.5173330078125,-0.0012374999932944775,0.17242500185966492,0.002474999986588955
1779999126357610000,7.53460986328125,-0.006187499966472387,-0.3114374876022339,-0.007287499960511923
1779999126374886700,7.55188671875,-0.00976249948143959,-0.5985375046730042,-0.00976249948143959
1779999126392163300,7.569163330078125,-0.0085249999538064,-0.5374875068664551,-0.006049999967217445
1779999126409440000,7.58643994140625,-0.0037124999798834324,-0.170912504196167,0
1779999126426716700,7.603716552734375,0,0.29205000400543213,0.00494999997317791
1779999126443993300,7.620993408203125,0.0037124999798834324,0.5878124833106995,0.007424999959766865
1779999126461270000,7.63827001953125,0.0037124999798834324,0.5438125133514404,0.010999999940395355
1779999126478546700,7.655546630859375,0,0.17723749577999115,0.002474999986588955
1779999126504461600,7.681461669921875,-0.0085249999538064,-0.4787749946117401,-0.01223750039935112
1779999126521738200,7.69873828125,-0.0085249999538064,-0.6033499836921692,-0.0085249999538064
1779999126539015200,7.71601513671875,-0.006187499966472387,-0.37619999051094055,-0.0035749999806284904
1779999126556291800,7.733291748046875,-0.0012374999932944775,0.06366249918937683,0.0037124999798834324
1779999126573568500,7.750568603515625,0.0037124999798834324,0.4620000123977661,0.007424999959766865
1779999126590845200,7.76784521484375,0.004812499973922968,0.5913875102996826,0.00976249948143959
1779999126608121900,7.785121826171875,0.0037124999798834324,0.38005000352859497,0.00494999997317791
1779999126625398500,7.8023984375,-0.002474999986588955,-0.05967500060796738,-0.002337499987334013
1779999126642675200,7.81967529296875,-0.006187499966472387,-0.45553749799728394,-0.01223750039935112
1779999126659951900,7.836951904296875,-0.0085249999538064,-0.5765374898910522,-0.007287499960511923
1779999126677228500,7.854228515625,-0.006187499966472387,-0.3614875078201294,-0.0035749999806284904
1779999126694505200,7.871505126953125,-0.002474999986588955,0.05637500062584877,0.0037124999798834324
1779999126720420400,7.89742041015625,0.0037124999798834324,0.5425750017166138,0.007424999959766865
1779999126737697000,7.914697021484375,0.002474999986588955,0.5057250261306763,0.0085249999538064
1779999126754973700,7.9319736328125,0,0.17104999721050262,0.0037124999798834324
1779999126772250400,7.94925048828125,-0.006049999967217445,-0.26881250739097595,-0.006049999967217445
1779999126789527000,7.966527099609375,-0.0085249999538064,-0.5387250185012817,-0.00976249948143959
1779999126815442200,7.992442138671875,-0.006049999967217445,-0.35791251063346863,-0.0037124999798834324
1779999126832718600,8.009718505859375,-0.0012374999932944775,0.05004999786615372,0.0037124999798834324
1779999126849995500,8.02699560546875,0.0037124999798834324,0.4251500070095062,0.007287499960511923
1779999126867272200,8.044272216796875,0.00494999997317791,0.5522000193595886,0.00976249948143959
1779999126893187300,8.070187255859375,-0.002474999986588955,0.1685750037431717,0.002474999986588955
1779999126910464000,8.087464111328124,-0.004812499973922968,-0.25657498836517334,-0.006049999967217445
1779999126927740400,8.104740478515625,-0.0085249999538064,-0.520437479019165,-0.010999999940395355
1779999126945017000,8.12201708984375,-0.007287499960511923,-0.4801499843597412,-0.006049999967217445
1779999126962294000,8.1392939453125,-0.002474999986588955,-0.1625249981880188,-0.0012374999932944775
1779999126979570700,8.15657080078125,0.0012374999932944775,0.24557499587535858,0.006049999967217445
1779999126996847400,8.173847412109374,0.002474999986588955,0.5106750130653381,0.007287499960511923
1779999127014124000,8.1911240234375,0.002474999986588955,0.4801499843597412,0.0085249999538064
1779999127031400700,8.208400634765624,-0.0012374999932944775,0.1685750037431717,0.002474999986588955
1779999127048677400,8.225677490234375,-0.004812499973922968,-0.24310000240802765,-0.006049999967217445
1779999127065954000,8.2429541015625,-0.007287499960511923,-0.5021499991416931,-0.00976249948143959
1779999127083230700,8.260230712890625,-0.007287499960511923,-0.467912495136261,-0.00494999997317791
1779999127100507400,8.27750732421875,-0.004812499973922968,-0.16733749210834503,0
1779999127117784300,8.294784423828125,-0.0012374999932944775,0.22605000436306,0.00494999997317791
1779999127135061000,8.31206103515625,0.0037124999798834324,0.4899125099182129,0.0085249999538064
1779999127152337700,8.329337646484374,0.0037124999798834324,0.467912495136261,0.00976249948143959
1779999127169614300,8.3466142578125,0,0.17104999721050262,0.0037124999798834324
1779999127186891000,8.36389111328125,-0.006049999967217445,-0.22962500154972076,-0.00494999997317791
1779999127204167700,8.381167724609375,-0.0085249999538064,-0.4862000048160553,-0.00976249948143959
1779999127221444400,8.3984443359375,-0.007287499960511923,-0.45691248774528503,-0.006049999967217445
1779999127238721000,8.415720947265624,-0.002474999986588955,-0.16596250236034393,-0.0012374999932944775
1779999127255998000,8.432998046875,0,0.21642500162124634,0.0037124999798834324
1779999127273274400,8.4502744140625,0.002474999986588955,0.47533750534057617,0.00494999997317791
1779999127290551000,8.467551025390625,0.002474999986588955,0.4582875072956085,0.006187499966472387
1779999127307827700,8.48482763671875,0,0.17599999904632568,0.0012374999932944775
1779999127325104600,8.502104736328125,-0.0037124999798834324,-0.2124374955892563,-0.007287499960511923
1779999127342381000,8.519381103515625,-0.007287499960511923,-0.4629625082015991,-0.00976249948143959
1779999127359657700,8.53665771484375,-0.007287499960511923,-0.44206249713897705,-0.006049999967217445
1779999127376934400,8.553934326171875,-0.00494999997317791,-0.16843749582767487,-0.002337499987334013
1779999127394211300,8.57121142578125,-0.0012374999932944775,0.20047499239444733,0.006187499966472387
1779999127411488000,8.588488037109375,0.002474999986588955,0.45333749055862427,0.007424999959766865
1779999127428764400,8.605764404296876,0.002474999986588955,0.44481250643730164,0.00976249948143959
1779999127446041000,8.623041015625,-0.0012374999932944775,0.17118750512599945,0.00494999997317791
1779999127463317800,8.64031787109375,-0.006187499966472387,-0.20762500166893005,-0.0035749999806284904
1779999127480594700,8.6575947265625,-0.0085249999538064,-0.45925000309944153,-0.00976249948143959
1779999127497871400,8.674871337890625,-0.007287499960511923,-0.43972501158714294,-0.006049999967217445
1779999127515148000,8.69214794921875,-0.002474999986588955,-0.1671999990940094,-0.0012374999932944775
1779999127532424700,8.7094248046875,0.0012374999932944775,0.20047499239444733,0.0037124999798834324
1779999127549701400,8.726701416015626,0.0035749999806284904,0.45210000872612,0.006187499966472387
1779999127566978000,8.74397802734375,0.0035749999806284904,0.4423374831676483,0.007424999959766865
1779999127584254700,8.761254638671875,0,0.17489999532699585,0.002474999986588955
1779999127601531400,8.778531494140625,-0.0037124999798834324,-0.1966249942779541,-0.006049999967217445
1779999127627446300,8.8044462890625,-0.007287499960511923,-0.47382500767707825,-0.007287499960511923
1779999127653361400,8.830361328125,-0.00494999997317791,-0.170912504196167,0
1779999127670638000,8.84763818359375,0,0.18700000643730164,0.0037124999798834324
1779999127687915000,8.8649150390625,0.002474999986588955,0.4362874925136566,0.007424999959766865
1779999127705191400,8.88219140625,0.002474999986588955,0.432574987411499,0.007424999959766865
1779999127722468000,8.899468017578124,-0.0012374999932944775,0.17599999904632568,0.0037124999798834324
1779999127739744800,8.916744873046875,-0.004812499973922968,-0.1868624985218048,-0.004812499973922968
1779999127757021700,8.934021728515624,-0.0085249999538064,-0.43353748321533203,-0.0085249999538064
1779999127774298400,8.95129833984375,-0.007287499960511923,-0.4250124990940094,-0.006049999967217445
1779999127791574800,8.96857470703125,-0.0037124999798834324,-0.170912504196167,-0.0012374999932944775
1779999127808851700,8.985851806640625,0.0012374999932944775,0.17971250414848328,0.00494999997317791
1779999127826128100,9.003128173828125,0.00494999997317791,0.42528748512268066,0.006187499966472387
1779999127843405000,9.020405029296874,0.002474999986588955,0.42528748512268066,0.008662499487400055
1779999127860681700,9.037681640625,-0.0012374999932944775,0.17476250231266022,0.002474999986588955
1779999127877958400,9.05495849609375,-0.004812499973922968,-0.17943750321865082,-0.0035749999806284904
1779999127895234800,9.07223486328125,-0.007287499960511923,-0.420199990272522,-0.010999999940395355
1779999127921150000,9.09814990234375,-0.004812499973922968,-0.3114374876022339,-0.0035749999806284904
1779999127938426600,9.115426513671874,-0.0012374999932944775,0.00494999997317791,0.0012374999932944775
1779999127955703600,9.13270361328125,0.0012374999932944775,0.3152875006198883,0.00494999997317791
1779999127972980200,9.149980224609376,0.002474999986588955,0.4460499882698059,0.007424999959766865
1779999127990257000,9.1672568359375,0.0012374999932944775,0.31652501225471497,0.006187499966472387
1779999128007533600,9.184533447265625,-0.002474999986588955,0.0013749999925494194,-0.0012374999932944775
1779999128024810200,9.201810302734375,-0.007287499960511923,-0.31501248478889465,-0.007287499960511923
1779999128042087000,9.2190869140625,-0.007287499960511923,-0.43972501158714294,-0.007287499960511923
1779999128059363600,9.236363525390624,-0.006049999967217445,-0.3102000057697296,-0.0035749999806284904
1779999128076640300,9.25364013671875,-0.002474999986588955,-0.0035749999806284904,0.002474999986588955
1779999128093917200,9.270917236328126,0.0012374999932944775,0.3030500113964081,0.006187499966472387
1779999128111193600,9.288193603515625,0.0037124999798834324,0.43505001068115234,0.007424999959766865
1779999128128470500,9.305470458984376,0.0012374999932944775,0.3128125071525574,0.007424999959766865
1779999128145747200,9.322747314453125,-0.002474999986588955,0.006187499966472387,0
1779999128163023600,9.340023681640625,-0.007287499960511923,-0.30291250348091125,-0.006049999967217445
1779999128180300500,9.357300537109374,-0.007287499960511923,-0.42996248602867126,-0.0085249999538064
1779999128197577200,9.3745771484375,-0.004812499973922968,-0.3040125072002411,-0.004812499973922968
1779999128223492000,9.4004921875,0,0.1564749926328659,0.0037124999798834324
1779999128240768800,9.417768798828124,0.002474999986588955,0.38967499136924744,0.006049999967217445
1779999128258045400,9.43504541015625,0.0012374999932944775,0.39586248993873596,0.0085249999538064
1779999128275322000,9.452322021484376,-0.0012374999932944775,0.17352500557899475,0.002474999986588955
1779999128292599000,9.46959912109375,-0.0035749999806284904,-0.15152500569820404,-0.002474999986588955
1779999128309875500,9.48687548828125,-0.006049999967217445,-0.38362500071525574,-0.007287499960511923
1779999128327152400,9.50415234375,-0.006049999967217445,-0.3909125030040741,-0.00494999997317791
1779999128353067500,9.530067626953125,-0.002337499987334013,-0.0147124994546175,0.0012374999932944775
1779999128370344200,9.54734423828125,0.0012374999932944775,0.282150000333786,0.006049999967217445
1779999128387620900,9.564620849609375,0.002474999986588955,0.4141499996185303,0.006049999967217445
1779999128404897500,9.5818974609375,0.0012374999932944775,0.3053874969482422,0.00494999997317791
1779999128422174200,9.59917431640625,-0.002337499987334013,0.015812499448657036,0
1779999128448089300,9.62508935546875,-0.006049999967217445,-0.3713875114917755,-0.006049999967217445
1779999128465365800,9.64236572265625,-0.006049999967217445,-0.38362500071525574,-0.00494999997317791
1779999128482642700,9.659642578125,-0.0035749999806284904,-0.17476250231266022,-0.0012374999932944775
1779999128499919400,9.67691943359375,-0.0012374999932944775,0.1331000030040741,0.002474999986588955
1779999128517195800,9.69419580078125,0.0012374999932944775,0.36410000920295715,0.00494999997317791
1779999128534472700,9.71147265625,0.002474999986588955,0.3848625123500824,0.007287499960511923
1779999128551749400,9.728749267578126,0,0.18205000460147858,0.002474999986588955
1779999128569026000,9.746026123046875,-0.0035749999806284904,-0.12828749418258667,-0.0037124999798834324
1779999128586302500,9.763302490234375,-0.006049999967217445,-0.36038750410079956,-0.007287499960511923
1779999128603579400,9.780579345703124,-0.006049999967217445,-0.37991249561309814,-0.006049999967217445
1779999128620856000,9.79785595703125,-0.0035749999806284904,-0.17833749949932098,-0.002474999986588955
1779999128638132700,9.8151328125,0,0.12457499653100967,0.0037124999798834324
1779999128664047900,9.8410478515625,0.002474999986588955,0.3946250081062317,0.007287499960511923
1779999128681324500,9.858324462890625,0.0012374999932944775,0.3018124997615814,0.00494999997317791
1779999128698601000,9.87560107421875,-0.0035749999806284904,0.032999999821186066,-0.0012374999932944775
1779999128715878000,9.8928779296875,-0.006049999967217445,-0.2540999948978424,-0.00494999997317791
1779999128733154600,9.910154541015626,-0.006049999967217445,-0.3885749876499176,-0.007287499960511923
1779999128750431200,9.92743115234375,-0.006049999967217445,-0.29548749327659607,-0.0035749999806284904
1779999128767708000,9.9447080078125,-0.002474999986588955,-0.0340999998152256,0
1779999128784984800,9.96198486328125,0.0012374999932944775,0.24695000052452087,0.0037124999798834324
1779999128802261500,9.979261474609375,0.002474999986588955,0.38376250863075256,0.007424999959766865
1779999128828176400,10.00517626953125,0,0.18095000088214874,0.0012374999932944775
1779999128845453000,10.022453125,-0.0037124999798834324,-0.11110000312328339,-0.002337499987334013
1779999128862729700,10.039729736328125,-0.006049999967217445,-0.3334375023841858,-0.0085249999538064
1779999128880006700,10.057006591796876,-0.007287499960511923,-0.36024999618530273,-0.004812499973922968
1779999128897283300,10.074283447265625,-0.0037124999798834324,-0.1746249943971634,-0.002337499987334013
1779999128914560000,10.09156005859375,-0.0012374999932944775,0.10889999568462372,0.002474999986588955
1779999128931837000,10.1088369140625,0.0012374999932944775,0.32999998331069946,0.007424999959766865
1779999128949113300,10.12611328125,0.0012374999932944775,0.3568125069141388,0.00494999997317791
1779999128975028500,10.152028564453126,-0.0037124999798834324,0.035612501204013824,0
1779999128992305200,10.16930517578125,-0.006049999967217445,-0.23691250383853912,-0.006049999967217445
1779999129009581800,10.186581787109375,-0.006049999967217445,-0.3651999831199646,-0.004812499973922968
1779999129026858500,10.2038583984375,-0.004812499973922968,-0.28091248869895935,-0.004812499973922968
1779999129044135400,10.221135498046875,-0.0012374999932944775,-0.037812501192092896,0.0012374999932944775
1779999129061411800,10.238411865234376,0.0012374999932944775,0.22495000064373016,0.00494999997317791
1779999129078688500,10.2556884765625,0.0037124999798834324,0.35804998874664307,0.00494999997317791
1779999129104603600,10.281603759765625,0,0.17476250231266022,0.002474999986588955
1779999129121880000,10.298880126953126,-0.002474999986588955,-0.1013374999165535,-0.002337499987334013
1779999129139156700,10.31615673828125,-0.004812499973922968,-0.3139125108718872,-0.006049999967217445
1779999129156433700,10.33343359375,-0.006049999967217445,-0.3431999981403351,-0.006049999967217445
1779999129173710300,10.35071044921875,-0.004812499973922968,-0.170912504196167,0
1779999129190987000,10.367987060546875,-0.0012374999932944775,0.0966624990105629,0.002474999986588955
1779999129208264000,10.385263916015624,0,0.30799999833106995,0.007424999959766865
1779999129225540400,10.402540283203125,0.0012374999932944775,0.3372874855995178,0.006187499966472387
1779999129242817000,10.419817138671876,-0.0012374999932944775,0.1699499934911728,0.0037124999798834324
1779999129260093700,10.43709375,-0.0037124999798834324,-0.0976250022649765,-0.0012374999932944775
1779999129277370600,10.45437060546875,-0.004812499973922968,-0.306487500667572,-0.006049999967217445
1779999129294647300,10.471647216796875,-0.004812499973922968,-0.3359124958515167,-0.0035749999806284904
1779999129320562200,10.497562255859375,-0.002474999986588955,-0.04386249929666519,0.0012374999932944775
1779999129337838800,10.5148388671875,0,0.20899999141693115,0.0037124999798834324
1779999129355115500,10.532115478515625,0,0.3422375023365021,0.00494999997317791
1779999129372392200,10.54939208984375,0,0.2774749994277954,0.00494999997317791
1779999129389669000,10.566669189453124,-0.0012374999932944775,0.05142499879002571,0.0012374999932944775
1779999129406945800,10.58394580078125,-0.0037124999798834324,-0.2063875049352646,-0.0035749999806284904
1779999129424222500,10.601222412109376,-0.006049999967217445,-0.3419624865055084,-0.004812499973922968
1779999129441499000,10.618498779296875,-0.006049999967217445,-0.2784374952316284,-0.0035749999806284904
1779999129458775600,10.635775634765626,-0.0037124999798834324,-0.057337500154972076,-0.0012374999932944775
1779999129476052500,10.653052490234375,-0.0012374999932944775,0.19676250219345093,0.002474999986588955
1779999129493329200,10.6703291015625,0.0012374999932944775,0.3372874855995178,0.00494999997317791
1779999129510605800,10.687605712890624,0.0012374999932944775,0.28476250171661377,0.00494999997317791
1779999129536521000,10.71352099609375,-0.0037124999798834324,-0.0719124972820282,-0.002337499987334013
1779999129553797400,10.73079736328125,-0.007287499960511923,-0.2844874858856201,-0.006049999967217445
1779999129579712500,10.75671240234375,-0.007287499960511923,-0.27719998359680176,-0.002337499987334013
1779999129596989200,10.7739892578125,-0.0037124999798834324,-0.06091250106692314,0.0012374999932944775
1779999129614266000,10.79126611328125,0.0012374999932944775,0.18947499990463257,0.006187499966472387
1779999129631542800,10.808542724609374,0.002474999986588955,0.32381248474121094,0.007424999959766865
1779999129648819200,10.825819091796875,0,0.2689499855041504,0.00494999997317791
1779999129674734300,10.851734375,-0.0037124999798834324,-0.06833750009536743,-0.002337499987334013
1779999129692011000,10.869010986328124,-0.004812499973922968,-0.2699125111103058,-0.004812499973922968
1779999129709288000,10.886287841796875,-0.0037124999798834324,-0.3102000057697296,-0.004812499973922968
1779999129726564400,10.903564453125,-0.002474999986588955,-0.17215000092983246,-0.002337499987334013
1779999129743841000,10.920841064453125,0,0.06476250290870667,0.002474999986588955
1779999129761117700,10.93811767578125,0.002474999986588955,0.26138749718666077,0.00494999997317791
1779999129778394600,10.95539453125,0.002474999986588955,0.3091000020503998,0.006049999967217445
1779999129795671300,10.97267138671875,0.0012374999932944775,0.17476250231266022,0.002474999986588955
1779999129812948000,10.989947998046874,-0.002474999986588955,-0.06228749826550484,-0.0012374999932944775
1779999129830224600,11.007224609375,-0.006049999967217445,-0.2626250088214874,-0.006049999967217445
1779999129847501000,11.0245009765625,-0.006049999967217445,-0.3078624904155731,-0.00494999997317791
1779999129864778000,11.041778076171875,-0.004812499973922968,-0.1722874939441681,-0.0037124999798834324
1779999129882054700,11.0590546875,-0.0012374999932944775,0.06228749826550484,0.002474999986588955
1779999129899331300,11.076331298828125,0.0012374999932944775,0.25905001163482666,0.00494999997317791
1779999129916608300,11.093608154296875,0.0012374999932944775,0.3053874969482422,0.0037124999798834324
1779999129933884700,11.110884765625,-0.0012374999932944775,0.17352500557899475,0.002474999986588955
1779999129951161300,11.128161376953125,-0.0035749999806284904,-0.057475000619888306,-0.0037124999798834324
1779999129977076500,11.154076416015625,-0.006049999967217445,-0.29686251282691956,-0.006049999967217445
1779999129994353200,11.171353271484374,-0.004812499973922968,-0.2503874897956848,-0.002474999986588955
1779999130011629800,11.1886298828125,-0.002474999986588955,-0.06104999780654907,0
1779999130028906500,11.205906494140624,0,0.16128750145435333,0.002474999986588955
1779999130046183400,11.223183349609375,0.0012374999932944775,0.29315000772476196,0.0037124999798834324
1779999130063459800,11.2404599609375,0,0.25533750653266907,0.0037124999798834324
1779999130080736500,11.257736572265625,-0.002474999986588955,0.06847500056028366,0.0012374999932944775
1779999130098013400,11.275013427734375,-0.0035749999806284904,-0.15757499635219574,-0.0037124999798834324
1779999130115289900,11.292289794921874,-0.004812499973922968,-0.2895750105381012,-0.006049999967217445
1779999130132566800,11.30956689453125,-0.004812499973922968,-0.2503874897956848,-0.0037124999798834324
1779999130149843500,11.326843505859374,-0.0012374999932944775,-0.06599999964237213,0.0012374999932944775
1779999130167120100,11.3441201171875,0.0012374999932944775,0.1551000028848648,0.0037124999798834324
1779999130184396800,11.361396728515626,0.002474999986588955,0.28462499380111694,0.006049999967217445
1779999130201673500,11.378673583984375,0.0012374999932944775,0.24681249260902405,0.006049999967217445
1779999130227588400,11.40458837890625,-0.002474999986588955,-0.04881250113248825,-0.0012374999932944775
1779999130253503500,11.43050341796875,-0.00494999997317791,-0.2796750068664551,-0.006049999967217445
1779999130270780200,11.4477802734375,-0.00494999997317791,-0.2404875010251999,-0.0035749999806284904
1779999130288056800,11.465056884765625,-0.002474999986588955,-0.062150001525878906,-0.0012374999932944775
1779999130313972000,11.490971923828125,0,0.2297624945640564,0.00494999997317791
1779999130331248600,11.50824853515625,0.0012374999932944775,0.27871251106262207,0.00494999997317791
1779999130348525300,11.525525390625,-0.0012374999932944775,0.16499999165534973,0.002474999986588955
1779999130365802000,11.542802001953126,-0.002474999986588955,-0.045099999755620956,-0.0012374999932944775
1779999130383078700,11.56007861328125,-0.00494999997317791,-0.22591249644756317,-0.0035749999806284904
1779999130400355300,11.577355224609375,-0.00494999997317791,-0.27348750829696655,-0.0035749999806284904
1779999130417632300,11.59463232421875,-0.00494999997317791,-0.16238750517368317,-0.0012374999932944775
1779999130434908700,11.61190869140625,-0.0037124999798834324,0.040424998849630356,0.0012374999932944775
1779999130452185300,11.629185302734374,0,0.22123749554157257,0.0037124999798834324
1779999130469462000,11.6464619140625,0.0012374999932944775,0.2737624943256378,0.00494999997317791
1779999130486738700,11.66373876953125,0,0.1662375032901764,0.0037124999798834324
1779999130504015000,11.68101513671875,-0.002474999986588955,-0.03891250118613243,-0.0012374999932944775
1779999130521292000,11.6982919921875,-0.00494999997317791,-0.2209624946117401,-0.0035749999806284904
1779999130538569000,11.71556884765625,-0.00494999997317791,-0.2722499966621399,-0.004812499973922968
1779999130555845400,11.732845458984375,-0.0037124999798834324,-0.16362500190734863,-0.0012374999932944775
1779999130573122300,11.750122314453124,-0.002474999986588955,0.03918749839067459,0.0012374999932944775
1779999130590399000,11.76739892578125,0,0.21876250207424164,0.002474999986588955
1779999130607675600,11.784675537109376,0.0012374999932944775,0.2737624943256378,0.006187499966472387
1779999130624952300,11.801952392578125,0,0.16747500002384186,0.002474999986588955
1779999130642228700,11.819228759765625,-0.002474999986588955,-0.03657500073313713,-0.0012374999932944775
1779999130659505700,11.836505615234374,-0.00494999997317791,-0.21848750114440918,-0.004812499973922968
1779999130676782300,11.8537822265625,-0.00494999997317791,-0.27114999294281006,-0.004812499973922968
1779999130694059000,11.87105908203125,-0.00494999997317791,-0.1648624986410141,-0.0012374999932944775
1779999130711335700,11.888335693359375,-0.0012374999932944775,0.03671250119805336,0
1779999130728612600,11.905612548828126,0,0.21518750488758087,0.0037124999798834324
1779999130754527200,11.93152734375,-0.0012374999932944775,0.23471249639987946,0.002474999986588955
1779999130771804200,11.94880419921875,-0.0012374999932944775,0.06971249729394913,0.0012374999932944775
1779999130789080800,11.966080810546876,-0.004812499973922968,-0.1331000030040741,-0.0035749999806284904
1779999130806357500,11.983357421875,-0.006049999967217445,-0.2564375102519989,-0.006049999967217445
1779999130823634200,12.00063427734375,-0.004812499973922968,-0.2283875048160553,-0.0035749999806284904
1779999130840910800,12.017910888671874,-0.002474999986588955,-0.06710000336170197,-0.0012374999932944775
1779999130858187500,12.0351875,0,0.13323749601840973,0.0037124999798834324
1779999130875464200,12.052464111328124,0.0012374999932944775,0.25671249628067017,0.0037124999798834324
1779999130892741000,12.0697412109375,0.0012374999932944775,0.2297624945640564,0.0037124999798834324
1779999130910017800,12.087017822265626,-0.002474999986588955,0.06971249729394913,0.0012374999932944775
1779999130927294200,12.104294189453125,-0.004812499973922968,-0.13062499463558197,-0.0035749999806284904
1779999130944571100,12.121571044921875,-0.006049999967217445,-0.2539624869823456,-0.0035749999806284904
1779999130961847600,12.13884765625,-0.004812499973922968,-0.22591249644756317,-0.0035749999806284904
1779999130979124500,12.15612451171875,-0.002474999986588955,-0.06833750009536743,0
1779999131005039600,12.18203955078125,0.0012374999932944775,0.20418749749660492,0.0037124999798834324
1779999131022316300,12.19931640625,0,0.2579500079154968,0.00494999997317791
1779999131039592700,12.2165927734375,-0.0012374999932944775,0.15895000100135803,0.002474999986588955
1779999131056869600,12.23386962890625,-0.002474999986588955,-0.030387500301003456,0
1779999131074146000,12.25114599609375,-0.004812499973922968,-0.202674999833107,-0.0035749999806284904
1779999131091423000,12.268423095703126,-0.004812499973922968,-0.2539624869823456,-0.0035749999806284904
1779999131108699600,12.28569970703125,-0.0037124999798834324,-0.1574375033378601,-0.002337499987334013
1779999131125976000,12.30297607421875,-0.002474999986588955,0.02694999985396862,0.0012374999932944775
1779999131143252700,12.320252685546874,0,0.19676250219345093,0.0037124999798834324
1779999131160529700,12.33752978515625,0,0.2517625093460083,0.0037124999798834324
1779999131177806300,12.354806396484374,0,0.1601874977350235,0.0012374999932944775
1779999131195082800,12.372082763671875,-0.002474999986588955,-0.02186249941587448,-0.002337499987334013
1779999131212359700,12.389359619140626,-0.004812499973922968,-0.19167499244213104,-0.0035749999806284904
1779999131229636000,12.406635986328125,-0.004812499973922968,-0.24543750286102295,-0.006049999967217445
1779999131246913000,12.4239130859375,-0.0037124999798834324,-0.1551000028848648,-0.002337499987334013
1779999131264189700,12.441189697265624,-0.002474999986588955,0.02461249940097332,0
1779999131281466400,12.45846630859375,0,0.18947499990463257,0.00494999997317791
1779999131298742800,12.47574267578125,0,0.24323749542236328,0.0037124999798834324
1779999131316019700,12.493019775390625,-0.0012374999932944775,0.15523749589920044,0.002474999986588955
1779999131333296400,12.51029638671875,-0.0037124999798834324,-0.02433750033378601,0
1779999131350573000,12.527572998046875,-0.004812499973922968,-0.1891999989748001,-0.004812499973922968
1779999131376488200,12.55348828125,-0.006049999967217445,-0.2124374955892563,-0.0035749999806284904
1779999131393764600,12.5707646484375,-0.002474999986588955,-0.06833750009536743,-0.0012374999932944775
1779999131411041300,12.588041259765625,0,0.11495000123977661,0.0037124999798834324
1779999131428318200,12.605318115234375,0.0012374999932944775,0.2297624945640564,0.0037124999798834324
1779999131445595000,12.622594970703124,0.0012374999932944775,0.20899999141693115,0.00494999997317791
1779999131462871600,12.63987158203125,-0.0012374999932944775,0.06737499684095383,0.0012374999932944775
1779999131480148200,12.657148193359374,-0.002474999986588955,-0.11233749985694885,-0.0035749999806284904
1779999131497425000,12.6744248046875,-0.0037124999798834324,-0.22343750298023224,-0.0035749999806284904
1779999131523340000,12.700340087890625,-0.0037124999798834324,-0.1451999992132187,-0.002337499987334013
1779999131540616700,12.71761669921875,-0.002474999986588955,0.02461249940097332,0
1779999131557893400,12.734893310546875,0,0.17971250414848328,0.002474999986588955
1779999131575170000,12.752170166015626,0.0012374999932944775,0.23223750293254852,0.00494999997317791
1779999131601085200,12.778085205078124,-0.0012374999932944775,0.06847500056028366,0.0012374999932944775
1779999131618361900,12.79536181640625,-0.0037124999798834324,-0.11110000312328339,-0.0035749999806284904
1779999131635638500,12.812638427734376,-0.006049999967217445,-0.2209624946117401,-0.004812499973922968
1779999131661553400,12.838553466796874,-0.004812499973922968,-0.1428624987602234,-0.002337499987334013
1779999131678830000,12.855830078125,-0.0012374999932944775,0.02694999985396862,0.0012374999932944775
1779999131696107000,12.87310693359375,0,0.18095000088214874,0.0037124999798834324
1779999131713383700,12.8903837890625,0,0.2274249941110611,0.0037124999798834324
1779999131730660400,12.907660400390625,0,0.14190000295639038,0.002474999986588955
1779999131747936800,12.924936767578124,-0.0035749999806284904,-0.02694999985396862,-0.0012374999932944775
1779999131765213400,12.94221337890625,-0.004812499973922968,-0.17957499623298645,-0.0037124999798834324
1779999131782490400,12.959490478515624,-0.006049999967217445,-0.22481249272823334,-0.00494999997317791
1779999131799767000,12.97676708984375,-0.0035749999806284904,-0.1405249983072281,-0.0012374999932944775
1779999131817043700,12.994043701171876,-0.0012374999932944775,0.028049999848008156,0.002474999986588955
1779999131834320100,13.011320068359375,0.0012374999932944775,0.17833749949932098,0.0037124999798834324
1779999131851597000,13.02859716796875,0,0.22357499599456787,0.0037124999798834324
1779999131877512000,13.054511962890626,-0.0012374999932944775,0.06104999780654907,0.0012374999932944775
1779999131894788600,13.07178857421875,-0.0035749999806284904,-0.11123749613761902,-0.002474999986588955
1779999131912065300,13.089065185546875,-0.004812499973922968,-0.2162874937057495,-0.0037124999798834324
1779999131929342000,13.106342041015624,-0.0035749999806284904,-0.1942874938249588,-0.0037124999798834324
1779999131946619000,13.123618896484375,-0.002337499987334013,-0.05871250107884407,0
1779999131963895600,13.1408955078125,0,0.10876250267028809,0.0037124999798834324
1779999131981172200,13.158172119140625,0.0012374999932944775,0.2125750035047531,0.00494999997317791
1779999131998448600,13.17544873046875,0,0.1905750036239624,0.0037124999798834324
1779999132015725300,13.192725341796875,-0.002337499987334013,0.057475000619888306,0.0012374999932944775
1779999132033002200,13.210002197265625,-0.0035749999806284904,-0.10876250267028809,-0.002474999986588955
1779999132058917000,13.235917236328126,-0.004812499973922968,-0.21381250023841858,-0.0037124999798834324
1779999132076194000,13.253194091796875,-0.0035749999806284904,-0.1307625025510788,-0.0012374999932944775
1779999132093470700,13.270470703125,-0.002337499987334013,0.028049999848008156,0.0012374999932944775
1779999132110747100,13.2877470703125,0,0.1685750037431717,0.0037124999798834324
1779999132128024000,13.305024169921875,0,0.2125750035047531,0.002474999986588955
1779999132153939000,13.33093896484375,-0.002337499987334013,0.057475000619888306,0
1779999132179854000,13.35685400390625,-0.004812499973922968,-0.16499999165534973,-0.002474999986588955
1779999132197130800,13.374130859375,-0.0035749999806284904,-0.20776249468326569,-0.0037124999798834324
1779999132214407400,13.391407470703125,-0.002337499987334013,-0.12952500581741333,-0.002474999986588955
1779999132231684400,13.408684326171874,-0.0012374999932944775,0.02447500079870224,0.0012374999932944775
1779999132248960800,13.425960693359375,0,0.1625249981880188,0.0012374999932944775
1779999132266237400,13.443237548828124,0,0.20652499794960022,0.0037124999798834324
1779999132283514000,13.46051416015625,0,0.13199999928474426,0
1779999132300790800,13.477790771484376,-0.002337499987334013,-0.018287500366568565,0
1779999132318067700,13.495067626953125,-0.0035749999806284904,-0.15633749961853027,-0.0037124999798834324
1779999132335344000,13.51234423828125,-0.0035749999806284904,-0.20157499611377716,-0.0037124999798834324
1779999132352620800,13.529620849609374,-0.0035749999806284904,-0.12952500581741333,-0.0012374999932944775
1779999132369897500,13.5468974609375,-0.0010999999940395355,0.0170499999076128,0.0012374999932944775
1779999132387174400,13.56417431640625,0,0.15386250615119934,0.00494999997317791
1779999132404450800,13.581450927734375,0,0.20157499611377716,0.0037124999798834324
1779999132421727500,13.5987275390625,-0.0010999999940395355,0.1307625025510788,0.0037124999798834324
1779999132439004200,13.616004150390625,-0.002337499987334013,-0.0170499999076128,0
1779999132456280800,13.63328076171875,-0.004812499973922968,-0.1551000028848648,-0.002474999986588955
1779999132473557800,13.650557861328124,-0.004812499973922968,-0.19910000264644623,-0.002474999986588955
1779999132490834200,13.667834228515625,-0.0035749999806284904,-0.1270499974489212,-0.002474999986588955
1779999132508110800,13.68511083984375,-0.0010999999940395355,0.018287500366568565,0.002474999986588955
1779999132525387500,13.702387451171875,0,0.15028749406337738,0.002474999986588955
1779999132542664200,13.719664306640626,0,0.1966249942779541,0.0037124999798834324
1779999132559941000,13.736941162109375,-0.0010999999940395355,0.1270499974489212,0.002474999986588955
1779999132577217800,13.7542177734375,-0.002337499987334013,-0.0147124994546175,0
1779999132594494500,13.771494384765624,-0.0035749999806284904,-0.14657500386238098,-0.002474999986588955
1779999132611771100,13.788771240234375,-0.004812499973922968,-0.19181250035762787,-0.002474999986588955
1779999132629047800,13.8060478515625,-0.002337499987334013,-0.12581250071525574,-0.0012374999932944775
1779999132646324500,13.823324462890625,-0.0010999999940395355,0.01347499992698431,0.0012374999932944775
1779999132663601200,13.84060107421875,-0.0010999999940395355,0.1428624987602234,0.002474999986588955
1779999132680877800,13.8578779296875,0,0.19181250035762787,0.0037124999798834324
1779999132698154500,13.875154541015625,-0.0010999999940395355,0.1270499974489212,0.002474999986588955
1779999132715431200,13.89243115234375,-0.002337499987334013,-0.010999999940395355,0
1779999132732707800,13.909707763671875,-0.0035749999806284904,-0.14176249504089355,-0.002474999986588955
1779999132749984500,13.926984619140624,-0.0035749999806284904,-0.18809999525547028,-0.002474999986588955
1779999132767261200,13.94426123046875,-0.002474999986588955,-0.12581250071525574,-0.002474999986588955
1779999132784537900,13.961537841796876,-0.0012374999932944775,0.010999999940395355,0.002474999986588955
1779999132801814500,13.978814453125,0.0012374999932944775,0.13928750157356262,0.002474999986588955
1779999132819091200,13.99609130859375,0,0.1868624985218048,0.0037124999798834324
1779999132836368000,14.013367919921874,-0.0012374999932944775,0.12581250071525574,0.0012374999932944775
1779999132853644500,14.03064453125,-0.002474999986588955,-0.00976249948143959,-0.0012374999932944775
1779999132870921200,14.047921142578126,-0.0035749999806284904,-0.13557499647140503,-0.002474999986588955
1779999132888198100,14.0651982421875,-0.0035749999806284904,-0.18205000460147858,-0.002474999986588955
1779999132905474600,14.082474609375,-0.0035749999806284904,-0.12223749607801437,-0.002474999986588955
1779999132922751200,14.099751220703125,-0.002474999986588955,0.00976249948143959,0.0012374999932944775
1779999132940028200,14.117028076171875,0,0.13557499647140503,0.002474999986588955
1779999132957304800,14.134304931640624,0,0.18205000460147858,0.002474999986588955
1779999132974581500,14.15158154296875,-0.0012374999932944775,0.12099999934434891,0.002474999986588955
1779999132991858200,14.168858154296874,-0.0035749999806284904,-0.00976249948143959,0
1779999133009134600,14.186134521484375,-0.004812499973922968,-0.13433749973773956,-0.002474999986588955
1779999133026411500,14.20341162109375,-0.0035749999806284904,-0.17833749949932098,-0.002474999986588955
1779999133043688200,14.220688232421875,-0.002474999986588955,-0.11852499842643738,-0.0012374999932944775
1779999133060964600,14.237964599609375,-0.0012374999932944775,0.0085249999538064,0.002474999986588955
1779999133078241300,14.2552412109375,-0.0012374999932944775,0.13199999928474426,0.002474999986588955
1779999133104156400,14.281156494140625,0,0.16005000472068787,0.002474999986588955
1779999133121433000,14.29843310546875,-0.0012374999932944775,0.06104999780654907,0
1779999133138709800,14.315709716796874,-0.002474999986588955,-0.07204999774694443,-0.0012374999932944775
1779999133155986700,14.332986572265625,-0.0035749999806284904,-0.16128750145435333,-0.002474999986588955
1779999133173263000,14.35026318359375,-0.0035749999806284904,-0.1551000028848648,-0.0012374999932944775
1779999133190540000,14.3675400390625,-0.002474999986588955,-0.059812501072883606,0
1779999133207816400,14.38481640625,-0.0012374999932944775,0.0695749968290329,0.002474999986588955
1779999133225093400,14.40209326171875,0,0.15757499635219574,0.002474999986588955
1779999133242370000,14.4193701171875,0,0.1527625024318695,0.0037124999798834324
1779999133259646700,14.436646728515624,-0.002474999986588955,0.057612501084804535,0.0012374999932944775
1779999133276923400,14.45392333984375,-0.0037124999798834324,-0.07067500054836273,-0.0012374999932944775
1779999133294200000,14.471199951171876,-0.00494999997317791,-0.15619999170303345,-0.0035749999806284904
1779999133311476500,14.4884765625,-0.0037124999798834324,-0.14891250431537628,-0.002337499987334013
1779999133328753400,14.50575341796875,-0.002474999986588955,-0.05609999969601631,0
1779999133354668300,14.531668212890626,0,0.11990000307559967,0.002474999986588955
1779999133371945000,14.548945068359375,0,0.1639000028371811,0.002474999986588955
1779999133389221600,14.5662216796875,-0.0012374999932944775,0.11247500032186508,0
1779999133406498300,14.583498291015625,-0.002474999986588955,-0.0035749999806284904,-0.0012374999932944775
1779999133432413400,14.609413330078125,-0.0037124999798834324,-0.14767499268054962,-0.0035749999806284904
1779999133449690000,14.626690185546876,-0.00494999997317791,-0.14643749594688416,-0.002337499987334013
1779999133475605000,14.65260498046875,-0.0012374999932944775,0.0038499999791383743,0
1779999133492881700,14.669881591796875,0,0.11742500215768814,0.0037124999798834324
1779999133510158300,14.687158447265626,0,0.16142499446868896,0.0037124999798834324
1779999133527435300,14.704435302734375,-0.0012374999932944775,0.11013749986886978,0.0012374999932944775
1779999133544712000,14.7217119140625,-0.002474999986588955,-0.004812499973922968,0
1779999133561988400,14.73898828125,-0.0037124999798834324,-0.11591249704360962,-0.0035749999806284904
1779999133579265000,14.75626513671875,-0.0037124999798834324,-0.15619999170303345,-0.0012374999932944775
1779999133596541700,14.773541748046876,-0.002474999986588955,-0.1073874980211258,-0.002337499987334013
1779999133613818600,14.790818603515625,-0.002474999986588955,0.00494999997317791,0.0012374999932944775
1779999133631095300,14.80809521484375,-0.0012374999932944775,0.11371249705553055,0.002474999986588955
1779999133648372000,14.8253720703125,0,0.1564749926328659,0.0037124999798834324
1779999133665648600,14.842648681640625,-0.0012374999932944775,0.10766249895095825,0.0012374999932944775
1779999133682925000,14.859925048828124,-0.002474999986588955,-0.0035749999806284904,0
1779999133700202000,14.877201904296875,-0.0037124999798834324,-0.11233749985694885,-0.002337499987334013
1779999133717478700,14.894478759765626,-0.00494999997317791,-0.15386250615119934,-0.002337499987334013
1779999133734755300,14.91175537109375,-0.0037124999798834324,-0.10615000128746033,-0.0012374999932944775
1779999133752032000,14.929031982421876,-0.002474999986588955,0.0038499999791383743,0
1779999133769308700,14.94630859375,-0.0012374999932944775,0.11123749613761902,0.0012374999932944775
1779999133786585300,14.96358544921875,0,0.15399999916553497,0.002474999986588955
1779999133803862000,14.980862060546874,-0.0012374999932944775,0.10642500221729279,0.0012374999932944775
1779999133821138700,14.998138671875,-0.002474999986588955,-0.0035749999806284904,-0.0012374999932944775
1779999133838415400,15.015415283203126,-0.0037124999798834324,-0.11233749985694885,-0.002337499987334013
1779999133864330500,15.04133056640625,-0.0037124999798834324,-0.13791249692440033,-0.002337499987334013
1779999133881607000,15.05860693359375,-0.0037124999798834324,-0.05362499877810478,0
1779999133898883800,15.0758837890625,-0.0012374999932944775,0.062424998730421066,0.0012374999932944775
1779999133924798700,15.101798828125,-0.0012374999932944775,0.15166249871253967,0.002474999986588955
1779999133942075400,15.119075439453125,-0.0012374999932944775,0.10518749803304672,0.0012374999932944775
1779999133959352000,15.13635205078125,-0.002474999986588955,0.00013749999925494194,0
1779999133976628700,15.153628662109375,-0.0037124999798834324,-0.10615000128746033,-0.002337499987334013
1779999133993905400,15.170905517578126,-0.0037124999798834324,-0.15138749778270721,-0.002337499987334013
1779999134011182000,15.18818212890625,-0.0037124999798834324,-0.10491249710321426,-0.0012374999932944775
1779999134028459000,15.205458984375,-0.002474999986588955,0.0013749999925494194,0.0012374999932944775
1779999134045735400,15.2227353515625,-0.0012374999932944775,0.10642500221729279,0.0037124999798834324
1779999134063012000,15.24001220703125,-0.0012374999932944775,0.14794999361038208,0.002474999986588955
1779999134080288800,15.257288818359376,-0.002474999986588955,0.10271249711513519,0.002474999986588955
1779999134097565400,15.2745654296875,-0.0037124999798834324,-0.0010999999940395355,-0.0012374999932944775
1779999134114842400,15.29184228515625,-0.0037124999798834324,-0.1036750003695488,-0.0012374999932944775
1779999134132119000,15.309119140625,-0.0037124999798834324,-0.1451999992132187,-0.0012374999932944775
1779999134149395500,15.3263955078125,-0.0037124999798834324,-0.1013374999165535,-0.0012374999932944775
1779999134166672400,15.34367236328125,-0.002474999986588955,0.0013749999925494194,0
1779999134183948800,15.36094873046875,-0.0012374999932944775,0.10271249711513519,0.0012374999932944775
1779999134201225500,15.3782255859375,-0.0012374999932944775,0.14547500014305115,0.002474999986588955
1779999134218502100,15.395502197265625,-0.0012374999932944775,0.10271249711513519,0
1779999134235778800,15.41277880859375,-0.0012374999932944775,0.0013749999925494194,0
1779999134253055500,15.430055419921874,-0.0037124999798834324,-0.1013374999165535,-0.0035749999806284904
1779999134270332400,15.44733251953125,-0.0037124999798834324,-0.14396250247955322,-0.002337499987334013
1779999134287608800,15.46460888671875,-0.0037124999798834324,-0.10009999573230743,-0.0012374999932944775
1779999134304885800,15.4818857421875,-0.0012374999932944775,0.002612499985843897,0
1779999134322162400,15.499162353515626,0,0.10395000129938126,0.0012374999932944775
1779999134339439000,15.516439208984375,0,0.14547500014305115,0.002474999986588955
1779999134356715800,15.5337158203125,0,0.10147500038146973,0.002474999986588955
1779999134382630700,15.559630615234376,-0.0037124999798834324,-0.05609999969601631,-0.0012374999932944775
1779999134399907300,15.5769072265625,-0.0037124999798834324,-0.1331000030040741,-0.0012374999932944775
1779999134417184000,15.59418408203125,-0.0037124999798834324,-0.13062499463558197,-0.002337499987334013
1779999134434461000,15.6114609375,-0.0037124999798834324,-0.05362499877810478,0
1779999134451737300,15.6287373046875,-0.0012374999932944775,0.05389999970793724,0.0012374999932944775
1779999134477652500,15.654652587890626,-0.0012374999932944775,0.14066250622272491,0.0037124999798834324
1779999134494929200,15.67192919921875,0,0.09790000319480896,0.002474999986588955
1779999134520844000,15.697843994140625,-0.002474999986588955,-0.05362499877810478,-0.0012374999932944775
1779999134538120700,15.71512060546875,-0.0037124999798834324,-0.12691250443458557,-0.002337499987334013
1779999134555397400,15.7323974609375,-0.0037124999798834324,-0.12815000116825104,0
1779999134572674000,15.749674072265625,-0.0037124999798834324,-0.05362499877810478,-0.0012374999932944775
1779999134598589200,15.775589111328125,-0.0012374999932944775,0.09790000319480896,0.002474999986588955
1779999134624504300,15.80150439453125,-0.0012374999932944775,0.1284250020980835,0.002474999986588955
1779999134641780700,15.81878076171875,-0.0012374999932944775,0.05389999970793724,0.0012374999932944775
1779999134659057400,15.836057373046875,-0.002474999986588955,-0.05115000158548355,-0.0035749999806284904
1779999134676334000,15.853333984375,-0.0037124999798834324,-0.12443749606609344,-0.002337499987334013
1779999134693610800,15.87061083984375,-0.0037124999798834324,-0.12319999933242798,-0.002337499987334013
1779999134710887700,15.8878876953125,-0.002474999986588955,-0.049912501126527786,0
1779999134728164000,15.9051640625,-0.0012374999932944775,0.052662499248981476,0
1779999134745440800,15.922440673828126,0,0.12347500026226044,0.002474999986588955
1779999134762717400,15.939717529296875,0,0.12333749979734421,0.0037124999798834324
1779999134779994000,15.956994140625,-0.0012374999932944775,0.05128749832510948,0.0012374999932944775
1779999134797271000,15.97427099609375,-0.0035749999806284904,-0.05128749832510948,0
1779999134814547700,15.991547607421875,-0.004812499973922968,-0.12457499653100967,-0.0012374999932944775
1779999134831824400,16.008824462890626,-0.0035749999806284904,-0.12333749979734421,-0.0012374999932944775
1779999134849100800,16.026100830078125,-0.002474999986588955,-0.05004999786615372,-0.0012374999932944775
1779999134866377500,16.04337744140625,-0.0012374999932944775,0.05252499878406525,0.002474999986588955
1779999134883654400,16.060654296875,-0.0012374999932944775,0.12209999561309814,0.002474999986588955
1779999134900930800,16.077930908203125,-0.0012374999932944775,0.12209999561309814,0.002474999986588955
1779999134918207500,16.09520751953125,-0.002474999986588955,0.05004999786615372,0.0012374999932944775
1779999134935484200,16.112484130859375,-0.002474999986588955,-0.05128749832510948,-0.002474999986588955
1779999134952760800,16.1297607421875,-0.0035749999806284904,-0.11976250261068344,-0.002474999986588955
1779999134978676000,16.155676025390626,-0.0035749999806284904,-0.08923749625682831,-0.0012374999932944775
1779999134995952600,16.17295263671875,-0.002474999986588955,0.0012374999932944775,0
1779999135013229300,16.190229248046876,-0.002474999986588955,0.09157499670982361,0
1779999135030506000,16.207506103515627,0,0.12828749418258667,0.002474999986588955
1779999135047782700,16.22478271484375,-0.0012374999932944775,0.09157499670982361,0.0012374999932944775
1779999135073697800,16.25069775390625,-0.002474999986588955,-0.05004999786615372,-0.0012374999932944775
1779999135090974200,16.26797412109375,-0.0035749999806284904,-0.12099999934434891,-0.002474999986588955
1779999135108251000,16.2852509765625,-0.0035749999806284904,-0.11852499842643738,-0.002474999986588955
1779999135125527600,16.302527587890626,-0.002474999986588955,-0.047712501138448715,0
1779999135142804200,16.31980419921875,-0.0012374999932944775,0.05004999786615372,0.002474999986588955
1779999135168719400,16.34571923828125,-0.0012374999932944775,0.1270499974489212,0.0012374999932944775
1779999135185995800,16.362995849609376,-0.002474999986588955,0.08923749625682831,0.002474999986588955
1779999135203272400,16.3802724609375,-0.002474999986588955,-0.0012374999932944775,0
1779999135220549400,16.39754931640625,-0.002474999986588955,-0.08923749625682831,-0.002474999986588955
1779999135237826000,16.414825927734373,-0.002474999986588955,-0.12457499653100967,-0.0012374999932944775
1779999135255102700,16.432102783203124,-0.002474999986588955,-0.08662500232458115,-0.002337499987334013
1779999135272379400,16.44937939453125,-0.002474999986588955,0.0013749999925494194,0.0012374999932944775
1779999135289656000,16.466656005859374,-0.0012374999932944775,0.08566249907016754,0.0012374999932944775
1779999135306932700,16.4839326171875,-0.0012374999932944775,0.12223749607801437,0
1779999135324209400,16.50120947265625,-0.0012374999932944775,0.08813749998807907,0.0012374999932944775
1779999135341486000,16.518486083984374,-0.0012374999932944775,0.0013749999925494194,-0.0012374999932944775
1779999135358762800,16.5357626953125,-0.002474999986588955,-0.08415000140666962,-0.0012374999932944775
1779999135376039400,16.553039306640624,-0.0037124999798834324,-0.11962500214576721,-0.002337499987334013
1779999135401954300,16.578954345703124,-0.002474999986588955,-0.045099999755620956,0
1779999135419231000,16.59623095703125,-0.0012374999932944775,0.047712501138448715,0
1779999135436507600,16.613507568359374,0,0.11371249705553055,0.002474999986588955
1779999135453784600,16.63078466796875,-0.0012374999932944775,0.11123749613761902,0.002474999986588955
1779999135471061200,16.648061279296876,-0.0012374999932944775,0.045375000685453415,0.002474999986588955
1779999135488337700,16.665337646484375,-0.002474999986588955,-0.047575000673532486,-0.0012374999932944775
1779999135514252800,16.691252685546875,-0.0037124999798834324,-0.12209999561309814,-0.0012374999932944775
1779999135531529500,16.708529541015626,-0.0037124999798834324,-0.08538749814033508,0
1779999135548806100,16.72580615234375,-0.002474999986588955,0.00013749999925494194,0.002474999986588955
1779999135566082800,16.743082763671875,-0.0012374999932944775,0.08566249907016754,0.0037124999798834324
1779999135583359500,16.760359375,0,0.11866249889135361,0.0037124999798834324
1779999135600636000,16.777635986328125,-0.0012374999932944775,0.07947500050067902,0.0012374999932944775
1779999135617912800,16.794912841796876,-0.002474999986588955,-0.004812499973922968,0
1779999135643828000,16.820827880859376,-0.0037124999798834324,-0.10615000128746033,-0.002337499987334013
1779999135661104400,16.8381044921875,-0.002474999986588955,-0.1013374999165535,0.0012374999932944775
1779999135678381000,16.855381103515626,-0.0012374999932944775,-0.040150001645088196,0.0012374999932944775
1779999135695657700,16.87265771484375,0,0.042899999767541885,0.002474999986588955
1779999135712934400,16.889934326171876,0,0.0966624990105629,0.002474999986588955
1779999135730210800,16.9072109375,0,0.0929500013589859,0.0012374999932944775
1779999135747487700,16.92448779296875,0,0.037950001657009125,0
1779999135764764400,16.941764404296876,-0.0012374999932944775,-0.037812501192092896,-0.0012374999932944775
1779999135782041000,16.959041015625,-0.002474999986588955,-0.09033749997615814,-0.002337499987334013
1779999135799317800,16.97631787109375,-0.0037124999798834324,-0.08910000324249268,-0.0012374999932944775
1779999135825232600,17.002232666015626,-0.004812499973922968,-0.0010999999940395355,-0.0035749999806284904
1779999135842509300,17.01950927734375,-0.006049999967217445,0.06847500056028366,-0.0012374999932944775
1779999135859786000,17.036785888671876,-0.006049999967217445,0.10518749803304672,-0.0035749999806284904
1779999135877062700,17.054062744140627,-0.006049999967217445,0.08813749998807907,0
1779999135894339300,17.07133935546875,-0.002474999986588955,0.01966249942779541,0
1779999135911616000,17.088615966796876,-0.002474999986588955,-0.062150001525878906,-0.002337499987334013
1779999135928892700,17.105892578125,-0.006049999967217445,-0.10986249893903732,-0.002337499987334013
1779999135946169300,17.12316943359375,-0.006049999967217445,-0.09391249716281891,-0.004812499973922968
1779999135963446000,17.140446044921877,-0.0037124999798834324,-0.015812499448657036,-0.0012374999932944775
1779999135980722700,17.15772265625,0.0012374999932944775,0.07466249912977219,0.0012374999932944775
1779999135997999600,17.17499951171875,0.00494999997317791,0.11990000307559967,0.0012374999932944775
1779999136023914200,17.200914306640627,0.002474999986588955,0.052662499248981476,0
1779999136041191000,17.21819091796875,0,-0.03891250118613243,-0.002337499987334013
1779999136058467800,17.2354677734375,-0.0012374999932944775,-0.10491249710321426,-0.0035749999806284904
1779999136075744500,17.25274462890625,-0.0012374999932944775,-0.1073874980211258,-0.004812499973922968
1779999136093021200,17.270021240234374,0,-0.04138749837875366,-0.0012374999932944775
1779999136110297900,17.2872978515625,0,0.047712501138448715,0
1779999136127574500,17.304574462890624,-0.002474999986588955,0.10889999568462372,0.002474999986588955
1779999136144851200,17.321851318359375,-0.002474999986588955,0.10518749803304672,0
1779999136162128000,17.3391279296875,-0.002474999986588955,0.04661250114440918,0
1779999136179404500,17.356404541015625,-0.002474999986588955,-0.037812501192092896,-0.0012374999932944775
1779999136196681200,17.37368115234375,-0.0037124999798834324,-0.10009999573230743,-0.0012374999932944775
1779999136213957600,17.39095751953125,-0.004812499973922968,-0.10491249710321426,0
1779999136231234300,17.408234375,-0.004812499973922968,-0.05238749831914902,0
1779999136248511200,17.42551123046875,-0.0037124999798834324,0.03189999982714653,0.0012374999932944775
1779999136265788000,17.442787841796875,-0.0012374999932944775,0.09913749992847443,0.002474999986588955
1779999136283064300,17.460064208984374,-0.0012374999932944775,0.10766249895095825,0.0037124999798834324
1779999136300341200,17.47734130859375,-0.002474999986588955,0.052662499248981476,0.0012374999932944775
1779999136317618000,17.494617919921875,-0.0037124999798834324,-0.0340999998152256,0
1779999136334894300,17.511894287109374,-0.0037124999798834324,-0.09886249899864197,-0.002337499987334013
1779999136352171000,17.5291708984375,-0.0037124999798834324,-0.10491249710321426,-0.0012374999932944775
1779999136369448000,17.546447998046876,-0.002474999986588955,-0.04867500066757202,-0.0012374999932944775
1779999136386724400,17.563724365234375,-0.0012374999932944775,0.033137500286102295,0.0012374999932944775
1779999136404001000,17.5810009765625,-0.0012374999932944775,0.09790000319480896,0.002474999986588955
1779999136421277700,17.598277587890625,-0.0012374999932944775,0.10395000129938126,0.002474999986588955
1779999136438554400,17.615554443359375,-0.002474999986588955,0.050187498331069946,0.0012374999932944775
1779999136464469200,17.64146923828125,-0.0037124999798834324,-0.07067500054836273,-0.0012374999932944775
1779999136481746000,17.658745849609375,-0.0037124999798834324,-0.10862500220537186,-0.0012374999932944775
1779999136499022800,17.67602294921875,-0.002474999986588955,-0.08291249722242355,-0.0012374999932944775
1779999136516299500,17.693299560546876,-0.002474999986588955,-0.007149999961256981,0.0012374999932944775
1779999136533576000,17.710575927734375,-0.0012374999932944775,0.06971249729394913,0.0012374999932944775
1779999136559490800,17.73649072265625,-0.0012374999932944775,0.10147500038146973,0.0012374999932944775
1779999136576767700,17.753767822265626,-0.0012374999932944775,0.04895000159740448,0.0012374999932944775
1779999136594044400,17.77104443359375,-0.002474999986588955,-0.030387500301003456,0.0012374999932944775
1779999136611321000,17.788321044921876,-0.0037124999798834324,-0.09267500042915344,-0.0012374999932944775
1779999136628597800,17.80559765625,-0.0037124999798834324,-0.10009999573230743,-0.002337499987334013
1779999136645874400,17.82287451171875,-0.002474999986588955,-0.04867500066757202,-0.0012374999932944775
1779999136663151000,17.840151123046876,-0.0012374999932944775,0.030662499368190765,0.0012374999932944775
1779999136680427800,17.857427734375,0,0.09418749809265137,0.0012374999932944775
1779999136697704400,17.874704345703126,0,0.10271249711513519,0.002474999986588955
1779999136714981000,17.891981201171873,-0.0012374999932944775,0.05142499879002571,0
1779999136732257800,17.9092578125,-0.002474999986588955,-0.030387500301003456,-0.0012374999932944775
1779999136749534500,17.926534423828127,-0.0037124999798834324,-0.09143749624490738,-0.002337499987334013
1779999136766811000,17.943810791015625,-0.002474999986588955,-0.0976250022649765,-0.002337499987334013
1779999136784087800,17.961087890625,-0.002474999986588955,-0.047575000673532486,0
1779999136801364500,17.978364501953124,-0.002474999986588955,0.03189999982714653,0
1779999136818641200,17.99564111328125,-0.0012374999932944775,0.09047500044107437,0.002474999986588955
1779999136835917800,18.012917724609373,-0.0012374999932944775,0.09913749992847443,0.0012374999932944775
1779999136853194200,18.0301943359375,-0.0012374999932944775,0.047712501138448715,0.002474999986588955
1779999136870471000,18.047470947265627,-0.002474999986588955,-0.030387500301003456,0
1779999136887747800,18.064747802734374,-0.00494999997317791,-0.09033749997615814,0
1779999136913662700,18.090662841796874,-0.0037124999798834324,-0.0719124972820282,0
1779999136930939400,18.107939453125,-0.0012374999932944775,0.0038499999791383743,0.00494999997317791
1779999136948216000,18.125216064453124,-0.0012374999932944775,0.07947500050067902,0.0012374999932944775
1779999136965492700,18.14249267578125,0,0.11247500032186508,0.0037124999798834324
1779999136982769400,18.159769287109373,-0.0012374999932944775,0.08071249723434448,0
1779999137008684300,18.185684326171874,-0.002474999986588955,-0.04138749837875366,0
1779999137025961200,18.202961181640624,-0.0037124999798834324,-0.09886249899864197,0
1779999137043237600,18.220237548828123,-0.0037124999798834324,-0.10009999573230743,-0.010999999940395355
1779999137069152500,18.246152587890624,-0.002474999986588955,-0.010862499475479126,0
1779999137086429400,18.263429443359374,-0.0012374999932944775,0.05871250107884407,0.0037124999798834324
1779999137103706000,18.2807060546875,-0.0012374999932944775,0.08937499672174454,-0.013337500393390656
1779999137120982500,18.297982421875,-0.0012374999932944775,0.062424998730421066,0.002474999986588955
1779999137138259200,18.31525927734375,-0.002474999986588955,-0.009624999947845936,-0.004812499973922968
1779999137155536100,18.3325361328125,-0.002474999986588955,-0.0719124972820282,0.008662499487400055
1779999137172812800,18.349812744140625,-0.002474999986588955,-0.08167500048875809,0.00494999997317791
1779999137190089500,18.36708935546875,-0.002474999986588955,-0.03891250118613243,-0.0035749999806284904
1779999137207366100,18.3843662109375,-0.0012374999932944775,0.029424998909235,-0.002337499987334013
1779999137224642600,18.401642578125,-0.0012374999932944775,0.07095000147819519,-0.010999999940395355
1779999137241919200,18.418919189453124,-0.0012374999932944775,0.06613750010728836,0.008662499487400055
1779999137259196200,18.436196044921875,-0.002474999986588955,0.018424998968839645,-0.0035749999806284904
1779999137276472600,18.45347265625,-0.0037124999798834324,-0.03162499889731407,0.0147124994546175
1779999137293749200,18.470749267578125,-0.0037124999798834324,-0.049912501126527786,0.007424999959766865
1779999137311026000,18.48802587890625,-0.0037124999798834324,0.006187499966472387,-0.08428750187158585
1779999137328302600,18.505302490234374,-0.0012374999932944775,0.09047500044107437,0.08318749815225601
1779999137345579300,18.522579345703125,-0.0012374999932944775,0.07218749821186066,0.00494999997317791
1779999137362856000,18.53985595703125,-0.0012374999932944775,-0.0035749999806284904,-0.004812499973922968
1779999137380132600,18.557132568359375,-0.002474999986588955,-0.01209999993443489,-0.12333749979734421
1779999137397409500,18.574409423828126,0,0.11247500032186508,-0.010999999940395355
1779999137414686000,18.59168603515625,0.0012374999932944775,0.20295000076293945,0.00976249948143959
1779999137431962600,18.608962646484375,0,0.17971250414848328,0.0147124994546175
1779999137449239300,18.6262392578125,-0.0012374999932944775,0.07095000147819519,0.00976249948143959
1779999137466516000,18.643515869140625,-0.0037124999798834324,-0.020624998956918716,0.008662499487400055
1779999137483792400,18.66079248046875,-0.002474999986588955,-0.02914999984204769,0.007424999959766865
1779999137501069000,18.678069091796875,-0.0012374999932944775,0.06847500056028366,-0.042762499302625656
1779999137518346000,18.695345947265626,0.00494999997317791,0.21642500162124634,-0.0317624993622303
1779999137544260900,18.7212607421875,0.0037124999798834324,0.27252501249313354,0.03671250119805336
1779999137561537300,18.738537353515625,0.00494999997317791,0.1882375031709671,0.02694999985396862
1779999137578814200,18.755814208984376,0.01223750039935112,0.11990000307559967,0.037950001657009125
1779999137596091000,18.7730908203125,0.0147124994546175,0.1564749926328659,-0.018287500366568565
1779999137613367600,18.790367431640625,0.0085249999538064,0.233474999666214,-0.015812499448657036
1779999137630644200,18.807644287109376,0.002474999986588955,0.26276248693466187,-0.035337500274181366
1779999137647921000,18.8249208984375,0.002474999986588955,0.25423750281333923,-0.0012374999932944775
1779999137673836000,18.8508359375,0.00976249948143959,0.20295000076293945,0.008662499487400055
1779999137691112400,18.868112548828126,0.006049999967217445,0.13089999556541443,-0.013337500393390656
1779999137708389000,18.88538916015625,0.002474999986588955,0.11495000123977661,-0.08181250095367432
1779999137725665800,18.902665771484376,0.0012374999932944775,0.17847499251365662,-0.057337500154972076
1779999137742942700,18.919942626953127,0.002474999986588955,0.2274249941110611,0.029424998909235
1779999137760219400,18.937219482421874,0.002474999986588955,0.2003374993801117,0.05623750016093254
1779999137777496000,18.95449609375,0.002474999986588955,0.14781250059604645,0.057475000619888306
1779999137803411000,18.980410888671877,0.002474999986588955,0.10257499665021896,0.06228749826550484
1779999137820687600,18.9976875,0.00976249948143959,0.13199999928474426,-0.018287500366568565
1779999137837964300,19.01496435546875,0.0012374999932944775,0.1868624985218048,0.002474999986588955
1779999137863879200,19.040879150390627,0,0.23086249828338623,0.05376249924302101
1779999137881155800,19.05815576171875,-0.0035749999806284904,0.20528750121593475,0.06847500056028366
1779999137898432500,19.0754326171875,-0.0035749999806284904,0.17710000276565552,0.01952499896287918
1779999137924347400,19.101347412109376,0.0037124999798834324,0.17586250603199005,0.007287499960511923
1779999137941624000,19.1186240234375,0.0037124999798834324,0.19552500545978546,0.010999999940395355
1779999137958900700,19.135900634765626,0.0037124999798834324,0.2040500044822693,-0.01347499992698431
1779999137976177400,19.153177490234373,0,0.16981250047683716,-0.032999999821186066
1779999137993454000,19.1704541015625,-0.002474999986588955,0.12209999561309814,-0.0695749968290329
1779999138010730500,19.18773046875,0.0037124999798834324,0.09776250272989273,-0.0037124999798834324
1779999138028007200,19.205007080078126,0.006187499966472387,0.12209999561309814,-0.02928750030696392
1779999138045284000,19.2222841796875,0.002474999986588955,0.17352500557899475,-0.0170499999076128
1779999138062560800,19.239560791015624,0.0012374999932944775,0.1905750036239624,0.007287499960511923
1779999138079837400,19.25683740234375,-0.0012374999932944775,0.14781250059604645,-0.0085249999538064
1779999138097114000,19.274114013671873,0.002474999986588955,0.10876250267028809,-0.0085249999538064
1779999138114390800,19.291390869140624,0.0085249999538064,0.10876250267028809,0.002474999986588955
1779999138131667500,19.30866748046875,0.0037124999798834324,0.1368124932050705,0.006049999967217445
1779999138148944100,19.325944091796874,0.0012374999932944775,0.15633749961853027,0.02447500079870224
1779999138166220800,19.343220703125,0,0.15152500569820404,0.025712499395012856
1779999138183497500,19.36049755859375,-0.002474999986588955,0.11233749985694885,0
1779999138200774100,19.377774169921874,-0.0012374999932944775,0.08799999952316284,-0.03423750028014183
1779999138218050800,19.39505078125,0.0037124999798834324,0.10628750175237656,-0.015812499448657036
1779999138235327200,19.4123271484375,0.0012374999932944775,0.10999999940395355,0.037812501192092896
1779999138252604000,19.42960400390625,-0.004812499973922968,0.054999999701976776,-0.030524998903274536
1779999138269880800,19.446880859375,-0.007287499960511923,-0.0037124999798834324,-0.08552499860525131
1779999138287157200,19.4641572265625,-0.004812499973922968,-0.0085249999538064,-0.04881250113248825
1779999138304434000,19.481433837890624,0,0.0317624993622303,0.03671250119805336
1779999138321710600,19.498710693359374,0.0012374999932944775,0.07576250284910202,0.05376249924302101
1779999138338987300,19.5159873046875,0,0.0989999994635582,0.02928750030696392
1779999138356264000,19.533263916015624,-0.002474999986588955,0.09776250272989273,-0.0012374999932944775
1779999138373540900,19.550540771484375,-0.0170499999076128,0.09652499854564667,-0.03671250119805336
1779999138390817300,19.5678173828125,-0.010999999940395355,0.12952500581741333,-0.05004999786615372
1779999138416732200,19.593732177734374,-0.004812499973922968,0.16981250047683716,-0.00494999997317791
1779999138434009000,19.611009033203125,-0.002474999986588955,0.16733749210834503,-0.007287499960511923
1779999138451285800,19.62828564453125,-0.002474999986588955,0.1625249981880188,-0.042762499302625656
1779999138468562400,19.6455625,-0.002474999986588955,0.14300000667572021,-0.045237500220537186
1779999138485838800,19.6628388671875,0,0.09157499670982361,0.007287499960511923
1779999138503115500,19.680115478515624,0,0.05128749832510948,0.0147124994546175
1779999138520392200,19.69739208984375,-0.006049999967217445,0.07204999774694443,-0.06599999964237213
1779999138537668900,19.7146689453125,-0.004812499973922968,0.10999999940395355,0
1779999138554945500,19.731945556640625,0.0012374999932944775,0.09404999762773514,0.04028749838471413
1779999138572222500,19.749222412109376,0,0.04152499884366989,0.0317624993622303
1779999138589499000,19.766498779296874,0,-0.00976249948143959,0
1779999138606775600,19.783775634765625,-0.004812499973922968,-0.023237500339746475,-0.07204999774694443
1779999138624052200,19.80105224609375,-0.0037124999798834324,0.01347499992698431,-0.03904999792575836
1779999138641329000,19.818328857421875,-0.002474999986588955,0.04881250113248825,0
1779999138658605600,19.83560546875,-0.0037124999798834324,0.07947500050067902,-0.037812501192092896
1779999138675882200,19.85288232421875,-0.0012374999932944775,0.09281250089406967,-0.02447500079870224
1779999138693159000,19.870158935546876,0.006187499966472387,0.07947500050067902,0.023237500339746475
1779999138710435600,19.887435546875,0.0085249999538064,0.05623750016093254,0.0952875018119812
1779999138727712300,19.904712158203125,0.00494999997317791,0.045237500220537186,0.10381250083446503
1779999138753627100,19.930627197265625,-0.0012374999932944775,0.030524998903274536,0.030524998903274536
1779999138770903800,19.94790380859375,-0.006049999967217445,0.01484999991953373,-0.00976249948143959
1779999138788180500,19.965180419921875,-0.01223750039935112,0.015949999913573265,-0.032999999821186066
1779999138814095600,19.991095703125,-0.0037124999798834324,0.042899999767541885,-0.04028749838471413
1779999138831372300,20.008372314453126,-0.002474999986588955,0.042899999767541885,-0.02928750030696392
1779999138848649000,20.02564892578125,-0.007287499960511923,0.033137500286102295,-0.057337500154972076
1779999138865925400,20.04292529296875,-0.0085249999538064,0.033137500286102295,-0.07081250101327896
1779999138883202000,20.0602021484375,-0.002474999986588955,0.033137500286102295,0.0037124999798834324
1779999138909117200,20.0861171875,-0.0037124999798834324,0.002612499985843897,0.0611874982714653
1779999138926393600,20.1033935546875,-0.00494999997317791,-0.020624998956918716,0.05252499878406525
1779999138943670300,20.120670166015625,-0.002474999986588955,-0.008387500420212746,0.010999999940395355
1779999138960947000,20.137947021484376,-0.0012374999932944775,0.02694999985396862,0.0147124994546175
1779999138978223900,20.155223876953126,-0.002474999986588955,0.03189999982714653,0
1779999139004138800,20.181138671875,-0.00494999997317791,-0.009624999947845936,-0.030524998903274536
1779999139021415200,20.198415283203126,-0.006049999967217445,-0.01209999993443489,-0.05857500061392784
1779999139038692000,20.215692138671876,-0.0037124999798834324,0.02694999985396862,-0.04881250113248825
1779999139055968800,20.23296875,0,0.06366249918937683,0.02447500079870224
1779999139073245200,20.2502451171875,0.0037124999798834324,0.06847500056028366,0.07823749631643295
1779999139090521900,20.26752197265625,0.002474999986588955,0.03671250119805336,0.07823749631643295
1779999139107798500,20.284798583984376,0.0012374999932944775,-0.009624999947845936,0.03918749839067459
1779999139125075200,20.3020751953125,-0.002474999986588955,-0.02433750033378601,-0.0170499999076128
1779999139150990000,20.327989990234375,-0.006049999967217445,-0.01691249944269657,-0.047575000673532486
1779999139168266800,20.345266845703126,-0.006049999967217445,-0.02433750033378601,-0.04881250113248825
1779999139185543400,20.36254345703125,-0.00494999997317791,-0.0340999998152256,-0.02433750033378601
1779999139202820000,20.379820068359376,-0.002474999986588955,-0.037812501192092896,-0.015812499448657036
1779999139220096800,20.3970966796875,0,-0.03162499889731407,0.020762499421834946
1779999139237373200,20.414373291015625,0.0012374999932944775,-0.018149999901652336,0.045237500220537186
1779999139254650000,20.431650146484376,0.0012374999932944775,-0.0035749999806284904,0.03918749839067459
1779999139271926800,20.4489267578125,-0.0037124999798834324,0.0038499999791383743,-0.0035749999806284904
1779999139289203500,20.466203369140626,-0.007287499960511923,0.0038499999791383743,-0.04399999976158142
1779999139306480000,20.483480224609377,-0.006049999967217445,0.008662499487400055,-0.04152499884366989
1779999139323756800,20.5007568359375,-0.002474999986588955,0.00494999997317791,-0.015812499448657036
1779999139341033700,20.51803369140625,0.0012374999932944775,0.00494999997317791,0.0037124999798834324
1779999139358310400,20.535310302734374,0,0.011137500405311584,0.01347499992698431
1779999139384225300,20.561225341796874,-0.0012374999932944775,0.018424998968839645,0.01952499896287918
1779999139401501700,20.578501708984376,0,0.012374999932944775,0.023237500339746475
1779999139418778600,20.595778564453123,-0.002474999986588955,-0.0035749999806284904,-0.002337499987334013
1779999139436055300,20.61305517578125,-0.0037124999798834324,-0.007149999961256981,-0.0170499999076128
1779999139453332000,20.63033203125,-0.0012374999932944775,0.0038499999791383743,0.0147124994546175
1779999139470608600,20.647608642578124,0,0.00989999994635582,0.035475000739097595
1779999139487885000,20.664885009765626,-0.0012374999932944775,0.00494999997317791,0.00494999997317791
1779999139505161700,20.68216162109375,-0.006049999967217445,-0.004812499973922968,-0.03657500073313713
1779999139522438400,20.6994384765625,-0.007287499960511923,-0.02681249938905239,-0.045099999755620956
1779999139539715300,20.71671533203125,-0.00494999997317791,-0.05238749831914902,-0.02681249938905239
1779999139556991700,20.73399169921875,-0.0037124999798834324,-0.04867500066757202,-0.015812499448657036
1779999139574268400,20.751268310546877,-0.002474999986588955,-0.013337500393390656,-0.0012374999932944775
1779999139591545000,20.768545166015624,0.0012374999932944775,0.033137500286102295,0.0317624993622303
1779999139608821800,20.78582177734375,0.002474999986588955,0.050187498331069946,0.035475000739097595
1779999139634737000,20.81173681640625,-0.0012374999932944775,0.01484999991953373,0.008662499487400055
1779999139660651500,20.837651611328123,-0.002474999986588955,0.008662499487400055,0
1779999139677928200,20.85492822265625,-0.0012374999932944775,0.03189999982714653,-0.013337500393390656
1779999139695205000,20.872205078125,0.0012374999932944775,0.047712501138448715,-0.0035749999806284904
1779999139712481800,20.889481689453124,-0.0012374999932944775,0.029424998909235,0.007424999959766865
1779999139729758500,20.906758544921875,-0.0037124999798834324,-0.01691249944269657,0
1779999139747035100,20.92403515625,-0.002474999986588955,-0.047575000673532486,0.01718750037252903
1779999139764311800,20.941311767578124,-0.0012374999932944775,-0.03657500073313713,0.00494999997317791
1779999139781588500,20.95858837890625,0.0012374999932944775,0.0013749999925494194,0.025712499395012856
1779999139798865200,20.975865234375,-0.0012374999932944775,0.01966249942779541,0.0147124994546175
1779999139824780000,21.001780029296874,-0.0037124999798834324,0.013612499460577965,-0.020762499421834946
1779999139842056700,21.019056640625,-0.00494999997317791,0.0038499999791383743,-0.04028749838471413
1779999139859333600,21.036333740234376,-0.0012374999932944775,0.002612499985843897,-0.018287500366568565
1779999139885248300,21.062248291015624,0.004812499973922968,0.0648999959230423,0.07576250284910202
1779999139902525000,21.07952490234375,0.0037124999798834324,0.08937499672174454,0.08428750187158585
1779999139919801600,21.096801513671874,-0.0012374999932944775,0.05871250107884407,0.007424999959766865
1779999139937078300,21.114078369140625,-0.0085249999538064,0.002612499985843897,-0.07576250284910202
1779999139954355000,21.13135498046875,-0.010999999940395355,-0.0340999998152256,-0.09886249899864197
1779999139971631600,21.148631591796875,-0.00494999997317791,-0.04386249929666519,-0.05004999786615372
1779999139988908300,21.165908203125,0,-0.062150001525878906,0.00494999997317791
1779999140006184700,21.183184814453124,-0.002474999986588955,-0.1073874980211258,0.0037124999798834324
1779999140023461400,21.20046142578125,-0.00976249948143959,-0.2209624946117401,-0.07204999774694443
1779999140040738000,21.217738037109374,-0.01347499992698431,-0.39077499508857727,-0.11233749985694885
1779999140058015000,21.235014892578125,-0.01347499992698431,-0.6656374931335449,-0.023237500339746475
1779999140075291600,21.252291748046876,-0.0085249999538064,-1.140974998474121,0.24199999868869781
1779999140092568300,21.269568359375,-0.01223750039935112,-1.888700008392334,0.5559124946594238
1779999140109844700,21.2868447265625,-0.05252499878406525,-2.836625099182129,0.9762499928474426
1779999140127121400,21.304121337890624,0.037812501192092896,-3.740687370300293,0.10395000129938126
1779999140144398000,21.321398193359375,-0.00494999997317791,-3.395012378692627,-1.373212456703186
1779999140161674800,21.3386748046875,-0.006049999967217445,-1.1837375164031982,-0.38967499136924744
1779999140178951400,21.355951416015625,0.03423750028014183,1.417349934577942,1.3084499835968018
1779999140196227800,21.373227783203124,-0.037812501192092896,3.257237434387207,1.6700749397277832
1779999140213504500,21.39050439453125,-0.10023749619722366,3.0849499702453613,-0.5631999969482422
1779999140230781400,21.407781494140625,-0.10999999940395355,0.9554874897003174,-3.827587366104126
1779999140248058000,21.42505810546875,0.01952499896287918,-1.5258375406265259,2.692662477493286
1779999140265334500,21.44233447265625,0.057475000619888306,-2.971100091934204,0.8820624947547913
1779999140282611200,21.459611083984374,0.030524998903274536,-3.16043758392334,-0.9956374764442444
1779999140299887900,21.476887939453125,0.01347499992698431,-1.224025011062622,-0.5765374898910522
1779999140325803000,21.502802978515625,-0.00976249948143959,2.059887409210205,1.210824966430664
1779999140343079400,21.520079345703124,-0.08304999768733978,3.1814749240875244,0.5644375085830688
1779999140360356000,21.537356201171875,-0.054999999701976776,2.1454124450683594,-2.247849941253662
1779999140377632800,21.5546328125,0.02199999988079071,0.5340499877929688,-0.5374875068664551
1779999140394909400,21.571909423828124,-0.006049999967217445,-1.6956499814987183,2.124650001525879
1779999140412186000,21.58918603515625,0.01223750039935112,-3.2104873657226562,-1.198449969291687
1779999140429462800,21.606462890625,-0.05376249924302101,-2.1708500385284424,-1.288925051689148
1779999140446739500,21.623739501953125,0.01347499992698431,-0.21972499787807465,1.264449954032898
1779999140464016100,21.64101611328125,-0.0037124999798834324,1.9377875328063965,2.130699872970581
1779999140481292800,21.658292724609375,-0.11123749613761902,2.885849952697754,1.1240625381469727
1779999140498569500,21.675569580078125,-0.09776250272989273,1.9145499467849731,-2.0439374446868896
1779999140524484400,21.701484375,0.007287499960511923,-0.6437749862670898,0.6304374933242798
1779999140541761000,21.718760986328125,0.02928750030696392,-1.9375125169754028,2.5986125469207764
1779999140559037700,21.73603759765625,0.08304999768733978,-2.5239500999450684,0.006187499966472387
1779999140576314400,21.753314453125,0.02199999988079071,-1.4793624877929688,-0.7512999773025513
1779999140602229000,21.77922900390625,-0.023237500339746475,1.2573000192642212,0.054999999701976776
1779999140619506000,21.796505859375,-0.04399999976158142,2.544987440109253,-0.15757499635219574
1779999140636782600,21.813782470703124,-0.037812501192092896,2.250462532043457,-1.8984625339508057
1779999140654059300,21.831059326171875,0.04028749838471413,0.8357250094413757,0.7489625215530396
1779999140671336000,21.8483359375,-0.01347499992698431,-1.2374999523162842,0.42281249165534973
1779999140688612600,21.865612548828125,-0.0635249987244606,-2.687575101852417,-1.5210249423980713
1779999140705889000,21.882888916015624,-0.037812501192092896,-2.400475025177002,1.3707374334335327
1779999140723165700,21.900165771484374,0.03904999792575836,-0.5130124688148499,1.4844499826431274
1779999140740442600,21.917442626953125,-0.0037124999798834324,1.202299952507019,1.5760250091552734
1779999140757719300,21.93471923828125,-0.12828749418258667,2.1528375148773193,0.3152875006198883
1779999140774996000,21.951995849609375,-0.11962500214576721,1.8484125137329102,-2.1977999210357666
1779999140792272400,21.9692724609375,-0.06833750009536743,0.8893499970436096,-3.822774887084961
1779999140809549000,21.986549072265625,0.028187500312924385,-0.8417750000953674,3.5014374256134033
1779999140826825700,22.00382568359375,0.08923749625682831,-1.9621249437332153,1.0115875005722046
1779999140844102400,22.021102294921874,0.04399999976158142,-2.431274890899658,-1.1764500141143799
1779999140861379000,22.038379150390625,-0.00976249948143959,-1.227874994277954,-1.4037375450134277
1779999140878655700,22.05565576171875,0.01952499896287918,0.64267498254776,-0.1685750037431717
1779999140904570600,22.081570556640624,0.00976249948143959,2.4531373977661133,0.44343748688697815
1779999140921847300,22.098847412109375,-0.002337499987334013,1.8020750284194946,-1.093400001525879
1779999140939124200,22.116124267578126,0.02447500079870224,0.1942874938249588,0.9345874786376953
1779999140956401000,22.13340087890625,-0.028049999848008156,-1.6150749921798706,-0.594962477684021
1779999140982316000,22.15931591796875,-0.025575000792741776,-2.2602250576019287,0.7709624767303467
1779999140999592200,22.17659228515625,0.02447500079870224,-0.9810624718666077,0.5693874955177307
1779999141016869000,22.193869140625,0.0147124994546175,0.6217749714851379,0.8197749853134155
1779999141042784000,22.219783935546875,-0.054999999701976776,2.063462495803833,-0.22962500154972076
1779999141060060700,22.237060791015626,-0.054999999701976776,1.5100250244140625,-2.334749937057495
1779999141077337000,22.254337158203125,0.0317624993622303,0.4801499843597412,0.5961999893188477
1779999141094614000,22.271614013671876,-0.023099999874830246,-0.9700624942779541,1.1178749799728394
1779999141111890700,22.288890625,-0.020762499421834946,-2.310275077819824,-1.7298874855041504
1779999141129167400,22.30616748046875,-0.037812501192092896,-1.7751250267028809,0.35557499527931213
1779999141146444000,22.323444091796876,0.045237500220537186,-0.14300000667572021,1.527074933052063
1779999141163720700,22.340720703125,0.002474999986588955,1.202162504196167,1.363450050354004
1779999141180997000,22.3579970703125,-0.07081250101327896,1.7445999383926392,-0.0085249999538064
1779999141198273800,22.375273681640625,-0.06476250290870667,1.272974967956543,-2.284562587738037
1779999141215550500,22.392550537109376,0.01223750039935112,0.8185374736785889,-1.5039750337600708
1779999141232827400,22.409827392578126,0.008662499487400055,-0.5974375009536743,2.7073750495910645
1779999141250103800,22.427103759765625,0.018424998968839645,-1.7397874593734741,-0.3018124997615814
1779999141267380500,22.44438037109375,-0.054999999701976776,-1.7957500219345093,-1.7776000499725342
1779999141284657200,22.4616572265625,-0.00976249948143959,-0.5130124688148499,0.32010000944137573
1779999141301933800,22.478933837890626,0.02928750030696392,1.0385375022888184,1.4269750118255615
1779999141319210500,22.49621044921875,-0.023237500339746475,1.7397874593734741,0.5926250219345093
1779999141336487000,22.51348681640625,-0.02694999985396862,1.3525874614715576,-1.4220249652862549
1779999141353763800,22.530763916015626,0.0085249999538064,0.7282000184059143,-1.1629749536514282
1779999141371040500,22.54804052734375,0.0085249999538064,-0.5570124983787537,1.9816499948501587
1779999141388317200,22.565317138671876,-0.0037124999798834324,-1.6504124402999878,-0.8551124930381775
1779999141405593900,22.58259375,-0.03904999792575836,-1.3095500469207764,-0.9700624942779541
1779999141422870300,22.599870361328126,-0.01347499992698431,-0.4422000050544739,1.359737515449524
1779999141440147000,22.61714697265625,-0.00494999997317791,0.7698624730110168,1.0177749395370483
1779999141457423600,22.634423583984375,-0.02928750030696392,1.368399977684021,-0.0012374999932944775
