time,seconds_elapsed,z,y,x
1779999119222349600,0.399349609375,0,0.01677500084042549,-0.02199999988079071
1779999119239626200,0.416626220703125,0.0037124999798834324,0.03148749843239784,0.02433750033378601
1779999119256903000,0.43390283203125,0.004812499973922968,0.03506249934434891,0.05252499878406525
1779999119274179600,0.4511796875,0,-0.002749999985098839,0.002337499987334013
1779999119291455700,0.468455810546875,-0.0037124999798834324,-0.038224998861551285,-0.059950001537799835
1779999119308732400,0.485732421875,-0.002474999986588955,-0.03217500075697899,-0.04895000159740448
1779999119326009000,0.503009033203125,-0.0012374999932944775,-0.003987499978393316,-0.01718750037252903
1779999119343285800,0.52028564453125,0.0012374999932944775,0.021587500348687172,0.014574999921023846
1779999119360562200,0.537562255859375,0.0012374999932944775,0.021587500348687172,0.013337500393390656
1779999119377838800,0.5548388671875,-0.0012374999932944775,0.0057749999687075615,-0.00989999994635582
1779999119395115500,0.572115478515625,0,0.002062499988824129,-0.0147124994546175
1779999119412392000,0.589391845703125,-0.0012374999932944775,0.004537499975413084,-0.00494999997317791
1779999119429668600,0.606668701171875,0.0012374999932944775,0.010587500408291817,0.01209999993443489
1779999119446945000,0.623945068359375,0.002474999986588955,0.022824998944997787,0.02433750033378601
1779999119464221700,0.6412216796875,0.002474999986588955,0.03506249934434891,0.028049999848008156
1779999119481498400,0.658498291015625,0.002474999986588955,0.04729999974370003,0.0340999998152256
1779999119498774800,0.67577490234375,0.0037124999798834324,0.06558749824762344,0.04633750021457672
1779999119516051500,0.693051513671875,0,0.027775000780820847,-0.00989999994635582
1779999119533328100,0.710328125,0,-0.028462499380111694,-0.06366249918937683
1779999119550604800,0.727604736328125,0.0012374999932944775,-0.047987498342990875,-0.01223750039935112
1779999119567881200,0.744881103515625,-0.002474999986588955,-0.03946249932050705,-0.0012374999932944775
1779999119585158000,0.762157958984375,-0.0012374999932944775,-0.050462499260902405,-0.002474999986588955
1779999119602434600,0.7794345703125,-0.0037124999798834324,-0.06146249920129776,-0.02447500079870224
1779999119619711000,0.7967109375,-0.0037124999798834324,-0.04675000160932541,-0.01718750037252903
1779999119636988000,0.81398779296875,0,-0.01993750035762787,0.002337499987334013
1779999119654264300,0.831264404296875,0.0012374999932944775,0.0032999999821186066,0.002337499987334013
1779999119671541000,0.848541015625,0,0.030249999836087227,-0.0037124999798834324
1779999119688817700,0.865817626953125,0.002474999986588955,0.05224999785423279,0.00976249948143959
1779999119706094000,0.883093994140625,0.0037124999798834324,0.05458749830722809,0.014574999921023846
1779999119723370800,0.900370849609375,0.0012374999932944775,0.037675000727176666,-0.0037124999798834324
1779999119740647400,0.9176474609375,0.0012374999932944775,0.020487500354647636,-0.0012374999932944775
1779999119757924000,0.934924072265625,0.0035749999806284904,0.014437500387430191,0.0170499999076128
1779999119775200500,0.952200439453125,0.0012374999932944775,0.008387500420212746,0.00976249948143959
1779999119792477000,0.969476806640625,-0.002474999986588955,0.002199999988079071,-0.02447500079870224
1779999119809753600,0.986753662109375,-0.002474999986588955,0.005912499967962503,-0.018287500366568565
1779999119827030300,1.0040302734375,0.0012374999932944775,0.015675000846385956,0.002474999986588955
1779999119844306700,1.021306640625,0.002337499987334013,0.021724998950958252,0.0085249999538064
1779999119861583400,1.038583251953125,0.002337499987334013,0.020487500354647636,0
1779999119878860000,1.055860107421875,0.0012374999932944775,0.008387500420212746,0
1779999119896136700,1.07313671875,0,0.005912499967962503,-0.015949999913573265
1779999119913413400,1.090413330078125,0,0.008387500420212746,-0.00494999997317791
1779999119930689800,1.107689697265625,-0.0012374999932944775,0.010724999941885471,0.007287499960511923
1779999119947966500,1.124966552734375,-0.0012374999932944775,0.005912499967962503,0.004812499973922968
1779999119965243100,1.1422431640625,0,-0.005087499972432852,0.002474999986588955
1779999119982519800,1.159519775390625,0.0012374999932944775,-0.010037500411272049,-0.0085249999538064
1779999119999796500,1.17679638671875,-0.0012374999932944775,-0.025849999859929085,-0.01952499896287918
1779999120017073000,1.194072998046875,0.004812499973922968,-0.06613750010728836,0.01952499896287918
1779999120034349600,1.211349609375,-0.006187499966472387,0.05967500060796738,-0.01347499992698431
1779999120051626200,1.228626220703125,-0.006187499966472387,0.04496249929070473,0.018287500366568565
1779999120068903000,1.24590283203125,0.013337500393390656,-0.011274999938905239,0.032999999821186066
1779999120086179600,1.2631796875,-0.0037124999798834324,-0.04661250114440918,-0.04152499884366989
1779999120103456000,1.2804560546875,-0.00494999997317791,-0.06132499873638153,-0.025712499395012856
1779999120120732700,1.297732666015625,0,-0.038087498396635056,-0.010999999940395355
1779999120138009300,1.31500927734375,0.002337499987334013,-0.011274999938905239,-0.0037124999798834324
1779999120155286000,1.3322861328125,0.002337499987334013,-0.006324999965727329,-0.0012374999932944775
1779999120172562400,1.3495625,-0.0012374999932944775,-0.013612499460577965,-0.01718750037252903
1779999120189839000,1.366839111328125,-0.0012374999932944775,-0.021037500351667404,-0.0085249999538064
1779999120207115800,1.38411572265625,0.0035749999806284904,-0.02956249937415123,0.00976249948143959
1779999120224392400,1.401392333984375,0.0012374999932944775,-0.043175000697374344,-0.0037124999798834324
1779999120241668900,1.4186689453125,-0.0012374999932944775,-0.06146249920129776,-0.008662499487400055
1779999120258945500,1.435945556640625,-0.0035749999806284904,-0.10175000131130219,-0.02694999985396862
1779999120276222200,1.45322216796875,-0.002474999986588955,-0.19580000638961792,-0.025712499395012856
1779999120293499000,1.470498779296875,-0.0085249999538064,-0.32903748750686646,-0.07095000147819519
1779999120310775300,1.487775390625,-0.018287500366568565,-0.5306124687194824,-0.12223749607801437
1779999120328052000,1.505052001953125,-0.0170499999076128,-0.8494749665260315,-0.047712501138448715
1779999120345328600,1.52232861328125,-0.010999999940395355,-1.4822499752044678,0.3493874967098236
1779999120371243500,1.548243408203125,0,-3.121799945831299,0.5741999745368958
1779999120388520200,1.565520263671875,-0.01952499896287918,-4.275149822235107,-1.9486500024795532
1779999120405796900,1.582796875,-0.06476250290870667,-3.2708499431610107,0.5057250261306763
1779999120423073500,1.600073486328125,0.0989999994635582,-0.3815625011920929,2.052462577819824
1779999120440350000,1.617349853515625,0.00494999997317791,2.2745249271392822,3.0933375358581543
1779999120457626600,1.634626708984375,-0.3016749918460846,3.6024999618530273,1.5380749702453613
1779999120474903300,1.6519033203125,-0.3053874969482422,2.8144874572753906,-2.6646125316619873
1779999120492180000,1.669179931640625,-0.18205000460147858,0.3502124845981598,-6.597249984741211
1779999120509456600,1.68645654296875,0.00494999997317791,-1.8121124505996704,3.7090625762939453
1779999120526733000,1.703733154296875,0.2297624945640564,-2.4205498695373535,3.580775022506714
1779999120544009700,1.721009765625,0.26510000228881836,-2.727174997329712,0.7000125050544739
1779999120561286400,1.738286376953125,0.11604999750852585,-1.2538625001907349,-0.6061000227928162
1779999120578563000,1.75556298828125,-0.0695749968290329,0.9110749959945679,-0.5950999855995178
1779999120595839500,1.772839599609375,-0.17104999721050262,2.6531999111175537,-0.6609625220298767
1779999120613116200,1.7901162109375,-0.11357499659061432,3.066112518310547,-2.0684125423431396
1779999120630392800,1.807392822265625,-0.01223750039935112,1.9995249509811401,-3.0665249824523926
1779999120647669500,1.82466943359375,0.07204999774694443,-0.5806624889373779,3.379199981689453
1779999120664946200,1.8419462890625,0.037950001657009125,-2.949512481689453,-0.4778124988079071
1779999120682222800,1.859222900390625,-0.07204999774694443,-3.4138500690460205,-2.1991748809814453
1779999120699499300,1.876499267578125,-0.04028749838471413,-1.8035874366760254,1.210687518119812
1779999120716776000,1.89377587890625,0.045237500220537186,0.8560749888420105,2.6034250259399414
1779999120734052600,1.911052490234375,-0.08910000324249268,2.6751999855041504,2.576474905014038
1779999120751329300,1.928329345703125,-0.23938749730587006,2.8192999362945557,-0.1722874939441681
1779999120768605700,1.945605712890625,-0.1405249983072281,1.1261249780654907,-4.101349830627441
1779999120785882400,1.96288232421875,-0.03657500073313713,0.11687500029802322,-3.1972875595092773
1779999120803159000,1.980158935546875,0.0085249999538064,-1.8096375465393066,4.906274795532227
1779999120820435700,1.997435791015625,0.1527625024318695,-2.4682624340057373,1.9155124425888062
1779999120837712100,2.014712158203125,0.12952500581741333,-1.9391624927520752,-0.11247500032186508
1779999120854989000,2.031989013671875,-0.00976249948143959,-0.31185001134872437,-0.7562500238418579
1779999120872265700,2.049265625,-0.1013374999165535,1.4253250360488892,-0.7709624767303467
1779999120889542100,2.066542236328125,-0.08676250278949738,2.4198625087738037,-1.385450005531311
1779999120906819000,2.083819091796875,-0.04152499884366989,2.0667624473571777,-2.8161375522613525
1779999120924095500,2.101095458984375,0.059812501072883606,0.421162486076355,2.19284987449646
1779999120941372200,2.1183720703125,-0.00976249948143959,-1.6728249788284302,-0.18205000460147858
1779999120958648800,2.13564892578125,-0.05376249924302101,-2.751650094985962,-1.7495499849319458
1779999120975925500,2.152925537109375,-0.03657500073313713,-2.2152624130249023,1.6638875007629395
1779999120993202000,2.170201904296875,0.037950001657009125,-0.21656249463558197,1.976699948310852
1779999121010478600,2.187478515625,-0.02447500079870224,1.4192750453948975,1.8739874362945557
1779999121027755300,2.20475537109375,-0.1625249981880188,2.163287401199341,0.1270499974489212
1779999121045032000,2.222031982421875,-0.13186250627040863,1.6160374879837036,-2.704900026321411
1779999121062308600,2.23930859375,-0.07823749631643295,0.6422625184059143,-4.323687553405762
1779999121079585000,2.2565849609375,0.01952499896287918,-0.9679999947547913,3.8911125659942627
1779999121096861700,2.27386181640625,0.11481250077486038,-1.8402999639511108,1.6284124851226807
1779999121114138400,2.291138427734375,0.08071249723434448,-2.2397375106811523,-0.651199996471405
1779999121131415000,2.3084150390625,0.01347499992698431,-1.1633875370025635,-1.1875874996185303
1779999121148691700,2.325691650390625,-0.01223750039935112,0.5359749794006348,-0.6707249879837036
1779999121165968400,2.342968505859375,0.0012374999932944775,1.9544249773025513,-0.37152498960494995
1779999121183245000,2.3602451171875,0.025712499395012856,2.3086249828338623,-0.39586248993873596
1779999121200521700,2.377521728515625,0.025712499395012856,1.224987506866455,0.5924875140190125
1779999121217798400,2.39479833984375,-0.02199999988079071,-0.716237485408783,-0.559624969959259
1779999121235074800,2.41207470703125,-0.01952499896287918,-2.129737377166748,0.38472500443458557
1779999121252351500,2.4293515625,-0.020762499421834946,-2.289787530899048,-0.19071249663829803
1779999121269628200,2.446628173828125,-0.01223750039935112,-1.0876250267028809,-0.0989999994635582
1779999121286904800,2.46390478515625,0.015949999913573265,0.6239749789237976,0.6022499799728394
1779999121304181500,2.481181396484375,-0.002474999986588955,1.9849499464035034,0.6487249732017517
1779999121321458000,2.4984580078125,-0.01347499992698431,2.1010000705718994,-0.7233874797821045
1779999121338734600,2.515734619140625,0.015949999913573265,1.2812249660491943,-1.0532499551773071
1779999121356011300,2.53301123046875,0.02199999988079071,-0.3546124994754791,1.5135999917984009
1779999121373288000,2.550287841796875,-0.03904999792575836,-2.040637493133545,-1.372112512588501
1779999121390564600,2.567564697265625,-0.03657500073313713,-2.1627373695373535,0.547249972820282
1779999121407841300,2.58484130859375,0.045237500220537186,-0.8945749998092651,1.0664499998092651
1779999121425118000,2.602117919921875,0.028049999848008156,0.5726875066757202,1.1434500217437744
1779999121442394600,2.61939453125,-0.042762499302625656,1.6465624570846558,0.5130124688148499
1779999121459671000,2.636671142578125,-0.0672374963760376,1.7381374835968018,-1.2583999633789062
1779999121476947700,2.65394775390625,-0.05004999786615372,0.9721249938011169,-3.0629498958587646
1779999121494224400,2.671224365234375,0.03671250119805336,-0.3302749991416931,2.407900094985962
1779999121511501000,2.6885009765625,0.03671250119805336,-1.4907749891281128,0.49720001220703125
1779999121528777700,2.70577783203125,-0.006049999967217445,-2.189687490463257,-1.6750249862670898
1779999121554692900,2.73169287109375,-0.0085249999538064,-0.5746124982833862,1.3010250329971313
1779999121571969300,2.74896923828125,0.023237500339746475,1.099174976348877,1.5185500383377075
1779999121589246000,2.766245849609375,-0.03904999792575836,1.7540874481201172,0.5717250108718872
1779999121606522600,2.783522705078125,-0.04028749838471413,1.2934625148773193,-1.596787452697754
1779999121623799300,2.80079931640625,-0.006049999967217445,0.6605499982833862,-2.172224998474121
1779999121641076000,2.818075927734375,0.023237500339746475,-0.636900007724762,2.6399998664855957
1779999121658352400,2.835352294921875,0.025712499395012856,-1.6093000173568726,-0.028187500312924385
1779999121675629000,2.852629150390625,-0.02928750030696392,-1.734012484550476,-1.5504499673843384
1779999121692906000,2.869906005859375,-0.002474999986588955,-0.5121874809265137,0.030524998903274536
1779999121710182700,2.8871826171875,0.028049999848008156,0.8768374919891357,1.2997875213623047
1779999121727459300,2.904459228515625,-0.013337500393390656,1.611087441444397,0.5717250108718872
1779999121744735700,2.92173583984375,-0.014574999921023846,1.3337500095367432,-1.2645875215530396
1779999121762012700,2.9390126953125,0.0147124994546175,0.7497875094413757,-0.9322500228881836
1779999121779289000,2.9562890625,0.010999999940395355,-0.45608749985694885,1.7041749954223633
1779999121796565800,2.973565673828125,-0.0085249999538064,-1.5872999429702759,-1.0213500261306763
1779999121813842400,2.990842529296875,-0.020762499421834946,-1.305150032043457,-0.3885749876499176
1779999121831119400,3.008119384765625,0.002474999986588955,-0.43656250834465027,1.2314499616622925
1779999121848395800,3.025395751953125,-0.002474999986588955,0.6104999780654907,0.8331124782562256
1779999121865672400,3.04267236328125,-0.02681249938905239,1.2482249736785889,-0.11123749613761902
1779999121882949000,3.05994921875,-0.03657500073313713,1.1126500368118286,-1.7128374576568604
1779999121900225800,3.077225830078125,0.030524998903274536,0.766837477684021,0.00976249948143959
1779999121917502200,3.094502197265625,-0.004812499973922968,-0.20803749561309814,1.1679250001907349
1779999121934779100,3.111779052734375,-0.02199999988079071,-1.4151500463485718,-1.4564000368118286
1779999121952055800,3.129055908203125,-0.0170499999076128,-1.379675030708313,0.5044875144958496
1779999121969332500,3.14633251953125,0.02928750030696392,-0.509850025177002,1.0029250383377075
1779999121986609200,3.163609130859375,0.0085249999538064,0.357637494802475,0.4372499883174896
1779999122003885800,3.1808857421875,-0.014574999921023846,1.0088374614715576,-0.4105750024318695
1779999122021162200,3.198162353515625,-0.02681249938905239,1.0844625234603882,-1.626212477684021
1779999122038439200,3.215439208984375,0.028187500312924385,0.7107374668121338,0.8270624876022339
1779999122055715600,3.232715576171875,-0.006049999967217445,-0.18232500553131104,0.23567499220371246
1779999122072992500,3.249992431640625,-0.02928750030696392,-1.0938124656677246,-1.1386375427246094
1779999122090269200,3.267269287109375,-0.006049999967217445,-1.2366750240325928,1.144687533378601
1779999122107545900,3.2845458984375,0.0085249999538064,-0.6991875171661377,0.21986250579357147
1779999122124822500,3.301822509765625,-0.0012374999932944775,0.12182500213384628,-0.3067624866962433
1779999122142099000,3.319098876953125,-0.0035749999806284904,0.9110749959945679,-0.6329125165939331
1779999122159375600,3.336375732421875,0.020762499421834946,1.2494624853134155,0.3419624865055084
1779999122176652500,3.353652587890625,0.0037124999798834324,0.8108375072479248,-0.00989999994635582
1779999122193929000,3.370928955078125,-0.0035749999806284904,-0.12870000302791595,-0.19676250219345093
1779999122211205600,3.38820556640625,-0.004812499973922968,-0.9545249938964844,0.31638750433921814
1779999122228482300,3.405482421875,-0.01952499896287918,-1.2636250257492065,-0.4386250078678131
1779999122245759000,3.422759033203125,-0.004812499973922968,-0.7992874979972839,0.3591499924659729
1779999122263035600,3.44003564453125,0.0037124999798834324,0.10477499663829803,0.1013374999165535
1779999122280312600,3.4573125,0.007287499960511923,0.8841249942779541,-0.2798124849796295
1779999122297589000,3.474589111328125,0.015949999913573265,1.2445124387741089,0.04028749838471413
1779999122314865700,3.49186572265625,0.010999999940395355,0.8585500121116638,0.14038750529289246
1779999122332142300,3.509142333984375,-0.0037124999798834324,-0.08703749626874924,-0.21381250023841858
1779999122349419000,3.5264189453125,-0.006049999967217445,-0.9337624907493591,0.2283875048160553
1779999122366695700,3.54369580078125,-0.0147124994546175,-1.2379125356674194,-0.2700499892234802
1779999122383972600,3.56097265625,-0.006049999967217445,-0.7895249724388123,0.18067499995231628
1779999122401249000,3.5782490234375,0.002474999986588955,0.06435000151395798,0.05004999786615372
1779999122418525700,3.595525634765625,0.0085249999538064,0.8646000027656555,-0.17476250231266022
1779999122435802400,3.61280224609375,0.0170499999076128,1.211650013923645,0.13062499463558197
1779999122453079000,3.6300791015625,0.00976249948143959,0.8377875089645386,-0.02447500079870224
1779999122470355700,3.647355712890625,0,-0.05169999971985817,-0.0147124994546175
1779999122487632400,3.66463232421875,-0.0085249999538064,-0.9055749773979187,0.037812501192092896
1779999122504909000,3.681908935546875,-0.01347499992698431,-1.201337456703186,-0.11495000123977661
1779999122522185700,3.699185791015625,-0.007287499960511923,-0.7919999957084656,0.10862500220537186
1779999122539462400,3.71646240234375,0,0.03382499888539314,-0.030662499368190765
1779999122556739000,3.733739013671875,0.00976249948143959,0.8487874865531921,-0.03423750028014183
1779999122574016000,3.75101611328125,0.01347499992698431,1.190750002861023,0.059812501072883606
1779999122591292400,3.76829248046875,0.0085249999538064,0.8401250243186951,-0.018424998968839645
1779999122608569000,3.785569091796875,0,-0.02969999983906746,0.02681249938905239
1779999122625845800,3.802845703125,-0.010999999940395355,-0.8775249719619751,-0.040424998849630356
1779999122643122400,3.820122314453125,-0.01347499992698431,-1.1708124876022339,-0.015949999913573265
1779999122660399000,3.837399169921875,-0.007287499960511923,-0.7981874942779541,0.00976249948143959
1779999122677675800,3.85467578125,0.0012374999932944775,0.01924999989569187,0.002337499987334013
1779999122694952400,3.871952392578125,0.00976249948143959,0.8193625211715698,0.006049999967217445
1779999122712229000,3.88922900390625,0.01347499992698431,1.1566499471664429,-0.0012374999932944775
1779999122729505800,3.906505859375,0.010999999940395355,0.8377875089645386,0.04152499884366989
1779999122746782500,3.923782470703125,-0.0012374999932944775,-0.011412499472498894,-0.02199999988079071
1779999122764059100,3.94105908203125,-0.010999999940395355,-0.8445249795913696,-0.0037124999798834324
1779999122781335800,3.958335693359375,-0.01347499992698431,-1.1475750207901,-0.03189999982714653
1779999122798612500,3.975612548828125,-0.0085249999538064,-0.7932375073432922,0.002337499987334013
1779999122815889200,3.99288916015625,0.0012374999932944775,0.0057749999687075615,0.02681249938905239
1779999122833165800,4.010165771484375,0.0085249999538064,0.7900750041007996,-0.018424998968839645
1779999122850442500,4.0274423828125,0.01347499992698431,1.1346499919891357,0.018287500366568565
1779999122867719200,4.04471923828125,0.010999999940395355,0.8280249834060669,0.0340999998152256
1779999122884995800,4.061995849609375,0,0.0008249999955296516,-0.020899999886751175
1779999122902272500,4.0792724609375,-0.00976249948143959,-0.8200500011444092,0.007287499960511923
1779999122919549200,4.096549072265625,-0.01347499992698431,-1.1316249370574951,-0.045237500220537186
1779999122936826000,4.113826171875,-0.00976249948143959,-0.7907624840736389,0.0170499999076128
1779999122954102800,4.131102783203125,-0.002474999986588955,-0.01251249946653843,0.013337500393390656
1779999122971379500,4.14837939453125,0.006187499966472387,0.766837477684021,-0.018424998968839645
1779999122988655900,4.16565576171875,0.00976249948143959,1.119937539100647,0.018287500366568565
1779999123005932500,4.1829326171875,0.0085249999538064,0.8365499973297119,0.02433750033378601
1779999123023209500,4.20020947265625,0,0.030249999836087227,-0.01347499992698431
1779999123040486100,4.217486083984375,-0.00976249948143959,-0.7882875204086304,-0.00494999997317791
1779999123057762800,4.2347626953125,-0.01223750039935112,-1.1083874702453613,-0.03918749839067459
1779999123075039200,4.252039306640625,-0.006049999967217445,-0.7895249724388123,0.010862499475479126
1779999123092316200,4.269316162109375,0.002474999986588955,-0.02969999983906746,0.0085249999538064
1779999123109592800,4.2865927734375,0.010999999940395355,0.7412624955177307,-0.007424999959766865
1779999123126869500,4.303869384765625,0.0147124994546175,1.095462441444397,0.014574999921023846
1779999123144146200,4.321146240234375,0.010999999940395355,0.8255500197410583,0.02681249938905239
1779999123161422800,4.3384228515625,0.002474999986588955,0.04001250118017197,-0.008662499487400055
1779999123178699500,4.355699462890625,-0.0085249999538064,-0.7664250135421753,-0.007424999959766865
1779999123195976200,4.37297607421875,-0.01223750039935112,-1.0913374423980713,-0.030662499368190765
1779999123213252900,4.3902529296875,-0.0085249999538064,-0.7882875204086304,0.004812499973922968
1779999123230529500,4.407529541015625,-0.0012374999932944775,-0.04427500069141388,0.0085249999538064
1779999123247806200,4.42480615234375,0.007424999959766865,0.7192624807357788,-0.00494999997317791
1779999123265083000,4.442082763671875,0.010999999940395355,1.0796500444412231,0.00976249948143959
1779999123282359600,4.459359619140625,0.007424999959766865,0.8255500197410583,0.025575000792741776
1779999123299636200,4.47663623046875,0,0.06201250106096268,-0.01223750039935112
1779999123316913000,4.493912841796875,-0.0085249999538064,-0.7346624732017517,-0.007424999959766865
1779999123334189800,4.51118994140625,-0.01223750039935112,-1.0680999755859375,-0.03189999982714653
1779999123351466200,4.52846630859375,-0.0085249999538064,-0.7847124934196472,0.0010999999940395355
1779999123368743000,4.545742919921875,0,-0.060224998742341995,0.0085249999538064
1779999123386019600,4.56301953125,0.007424999959766865,0.6935499906539917,-0.00494999997317791
1779999123403296300,4.580296142578125,0.010999999940395355,1.0564124584197998,0.010862499475479126
1779999123420573200,4.5975732421875,0.0085249999538064,0.8218374848365784,0.023099999874830246
1779999123437849600,4.614849609375,0,0.07906249910593033,-0.007424999959766865
1779999123455126300,4.632126220703125,-0.0085249999538064,-0.7101874947547913,-0.010999999940395355
1779999123472403000,4.64940283203125,-0.01223750039935112,-1.0485750436782837,-0.02694999985396862
1779999123489679600,4.6666796875,-0.0085249999538064,-0.7797625064849854,0.0010999999940395355
1779999123506956500,4.68395654296875,0,-0.07603749632835388,0.007287499960511923
1779999123524233200,4.701233154296875,0.007424999959766865,0.6679750084877014,-0.00013749999925494194
1779999123541510000,4.718510009765625,0.01223750039935112,1.033174991607666,0.010862499475479126
1779999123558786600,4.73578662109375,0.00976249948143959,0.8095999956130981,0.02433750033378601
1779999123576063200,4.753063232421875,0.002474999986588955,0.08758749812841415,-0.0037124999798834324
1779999123593340000,4.77033984375,-0.006049999967217445,-0.6869499683380127,-0.00989999994635582
1779999123610616600,4.787616455078125,-0.010999999940395355,-1.0315250158309937,-0.023237500339746475
1779999123627893200,4.804893310546875,-0.007287499960511923,-0.7797625064849854,-0.00013749999925494194
1779999123645170200,4.822170166015625,0.0012374999932944775,-0.09075000137090683,0.00976249948143959
1779999123662446600,4.839446533203125,0.007424999959766865,0.6422625184059143,-0.00013749999925494194
1779999123679723300,4.85672314453125,0.010999999940395355,1.0111750364303589,0.010862499475479126
1779999123697000000,4.874,0.00976249948143959,0.8047875165939331,0.025575000792741776
1779999123714276600,4.891276611328125,0.0012374999932944775,0.11577499657869339,-0.00989999994635582
1779999123731553500,4.908553466796875,-0.010999999940395355,-0.6489999890327454,-0.007424999959766865
1779999123748830000,4.925829833984375,-0.015949999913573265,-1.0106250047683716,-0.030524998903274536
1779999123766106600,4.943106689453125,-0.01347499992698431,-0.7723374962806702,-0.0037124999798834324
1779999123783383300,4.96038330078125,-0.0012374999932944775,-0.09556250274181366,0.010999999940395355
1779999123800660000,4.977659912109375,0.00976249948143959,0.6326375007629395,-0.006187499966472387
1779999123817937000,4.99493701171875,0.010999999940395355,0.9954999685287476,0.014574999921023846
1779999123835213600,5.012213623046875,0.0085249999538064,0.7902125120162964,0.020762499421834946
1779999123852490200,5.029490234375,0.0012374999932944775,0.10491249710321426,-0.007424999959766865
1779999123869767200,5.04676708984375,-0.007287499960511923,-0.6415749788284302,-0.00494999997317791
1779999123887043600,5.064043701171875,-0.01223750039935112,-0.9861499667167664,-0.0317624993622303
1779999123904320300,5.0813203125,-0.00976249948143959,-0.7528125047683716,0.002474999986588955
1779999123921597000,5.098596923828125,-0.002474999986588955,-0.09913749992847443,0
1779999123938873600,5.11587353515625,0.004812499973922968,0.6093999743461609,0.0012374999932944775
1779999123956150500,5.133150634765625,0.007287499960511923,0.9697874784469604,0.00976249948143959
1779999123973427000,5.150427001953125,0.006049999967217445,0.7816874980926514,0.014574999921023846
1779999123990703600,5.16770361328125,-0.002474999986588955,0.11948750168085098,-0.002474999986588955
1779999124007980300,5.184980224609375,-0.00976249948143959,-0.6135249733924866,-0.01718750037252903
1779999124025257000,5.202257080078125,-0.01347499992698431,-0.9568625092506409,-0.023237500339746475
1779999124042533600,5.21953369140625,-0.00976249948143959,-0.7393375039100647,-0.007424999959766865
1779999124059810300,5.236810302734375,-0.0012374999932944775,-0.10656250268220901,0.002474999986588955
1779999124077087000,5.2540869140625,0.006049999967217445,0.5861625075340271,0.002474999986588955
1779999124094363600,5.27136376953125,0.00976249948143959,0.9454500079154968,0.007287499960511923
1779999124111640600,5.288640625,0.007287499960511923,0.7657374739646912,0.018287500366568565
1779999124128917200,5.305917236328125,-0.0012374999932944775,0.12196250259876251,-0.006187499966472387
1779999124146194000,5.32319384765625,-0.0085249999538064,-0.593999981880188,-0.01223750039935112
1779999124163470300,5.34047021484375,-0.01223750039935112,-0.9311500191688538,-0.025712499395012856
1779999124180747300,5.357747314453125,-0.00976249948143959,-0.724762499332428,-0.00494999997317791
1779999124198024000,5.37502392578125,-0.0012374999932944775,-0.11013749986886978,0.002474999986588955
1779999124215300600,5.392300537109375,0.006049999967217445,0.5654000043869019,0.002474999986588955
1779999124232577300,5.409577392578125,0.00976249948143959,0.9196000099182129,0.01209999993443489
1779999124249854000,5.42685400390625,0.007287499960511923,0.7485499978065491,0.0170499999076128
1779999124267130600,5.444130615234375,0,0.12058749794960022,0.0010999999940395355
1779999124284407300,5.4614072265625,-0.007287499960511923,-0.5819000005722046,-0.01223750039935112
1779999124301684000,5.47868408203125,-0.010999999940395355,-0.9154750108718872,-0.018424998968839645
1779999124318960600,5.495960693359375,-0.006049999967217445,-0.7174749970436096,-0.002474999986588955
1779999124336237300,5.5132373046875,0,-0.11769999563694,0.0035749999806284904
1779999124353514000,5.530513916015625,0.007287499960511923,0.5444999933242798,0.006049999967217445
1779999124370790700,5.547790771484375,0.010999999940395355,0.8963624835014343,0.00976249948143959
1779999124388067300,5.5650673828125,0.00976249948143959,0.7387874722480774,0.018287500366568565
1779999124405344000,5.582343994140625,0.002474999986588955,0.13158750534057617,-0.00013749999925494194
1779999124422620700,5.59962060546875,-0.006049999967217445,-0.5549499988555908,-0.010999999940395355
1779999124439897300,5.6168974609375,-0.00976249948143959,-0.8934749960899353,-0.018424998968839645
1779999124457174000,5.634174072265625,-0.007287499960511923,-0.7089499831199646,-0.0037124999798834324
1779999124474451000,5.651450927734375,0,-0.1274625062942505,0.004812499973922968
1779999124491727400,5.668727294921875,0.007287499960511923,0.5249750018119812,0.0035749999806284904
1779999124509004300,5.68600439453125,0.01223750039935112,0.8755999803543091,0.01209999993443489
1779999124526280700,5.70328076171875,0.0085249999538064,0.7240750193595886,0.015812499448657036
1779999124543557400,5.720557373046875,0.002474999986588955,0.1340624988079071,-0.0012374999932944775
1779999124560834300,5.737834228515625,-0.006049999967217445,-0.5341874957084656,-0.01347499992698431
1779999124578111000,5.755111083984375,-0.00976249948143959,-0.8652874827384949,-0.018424998968839645
1779999124595387600,5.7723876953125,-0.006049999967217445,-0.689424991607666,-0.00494999997317791
1779999124612664300,5.789664306640625,0,-0.12622499465942383,0.002337499987334013
1779999124629941000,5.80694091796875,0.006049999967217445,0.5054500102996826,0.006049999967217445
1779999124647217700,5.8242177734375,0.010999999940395355,0.8475499749183655,0.0085249999538064
1779999124664494300,5.841494384765625,0.007287499960511923,0.7057874798774719,0.015812499448657036
1779999124681771000,5.85877099609375,0,0.13887499272823334,-0.00013749999925494194
1779999124699047700,5.876047607421875,-0.0085249999538064,-0.5121874809265137,-0.01223750039935112
1779999124716324400,5.893324462890625,-0.01223750039935112,-0.8397125005722046,-0.015949999913573265
1779999124733601000,5.91060107421875,-0.00976249948143959,-0.6771875023841858,-0.006187499966472387
1779999124750877700,5.927877685546875,-0.002474999986588955,-0.13227500021457672,0.004812499973922968
1779999124768154600,5.945154541015625,0.006049999967217445,0.4846875071525574,0.0035749999806284904
1779999124785431300,5.962431396484375,0.00976249948143959,0.8243125081062317,0.00976249948143959
1779999124802708000,5.9797080078125,0.007287499960511923,0.6910749673843384,0.015812499448657036
1779999124819984400,5.996984375,0,0.14258749783039093,0.0010999999940395355
1779999124837261300,6.01426123046875,-0.007287499960511923,-0.49390000104904175,-0.010999999940395355
1779999124854538000,6.0315380859375,-0.00976249948143959,-0.8189499974250793,-0.018424998968839645
1779999124871814700,6.048814697265625,-0.006049999967217445,-0.6637125015258789,-0.0037124999798834324
1779999124889091300,6.06609130859375,0.0012374999932944775,-0.1335124969482422,0.002337499987334013
1779999124906368300,6.0833681640625,0.007287499960511923,0.46639999747276306,0.006049999967217445
1779999124923644700,6.100644775390625,0.00976249948143959,0.7986000180244446,0.010862499475479126
1779999124940921300,6.11792138671875,0.0085249999538064,0.6727874875068665,0.013337500393390656
1779999124958198000,6.135197998046875,0.0012374999932944775,0.1438249945640564,0.002337499987334013
1779999124975475000,6.152474853515625,-0.006049999967217445,-0.47437500953674316,-0.01223750039935112
1779999124992751600,6.169751708984375,-0.00976249948143959,-0.7932375073432922,-0.0147124994546175
1779999125010028300,6.1870283203125,-0.007287499960511923,-0.650237500667572,-0.00494999997317791
1779999125027305000,6.204304931640625,0,-0.13846249878406525,0.002337499987334013
1779999125044581600,6.22158154296875,0.007287499960511923,0.4479750096797943,0.0085249999538064
1779999125061858300,6.2388583984375,0.00976249948143959,0.7742624878883362,0.00976249948143959
1779999125079135000,6.256135009765625,0.007287499960511923,0.6545000076293945,0.015812499448657036
1779999125096411600,6.27341162109375,0.0012374999932944775,0.14258749783039093,0.0010999999940395355
1779999125113688300,6.290688232421875,-0.004812499973922968,-0.45608749985694885,-0.010999999940395355
1779999125130965000,6.307965087890625,-0.0085249999538064,-0.7675250172615051,-0.0147124994546175
1779999125148241700,6.32524169921875,-0.007287499960511923,-0.6319500207901001,-0.006187499966472387
1779999125165518300,6.342518310546875,-0.0012374999932944775,-0.13846249878406525,0.002337499987334013
1779999125182795000,6.359794921875,0.006049999967217445,0.4334000051021576,0.004812499973922968
1779999125200072000,6.377072021484375,0.0085249999538064,0.7558375000953674,0.00976249948143959
1779999125217348600,6.3943486328125,0.006049999967217445,0.6459749937057495,0.010862499475479126
1779999125234625300,6.411625244140625,0.0012374999932944775,0.14863750338554382,0.0010999999940395355
1779999125251902000,6.42890185546875,-0.006049999967217445,-0.43656250834465027,-0.010999999940395355
1779999125269178400,6.446178466796875,-0.0085249999538064,-0.7480000257492065,-0.015949999913573265
1779999125286455300,6.463455322265625,-0.006049999967217445,-0.6209499835968018,-0.00494999997317791
1779999125303732000,6.48073193359375,0,-0.14327499270439148,-0.00013749999925494194
1779999125321008600,6.498008544921875,0.00494999997317791,0.4162124991416931,0.006049999967217445
1779999125338285300,6.515285400390625,0.0085249999538064,0.7338374853134155,0.00976249948143959
1779999125355562000,6.53256201171875,0.007287499960511923,0.6300249695777893,0.013337500393390656
1779999125372838700,6.549838623046875,0.0012374999932944775,0.15111249685287476,0.0035749999806284904
1779999125390115300,6.567115234375,-0.004812499973922968,-0.42061248421669006,-0.010999999940395355
1779999125407392000,6.58439208984375,-0.0085249999538064,-0.7272375226020813,-0.01347499992698431
1779999125424668700,6.601668701171875,-0.006049999967217445,-0.6111875176429749,-0.006187499966472387
1779999125441945300,6.6189453125,0,-0.14822499454021454,0.002337499987334013
1779999125459222000,6.636221923828125,0.00494999997317791,0.3979249894618988,0.004812499973922968
1779999125476499000,6.6534990234375,0.0085249999538064,0.7155500054359436,0.00976249948143959
1779999125493775600,6.670775634765625,0.007287499960511923,0.6202625036239624,0.01209999993443489
1779999125511052000,6.688052001953125,0.0012374999932944775,0.15729999542236328,0.0010999999940395355
1779999125528328700,6.70532861328125,-0.004812499973922968,-0.4010874927043915,-0.008662499487400055
1779999125545605400,6.72260546875,-0.0085249999538064,-0.7089499831199646,-0.0147124994546175
1779999125562882000,6.739882080078125,-0.006049999967217445,-0.6026625037193298,-0.00494999997317791
1779999125580159000,6.757158935546875,0,-0.15427500009536743,0.0010999999940395355
1779999125597435600,6.774435546875,0.00494999997317791,0.38087499141693115,0.006049999967217445
1779999125614712000,6.791712158203125,0.0085249999538064,0.6947875022888184,0.0085249999538064
1779999125631989000,6.808989013671875,0.006187499966472387,0.6080250144004822,0.01209999993443489
1779999125649265700,6.826265625,0.0012374999932944775,0.15963749587535858,0.002337499987334013
1779999125666542300,6.843542236328125,-0.004812499973922968,-0.38403749465942383,-0.010999999940395355
1779999125683819000,6.860819091796875,-0.0085249999538064,-0.6881874799728394,-0.01347499992698431
1779999125701096000,6.878095947265625,-0.006049999967217445,-0.5904250144958496,-0.006187499966472387
1779999125718372600,6.89537255859375,-0.0012374999932944775,-0.15674999356269836,-0.00013749999925494194
1779999125735649000,6.91264892578125,0.004812499973922968,0.36629998683929443,0.004812499973922968
1779999125752925700,6.92992578125,0.0085249999538064,0.6778749823570251,0.0085249999538064
1779999125770202400,6.947202392578125,0.007287499960511923,0.5971624851226807,0.01347499992698431
1779999125787479300,6.964479248046875,0.0012374999932944775,0.16224999725818634,0.0035749999806284904
1779999125804756000,6.981755859375,-0.00494999997317791,-0.3716624975204468,-0.00976249948143959
1779999125822032600,6.99903271484375,-0.007287499960511923,-0.6710000038146973,-0.01347499992698431
1779999125839309300,7.016309326171875,-0.006187499966472387,-0.5817624926567078,-0.006187499966472387
1779999125856586000,7.0335859375,-0.0012374999932944775,-0.16032500565052032,0.0012374999932944775
1779999125873862700,7.050862548828125,0.004812499973922968,0.35282498598098755,0.006049999967217445
1779999125891139300,7.068139404296875,0.0085249999538064,0.6619250178337097,0.0085249999538064
1779999125908416300,7.085416259765625,0.007287499960511923,0.5861625075340271,0.010999999940395355
1779999125925692700,7.102692626953125,0.0012374999932944775,0.16596250236034393,0.002474999986588955
1779999125942969300,7.11996923828125,-0.00494999997317791,-0.3544749915599823,-0.0085249999538064
1779999125960246000,7.13724609375,-0.007287499960511923,-0.6525750160217285,-0.01347499992698431
1779999125977522700,7.154522705078125,-0.006187499966472387,-0.5695250034332275,-0.007424999959766865
1779999125994799600,7.171799560546875,-0.0012374999932944775,-0.1639000028371811,0
1779999126012076300,7.189076171875,0.004812499973922968,0.3357749879360199,0.004812499973922968
1779999126029352700,7.206352783203125,0.007287499960511923,0.6411625146865845,0.0085249999538064
1779999126046629400,7.22362939453125,0.007287499960511923,0.5751624703407288,0.01347499992698431
1779999126063906300,7.24090625,0.0012374999932944775,0.1695374995470047,0.002474999986588955
1779999126081183000,7.258182861328125,-0.00494999997317791,-0.3398999869823456,-0.007424999959766865
1779999126098459600,7.275459716796875,-0.007287499960511923,-0.6342874765396118,-0.01347499992698431
1779999126115736300,7.292736328125,-0.006187499966472387,-0.5597624778747559,-0.00494999997317791
1779999126133013000,7.310012939453125,-0.0012374999932944775,-0.16637499630451202,0.0012374999932944775
1779999126150289700,7.32728955078125,0.0037124999798834324,0.32106250524520874,0.004812499973922968
1779999126167566300,7.34456640625,0.007287499960511923,0.6228749752044678,0.00976249948143959
1779999126184843000,7.361843017578125,0.006049999967217445,0.5654000043869019,0.010999999940395355
1779999126202120000,7.379119873046875,0.0012374999932944775,0.17201249301433563,0.002474999986588955
1779999126219396400,7.396396240234375,-0.0037124999798834324,-0.32394999265670776,-0.00976249948143959
1779999126236673000,7.413673095703125,-0.006187499966472387,-0.6159999966621399,-0.01223750039935112
1779999126253949700,7.43094970703125,-0.00494999997317791,-0.5475249886512756,-0.006187499966472387
1779999126271226400,7.448226318359375,-0.0012374999932944775,-0.1676124930381775,0.0012374999932944775
1779999126288503300,7.46550341796875,0.0035749999806284904,0.306487500667572,0.006049999967217445
1779999126305779700,7.48277978515625,0.007287499960511923,0.6045874953269958,0.0085249999538064
1779999126323056600,7.500056640625,0.007287499960511923,0.5508249998092651,0.010999999940395355
1779999126340333000,7.5173330078125,0.0012374999932944775,0.17201249301433563,0.002474999986588955
1779999126357610000,7.53460986328125,-0.0037124999798834324,-0.31171250343322754,-0.007424999959766865
1779999126374886700,7.55188671875,-0.007424999959766865,-0.5988125205039978,-0.00976249948143959
1779999126392163300,7.569163330078125,-0.006187499966472387,-0.5377625226974487,-0.006187499966472387
1779999126409440000,7.58643994140625,-0.0012374999932944775,-0.17118750512599945,0
1779999126426716700,7.603716552734375,0.002474999986588955,0.2917749881744385,0.004812499973922968
1779999126443993300,7.620993408203125,0.006049999967217445,0.5874000191688538,0.007287499960511923
1779999126461270000,7.63827001953125,0.006049999967217445,0.54339998960495,0.010999999940395355
1779999126478546700,7.655546630859375,0.002474999986588955,0.1769624948501587,0.002474999986588955
1779999126495823600,7.67282373046875,-0.0037124999798834324,-0.2971374988555908,-0.0085249999538064
1779999126513100000,7.69010009765625,-0.006187499966472387,-0.5830000042915344,-0.01223750039935112
1779999126530376700,7.707376708984375,-0.00494999997317791,-0.527999997138977,-0.006187499966472387
1779999126547653400,7.7246533203125,-0.0012374999932944775,-0.17008750140666962,-0.0012374999932944775
1779999126564930000,7.741929931640625,0.002474999986588955,0.2820124924182892,0.006049999967217445
1779999126582207000,7.75920703125,0.007287499960511923,0.5703499913215637,0.0085249999538064
1779999126599483400,7.7764833984375,0.0085249999538064,0.525112509727478,0.00976249948143959
1779999126616760000,7.793760009765625,0.002474999986588955,0.17201249301433563,0.0012374999932944775
1779999126634036700,7.81103662109375,-0.002474999986588955,-0.2824249863624573,-0.007424999959766865
1779999126651313700,7.828313720703125,-0.00494999997317791,-0.5572875142097473,-0.01223750039935112
1779999126668590300,7.84559033203125,-0.00494999997317791,-0.5059999823570251,-0.00494999997317791
1779999126685867000,7.862866943359375,-0.0012374999932944775,-0.1676124930381775,-0.0012374999932944775
1779999126703143700,7.880143798828125,0.002474999986588955,0.26496249437332153,0.006049999967217445
1779999126720420400,7.89742041015625,0.006049999967217445,0.5421624779701233,0.007287499960511923
1779999126737697000,7.914697021484375,0.00494999997317791,0.5054500102996826,0.0085249999538064
1779999126754973700,7.9319736328125,0.002474999986588955,0.17063750326633453,0.0035749999806284904
1779999126772250400,7.94925048828125,-0.0037124999798834324,-0.2690874934196472,-0.006187499966472387
1779999126789527000,7.966527099609375,-0.006049999967217445,-0.5391374826431274,-0.00989999994635582
1779999126806803700,7.9838037109375,-0.006049999967217445,-0.49390000104904175,-0.007424999959766865
1779999126824080400,8.001080322265626,-0.0012374999932944775,-0.16651250422000885,0.0010999999940395355
1779999126841357000,8.018357177734375,0.0037124999798834324,0.254925012588501,0.006049999967217445
1779999126858633700,8.0356337890625,0.007287499960511923,0.5286874771118164,0.0085249999538064
1779999126875910400,8.052910400390624,0.006049999967217445,0.49445000290870667,0.00976249948143959
1779999126893187300,8.070187255859375,0,0.16830000281333923,0.002337499987334013
1779999126910464000,8.087464111328124,-0.002474999986588955,-0.256850004196167,-0.006187499966472387
1779999126927740400,8.104740478515625,-0.006049999967217445,-0.5208500027656555,-0.010999999940395355
1779999126945017000,8.12201708984375,-0.00494999997317791,-0.48042500019073486,-0.006187499966472387
1779999126962294000,8.1392939453125,0,-0.16279999911785126,-0.0012374999932944775
1779999126979570700,8.15657080078125,0.0037124999798834324,0.2451625019311905,0.006049999967217445
1779999126996847400,8.173847412109374,0.00494999997317791,0.5102624893188477,0.007287499960511923
1779999127014124000,8.1911240234375,0.00494999997317791,0.4797374904155731,0.0085249999538064
1779999127031400700,8.208400634765624,0.0012374999932944775,0.16830000281333923,0.002337499987334013
1779999127048677400,8.225677490234375,-0.002474999986588955,-0.24351249635219574,-0.006187499966472387
1779999127065954000,8.2429541015625,-0.00494999997317791,-0.5024250149726868,-0.00989999994635582
1779999127083230700,8.260230712890625,-0.00494999997317791,-0.4683249890804291,-0.00494999997317791
1779999127100507400,8.27750732421875,-0.002474999986588955,-0.16775000095367432,-0.00013749999925494194
1779999127117784300,8.294784423828125,0.0012374999932944775,0.2256374955177307,0.004812499973922968
1779999127135061000,8.31206103515625,0.006049999967217445,0.4894999861717224,0.0085249999538064
1779999127152337700,8.329337646484374,0.006049999967217445,0.4675000011920929,0.00976249948143959
1779999127169614300,8.3466142578125,0.002474999986588955,0.17063750326633453,0.0035749999806284904
1779999127186891000,8.36389111328125,-0.0037124999798834324,-0.23003749549388885,-0.00494999997317791
1779999127204167700,8.381167724609375,-0.006049999967217445,-0.4866124987602234,-0.00989999994635582
1779999127221444400,8.3984443359375,-0.00494999997317791,-0.4573250114917755,-0.006187499966472387
1779999127238721000,8.415720947265624,0,-0.16637499630451202,-0.0012374999932944775
1779999127255998000,8.432998046875,0.002337499987334013,0.21601249277591705,0.0035749999806284904
1779999127273274400,8.4502744140625,0.004812499973922968,0.4750624895095825,0.004812499973922968
1779999127290551000,8.467551025390625,0.004812499973922968,0.45787498354911804,0.006049999967217445
1779999127307827700,8.48482763671875,0.002337499987334013,0.17572499811649323,0.0012374999932944775
1779999127325104600,8.502104736328125,-0.0012374999932944775,-0.21285000443458557,-0.007424999959766865
1779999127342381000,8.519381103515625,-0.00494999997317791,-0.4632374942302704,-0.00976249948143959
1779999127359657700,8.53665771484375,-0.00494999997317791,-0.44247499108314514,-0.006187499966472387
1779999127376934400,8.553934326171875,-0.002474999986588955,-0.16885000467300415,-0.002474999986588955
1779999127394211300,8.57121142578125,0.0012374999932944775,0.20019999146461487,0.006049999967217445
1779999127411488000,8.588488037109375,0.004812499973922968,0.453062504529953,0.007287499960511923
1779999127428764400,8.605764404296876,0.004812499973922968,0.444537490606308,0.00976249948143959
1779999127446041000,8.623041015625,0.0012374999932944775,0.17077499628067017,0.004812499973922968
1779999127463317800,8.64031787109375,-0.0037124999798834324,-0.2079000025987625,-0.0037124999798834324
1779999127480594700,8.6575947265625,-0.006187499966472387,-0.4595249891281128,-0.00976249948143959
1779999127497871400,8.674871337890625,-0.00494999997317791,-0.4399999976158142,-0.006187499966472387
1779999127515148000,8.69214794921875,0,-0.1676124930381775,-0.0012374999932944775
1779999127532424700,8.7094248046875,0.0035749999806284904,0.20019999146461487,0.0035749999806284904
1779999127549701400,8.726701416015626,0.006049999967217445,0.45182499289512634,0.006049999967217445
1779999127566978000,8.74397802734375,0.006049999967217445,0.44206249713897705,0.007287499960511923
1779999127584254700,8.761254638671875,0.002337499987334013,0.17448750138282776,0.002474999986588955
1779999127601531400,8.778531494140625,-0.0012374999932944775,-0.19689999520778656,-0.006187499966472387
1779999127618807800,8.795807861328125,-0.00494999997317791,-0.4437125027179718,-0.00976249948143959
1779999127636084700,8.813084716796874,-0.0037124999798834324,-0.4314749836921692,-0.00494999997317791
1779999127653361400,8.830361328125,-0.002474999986588955,-0.17118750512599945,0
1779999127670638000,8.84763818359375,0.002337499987334013,0.18672500550746918,0.0035749999806284904
1779999127687915000,8.8649150390625,0.004812499973922968,0.4358749985694885,0.007287499960511923
1779999127705191400,8.88219140625,0.004812499973922968,0.43230000138282776,0.007287499960511923
1779999127722468000,8.899468017578124,0.0012374999932944775,0.17572499811649323,0.0035749999806284904
1779999127739744800,8.916744873046875,-0.002474999986588955,-0.18713749945163727,-0.00494999997317791
1779999127757021700,8.934021728515624,-0.006187499966472387,-0.4339500069618225,-0.0085249999538064
1779999127774298400,8.95129833984375,-0.00494999997317791,-0.4254249930381775,-0.006187499966472387
1779999127791574800,8.96857470703125,-0.0012374999932944775,-0.17132499814033508,-0.0012374999932944775
1779999127808851700,8.985851806640625,0.0037124999798834324,0.17943750321865082,0.004812499973922968
1779999127826128100,9.003128173828125,0.007287499960511923,0.4248749911785126,0.006049999967217445
1779999127843405000,9.020405029296874,0.004812499973922968,0.4248749911785126,0.0085249999538064
1779999127860681700,9.037681640625,0.0012374999932944775,0.17448750138282776,0.002474999986588955
1779999127877958400,9.05495849609375,-0.002474999986588955,-0.1798499971628189,-0.0037124999798834324
1779999127895234800,9.07223486328125,-0.00494999997317791,-0.4204750061035156,-0.010999999940395355
1779999127912511700,9.08951171875,-0.0037124999798834324,-0.4119499921798706,-0.006187499966472387
1779999127929788400,9.106788330078125,0,-0.16637499630451202,-0.0012374999932944775
1779999127947065000,9.124065185546876,0.002474999986588955,0.1732500046491623,0.0035749999806284904
1779999127964341800,9.141341796875,0.004812499973922968,0.41029998660087585,0.007287499960511923
1779999127981618700,9.15861865234375,0.004812499973922968,0.4115374982357025,0.007287499960511923
1779999127998895000,9.17589501953125,0.0012374999932944775,0.1732500046491623,0.0035749999806284904
1779999128016172000,9.193172119140625,-0.002474999986588955,-0.17132499814033508,-0.0037124999798834324
1779999128033448400,9.210448486328126,-0.00494999997317791,-0.408237487077713,-0.007424999959766865
1779999128050725400,9.227725341796875,-0.00494999997317791,-0.4057624936103821,-0.00494999997317791
1779999128068002000,9.245001953125,-0.002474999986588955,-0.17008750140666962,-0.0012374999932944775
1779999128085278700,9.26227880859375,0.002474999986588955,0.16224999725818634,0.004812499973922968
1779999128102555400,9.279555419921875,0.004812499973922968,0.3993000090122223,0.006049999967217445
1779999128119832000,9.29683203125,0.004812499973922968,0.405349999666214,0.0085249999538064
1779999128137109000,9.31410888671875,0.0012374999932944775,0.1732500046491623,0.0035749999806284904
1779999128154385400,9.331385498046876,-0.002474999986588955,-0.16142499446868896,-0.0037124999798834324
1779999128171662000,9.348662109375,-0.006187499966472387,-0.39723750948905945,-0.0085249999538064
1779999128188939000,9.36593896484375,-0.0037124999798834324,-0.3984749913215637,-0.007424999959766865
1779999128206215400,9.38321533203125,-0.0012374999932944775,-0.1676124930381775,-0.0012374999932944775
1779999128223492000,9.4004921875,0.002474999986588955,0.15619999170303345,0.0035749999806284904
1779999128240768800,9.417768798828124,0.00494999997317791,0.38940000534057617,0.006049999967217445
1779999128258045400,9.43504541015625,0.0037124999798834324,0.39544999599456787,0.0085249999538064
1779999128275322000,9.452322021484376,0.0012374999932944775,0.17311249673366547,0.002337499987334013
1779999128292599000,9.46959912109375,-0.0012374999932944775,-0.1518000066280365,-0.002474999986588955
1779999128309875500,9.48687548828125,-0.0035749999806284904,-0.38403749465942383,-0.007424999959766865
1779999128327152400,9.50415234375,-0.0035749999806284904,-0.3913249969482422,-0.00494999997317791
1779999128344429000,9.521428955078125,-0.002474999986588955,-0.17379999160766602,-0.002474999986588955
1779999128361705700,9.538705810546874,0.002474999986588955,0.14630000293254852,0.0035749999806284904
1779999128378982400,9.555982421875,0.0037124999798834324,0.37716248631477356,0.006049999967217445
1779999128396259300,9.57325927734375,0.00494999997317791,0.38940000534057617,0.006049999967217445
1779999128413536000,9.590535888671875,0.0012374999932944775,0.17434999346733093,0.0035749999806284904
1779999128430812700,9.607812744140626,-0.0012374999932944775,-0.142037495970726,-0.0037124999798834324
1779999128448089300,9.62508935546875,-0.0035749999806284904,-0.3718000054359436,-0.006187499966472387
1779999128465365800,9.64236572265625,-0.0035749999806284904,-0.38403749465942383,-0.00494999997317791
1779999128482642700,9.659642578125,-0.0012374999932944775,-0.17503750324249268,-0.0012374999932944775
1779999128499919400,9.67691943359375,0.0012374999932944775,0.13282500207424164,0.002337499987334013
1779999128517195800,9.69419580078125,0.0037124999798834324,0.3636874854564667,0.004812499973922968
1779999128534472700,9.71147265625,0.00494999997317791,0.3844499886035919,0.007287499960511923
1779999128551749400,9.728749267578126,0.002474999986588955,0.1816374957561493,0.002337499987334013
1779999128569026000,9.746026123046875,-0.0012374999932944775,-0.12870000302791595,-0.0037124999798834324
1779999128586302500,9.763302490234375,-0.0035749999806284904,-0.36079999804496765,-0.007424999959766865
1779999128603579400,9.780579345703124,-0.0035749999806284904,-0.38032498955726624,-0.006187499966472387
1779999128620856000,9.79785595703125,-0.0012374999932944775,-0.17874999344348907,-0.002474999986588955
1779999128638132700,9.8151328125,0.002474999986588955,0.12430000305175781,0.0035749999806284904
1779999128655409400,9.832409423828125,0.0037124999798834324,0.3526875078678131,0.004812499973922968
1779999128672686300,9.849686279296876,0.0037124999798834324,0.3759250044822693,0.006049999967217445
1779999128689962800,9.866962646484374,0.0012374999932944775,0.1816374957561493,0.002337499987334013
1779999128707239400,9.884239501953125,-0.002474999986588955,-0.1200374960899353,-0.0037124999798834324
1779999128724516400,9.901516357421874,-0.004812499973922968,-0.34732499718666077,-0.00494999997317791
1779999128741793000,9.91879296875,-0.0037124999798834324,-0.3716624975204468,-0.007424999959766865
1779999128759069700,9.936069580078126,-0.0012374999932944775,-0.1798499971628189,-0.0012374999932944775
1779999128776346400,9.953346435546875,0.0012374999932944775,0.11467500030994415,0.0012374999932944775
1779999128793623000,9.970623046875,0.00494999997317791,0.3405874967575073,0.006049999967217445
1779999128810900000,9.98789990234375,0.00494999997317791,0.3675374984741211,0.006049999967217445
1779999128828176400,10.00517626953125,0.002474999986588955,0.18053749203681946,0.0012374999932944775
1779999128845453000,10.022453125,-0.0012374999932944775,-0.11137499660253525,-0.002474999986588955
1779999128862729700,10.039729736328125,-0.0037124999798834324,-0.33371248841285706,-0.0085249999538064
1779999128880006700,10.057006591796876,-0.00494999997317791,-0.3606624901294708,-0.00494999997317791
1779999128897283300,10.074283447265625,-0.0012374999932944775,-0.17489999532699585,-0.002474999986588955
1779999128914560000,10.09156005859375,0.0012374999932944775,0.10848750174045563,0.002474999986588955
1779999128931837000,10.1088369140625,0.0037124999798834324,0.32958748936653137,0.007287499960511923
1779999128949113300,10.12611328125,0.0037124999798834324,0.35653749108314514,0.004812499973922968
1779999128966390000,10.14339013671875,0.0012374999932944775,0.17572499811649323,0.0035749999806284904
1779999128983666700,10.160666748046875,-0.002474999986588955,-0.11013749986886978,-0.002474999986588955
1779999129000943400,10.177943359375,-0.0037124999798834324,-0.3251875042915344,-0.006187499966472387
1779999129018220300,10.19522021484375,-0.002474999986588955,-0.35089999437332153,-0.00494999997317791
1779999129035496700,10.21249658203125,0,-0.17242500185966492,-0.002474999986588955
1779999129052773600,10.229773681640625,0.002474999986588955,0.10243749618530273,0.004812499973922968
1779999129070050000,10.247050048828125,0.00494999997317791,0.317487508058548,0.0035749999806284904
1779999129087327000,10.264326904296874,0.006049999967217445,0.34677499532699585,0.007287499960511923
1779999129104603600,10.281603759765625,0.002474999986588955,0.17448750138282776,0.002474999986588955
1779999129121880000,10.298880126953126,0,-0.10161250084638596,-0.002474999986588955
1779999129139156700,10.31615673828125,-0.002474999986588955,-0.31418749690055847,-0.006187499966472387
1779999129156433700,10.33343359375,-0.0037124999798834324,-0.34347498416900635,-0.006187499966472387
1779999129173710300,10.35071044921875,-0.002474999986588955,-0.17132499814033508,0
1779999129190987000,10.367987060546875,0.0012374999932944775,0.09624999761581421,0.002474999986588955
1779999129208264000,10.385263916015624,0.002474999986588955,0.30758750438690186,0.007287499960511923
1779999129225540400,10.402540283203125,0.0037124999798834324,0.33701249957084656,0.006049999967217445
1779999129242817000,10.419817138671876,0.0012374999932944775,0.1695374995470047,0.0035749999806284904
1779999129260093700,10.43709375,-0.0012374999932944775,-0.09790000319480896,-0.0012374999932944775
1779999129277370600,10.45437060546875,-0.002474999986588955,-0.3068999946117401,-0.006187499966472387
1779999129294647300,10.471647216796875,-0.002474999986588955,-0.3361875116825104,-0.0037124999798834324
1779999129311923700,10.488923828125,0,-0.17242500185966492,-0.0012374999932944775
1779999129329200600,10.50620068359375,0.0012374999932944775,0.09019999951124191,0.0035749999806284904
1779999129346477000,10.52347705078125,0.0037124999798834324,0.29782500863075256,0.004812499973922968
1779999129363754000,10.54075390625,0.0037124999798834324,0.3357749879360199,0.004812499973922968
1779999129381030700,10.55803076171875,0.002474999986588955,0.1769624948501587,0.0035749999806284904
1779999129398307300,10.575307373046876,0,-0.0845625028014183,-0.0012374999932944775
1779999129415584000,10.592583984375,-0.002474999986588955,-0.2971374988555908,-0.0037124999798834324
1779999129432860700,10.609860595703125,-0.0037124999798834324,-0.3361875116825104,-0.00494999997317791
1779999129450137300,10.627137451171874,-0.002474999986588955,-0.18342499434947968,-0.0012374999932944775
1779999129467414000,10.6444140625,0,0.0742499977350235,0.0012374999932944775
1779999129484690700,10.661690673828126,0.002474999986588955,0.28806251287460327,0.004812499973922968
1779999129501967600,10.678967529296875,0.004812499973922968,0.33701249957084656,0.004812499973922968
1779999129519244300,10.696244384765626,0.002474999986588955,0.1891999989748001,0.002474999986588955
1779999129536521000,10.71352099609375,-0.0012374999932944775,-0.07232499867677689,-0.002474999986588955
1779999129553797400,10.73079736328125,-0.00494999997317791,-0.2849000096321106,-0.006187499966472387
1779999129571074300,10.74807421875,-0.006049999967217445,-0.3312374949455261,-0.0037124999798834324
1779999129588351000,10.76535107421875,-0.002474999986588955,-0.18342499434947968,-0.0012374999932944775
1779999129605627600,10.782627685546874,0.0012374999932944775,0.06943749636411667,0.0035749999806284904
1779999129622904300,10.799904296875,0.0037124999798834324,0.2770625054836273,0.007287499960511923
1779999129640181000,10.817180908203126,0.0037124999798834324,0.3198249936103821,0.006049999967217445
1779999129657457700,10.834457763671875,0.0012374999932944775,0.17572499811649323,0.0012374999932944775
1779999129674734300,10.851734375,-0.0012374999932944775,-0.06861250102519989,-0.002474999986588955
1779999129692011000,10.869010986328124,-0.002474999986588955,-0.27018749713897705,-0.00494999997317791
1779999129709288000,10.886287841796875,-0.0012374999932944775,-0.3104749917984009,-0.00494999997317791
1779999129726564400,10.903564453125,0,-0.17242500185966492,-0.002474999986588955
1779999129743841000,10.920841064453125,0.002474999986588955,0.06435000151395798,0.002337499987334013
1779999129761117700,10.93811767578125,0.00494999997317791,0.2611125111579895,0.004812499973922968
1779999129778394600,10.95539453125,0.00494999997317791,0.3086875081062317,0.006049999967217445
1779999129795671300,10.97267138671875,0.0037124999798834324,0.17434999346733093,0.002337499987334013
1779999129812948000,10.989947998046874,0,-0.06270000338554382,-0.0012374999932944775
1779999129830224600,11.007224609375,-0.0037124999798834324,-0.2630375027656555,-0.006187499966472387
1779999129847501000,11.0245009765625,-0.0037124999798834324,-0.3082749843597412,-0.00494999997317791
1779999129864778000,11.041778076171875,-0.002474999986588955,-0.17256249487400055,-0.0037124999798834324
1779999129882054700,11.0590546875,0.0012374999932944775,0.06201250106096268,0.002337499987334013
1779999129899331300,11.076331298828125,0.0037124999798834324,0.2586374878883362,0.004812499973922968
1779999129916608300,11.093608154296875,0.0037124999798834324,0.3051125109195709,0.0035749999806284904
1779999129933884700,11.110884765625,0.0012374999932944775,0.17311249673366547,0.002337499987334013
1779999129951161300,11.128161376953125,-0.0012374999932944775,-0.057750001549720764,-0.0037124999798834324
1779999129968438000,11.14543798828125,-0.0037124999798834324,-0.2532750070095062,-0.006187499966472387
1779999129985714700,11.162714599609375,-0.0037124999798834324,-0.29727500677108765,-0.006187499966472387
1779999130002991600,11.17999169921875,-0.0012374999932944775,-0.16898749768733978,-0.002474999986588955
1779999130020268000,11.19726806640625,0.0012374999932944775,0.05458749830722809,0.0010999999940395355
1779999130037545000,11.214544921875,0.002474999986588955,0.2451625019311905,0.002337499987334013
1779999130054821400,11.2318212890625,0.002474999986588955,0.29534998536109924,0.0035749999806284904
1779999130072098300,11.249098388671875,0.002474999986588955,0.17434999346733093,0.002337499987334013
1779999130089375000,11.266375,0,-0.047987498342990875,-0.0012374999932944775
1779999130106651600,11.283651611328125,-0.002474999986588955,-0.24351249635219574,-0.006187499966472387
1779999130123928300,11.30092822265625,-0.002474999986588955,-0.2923249900341034,-0.006187499966472387
1779999130141205000,11.318205078125,-0.0012374999932944775,-0.17132499814033508,-0.002474999986588955
1779999130158482000,11.33548193359375,0.002474999986588955,0.04977500066161156,0.002337499987334013
1779999130175758300,11.35275830078125,0.00494999997317791,0.2391124963760376,0.004812499973922968
1779999130193035000,11.370034912109375,0.0037124999798834324,0.2866874933242798,0.006049999967217445
1779999130210312000,11.38731201171875,0.002474999986588955,0.16830000281333923,0.0035749999806284904
1779999130227588400,11.40458837890625,0,-0.04922499880194664,-0.0012374999932944775
1779999130244865300,11.421865234375,-0.002474999986588955,-0.23594999313354492,-0.00494999997317791
1779999130262141700,11.4391416015625,-0.002474999986588955,-0.2824249863624573,-0.00494999997317791
1779999130279418400,11.45641845703125,-0.0012374999932944775,-0.16266250610351562,-0.002474999986588955
1779999130296695300,11.4736953125,0.0012374999932944775,0.04743750020861626,0.0012374999932944775
1779999130313972000,11.490971923828125,0.002337499987334013,0.22948749363422394,0.004812499973922968
1779999130331248600,11.50824853515625,0.0035749999806284904,0.2782999873161316,0.004812499973922968
1779999130348525300,11.525525390625,0.0012374999932944775,0.16472500562667847,0.002474999986588955
1779999130365802000,11.542802001953126,0,-0.045375000685453415,-0.0012374999932944775
1779999130383078700,11.56007861328125,-0.002474999986588955,-0.22618749737739563,-0.0037124999798834324
1779999130400355300,11.577355224609375,-0.002474999986588955,-0.27390000224113464,-0.0037124999798834324
1779999130417632300,11.59463232421875,-0.002474999986588955,-0.16266250610351562,-0.0012374999932944775
1779999130434908700,11.61190869140625,-0.0012374999932944775,0.040150001645088196,0.0012374999932944775
1779999130452185300,11.629185302734374,0.002337499987334013,0.2209624946117401,0.0035749999806284904
1779999130469462000,11.6464619140625,0.0035749999806284904,0.27348750829696655,0.004812499973922968
1779999130486738700,11.66373876953125,0.002337499987334013,0.16596250236034393,0.0035749999806284904
1779999130504015000,11.68101513671875,0,-0.03932499885559082,-0.0012374999932944775
1779999130521292000,11.6982919921875,-0.002474999986588955,-0.2213750034570694,-0.0037124999798834324
1779999130538569000,11.71556884765625,-0.002474999986588955,-0.272662490606308,-0.00494999997317791
1779999130555845400,11.732845458984375,-0.0012374999932944775,-0.1639000028371811,-0.0012374999932944775
1779999130573122300,11.750122314453124,0,0.03891250118613243,0.0012374999932944775
1779999130590399000,11.76739892578125,0.002337499987334013,0.21848750114440918,0.002474999986588955
1779999130607675600,11.784675537109376,0.0035749999806284904,0.27348750829696655,0.006049999967217445
1779999130624952300,11.801952392578125,0.002337499987334013,0.1671999990940094,0.002474999986588955
1779999130642228700,11.819228759765625,0,-0.03684999793767929,-0.0012374999932944775
1779999130659505700,11.836505615234374,-0.002474999986588955,-0.21889999508857727,-0.00494999997317791
1779999130676782300,11.8537822265625,-0.002474999986588955,-0.2714250087738037,-0.00494999997317791
1779999130694059000,11.87105908203125,-0.002474999986588955,-0.16513749957084656,-0.0012374999932944775
1779999130711335700,11.888335693359375,0.0012374999932944775,0.0364375002682209,0
1779999130728612600,11.905612548828126,0.002337499987334013,0.2147749960422516,0.0035749999806284904
1779999130745889000,11.922888916015625,0.002474999986588955,0.2685374915599823,0.004812499973922968
1779999130763165700,11.940165771484375,0.0012374999932944775,0.16472500562667847,0.002474999986588955
1779999130780442400,11.9574423828125,-0.0012374999932944775,-0.03437500074505806,-0.0012374999932944775
1779999130797719300,11.97471923828125,-0.002474999986588955,-0.2116124927997589,-0.00494999997317791
1779999130814995700,11.99199560546875,-0.0037124999798834324,-0.2628999948501587,-0.006187499966472387
1779999130832272400,12.0092724609375,-0.0012374999932944775,-0.16032500565052032,-0.0037124999798834324
1779999130849549000,12.026549072265626,0,0.0364375002682209,0.0012374999932944775
1779999130866825700,12.04382568359375,0.002474999986588955,0.21119999885559082,0.0035749999806284904
1779999130884102700,12.0611025390625,0.0037124999798834324,0.2624875009059906,0.0035749999806284904
1779999130901379300,12.07837939453125,0.002474999986588955,0.16224999725818634,0.002474999986588955
1779999130918656000,12.095656005859375,0,-0.033275000751018524,-0.0012374999932944775
1779999130935932700,12.1129326171875,-0.002474999986588955,-0.20913749933242798,-0.00494999997317791
1779999130953209300,12.130209228515625,-0.002474999986588955,-0.2591874897480011,-0.00494999997317791
1779999130970486000,12.147486083984376,-0.0012374999932944775,-0.15908749401569366,-0.0012374999932944775
1779999130987762700,12.1647626953125,0.0012374999932944775,0.03272499889135361,0.0012374999932944775
1779999131005039600,12.18203955078125,0.0037124999798834324,0.20377500355243683,0.0035749999806284904
1779999131022316300,12.19931640625,0.002474999986588955,0.25753748416900635,0.004812499973922968
1779999131039592700,12.2165927734375,0.0012374999932944775,0.15853749215602875,0.002474999986588955
1779999131056869600,12.23386962890625,0,-0.030799999833106995,0
1779999131074146000,12.25114599609375,-0.002474999986588955,-0.20308749377727509,-0.0037124999798834324
1779999131091423000,12.268423095703126,-0.002474999986588955,-0.25437501072883606,-0.0037124999798834324
1779999131108699600,12.28569970703125,-0.0012374999932944775,-0.1578499972820282,-0.002474999986588955
1779999131125976000,12.30297607421875,0,0.02667500078678131,0.0012374999932944775
1779999131143252700,12.320252685546874,0.002474999986588955,0.19648750126361847,0.0035749999806284904
1779999131160529700,12.33752978515625,0.002474999986588955,0.25148749351501465,0.0035749999806284904
1779999131177806300,12.354806396484374,0.002474999986588955,0.1597750037908554,0.0012374999932944775
1779999131195082800,12.372082763671875,0,-0.02227500081062317,-0.002474999986588955
1779999131212359700,12.389359619140626,-0.002474999986588955,-0.19208750128746033,-0.0037124999798834324
1779999131229636000,12.406635986328125,-0.002474999986588955,-0.24584999680519104,-0.006187499966472387
1779999131246913000,12.4239130859375,-0.0012374999932944775,-0.15537500381469727,-0.002474999986588955
1779999131264189700,12.441189697265624,0,0.02419999986886978,0
1779999131281466400,12.45846630859375,0.002474999986588955,0.1891999989748001,0.004812499973922968
1779999131298742800,12.47574267578125,0.002474999986588955,0.24296249449253082,0.0035749999806284904
1779999131316019700,12.493019775390625,0.0012374999932944775,0.15496249496936798,0.002474999986588955
1779999131333296400,12.51029638671875,-0.0012374999932944775,-0.02461249940097332,0
1779999131350573000,12.527572998046875,-0.002474999986588955,-0.1896124929189682,-0.00494999997317791
1779999131367849700,12.544849609375,-0.0037124999798834324,-0.24089999496936798,-0.0037124999798834324
1779999131385126100,12.562126220703124,-0.0012374999932944775,-0.15166249871253967,-0.002474999986588955
1779999131402403000,12.579403076171875,0.0012374999932944775,0.025437500327825546,0.0012374999932944775
1779999131419679700,12.5966796875,0.0037124999798834324,0.18424999713897705,0.004812499973922968
1779999131436956400,12.613956298828125,0.0037124999798834324,0.2367749959230423,0.0035749999806284904
1779999131454233000,12.631233154296876,0.002474999986588955,0.14877499639987946,0.0035749999806284904
1779999131471510000,12.648510009765625,0.0012374999932944775,-0.02461249940097332,-0.002474999986588955
1779999131488786700,12.66578662109375,-0.0012374999932944775,-0.1821874976158142,-0.0037124999798834324
1779999131506063400,12.6830634765625,-0.0012374999932944775,-0.2311374992132187,-0.00494999997317791
1779999131523340000,12.700340087890625,-0.0012374999932944775,-0.14561249315738678,-0.002474999986588955
1779999131540616700,12.71761669921875,0,0.02419999986886978,0
1779999131557893400,12.734893310546875,0.002474999986588955,0.17943750321865082,0.002474999986588955
1779999131575170000,12.752170166015626,0.0037124999798834324,0.23196250200271606,0.004812499973922968
1779999131592446700,12.76944677734375,0.0012374999932944775,0.14767499268054962,0.002474999986588955
1779999131609723400,12.786723388671875,0,-0.023375000804662704,-0.0012374999932944775
1779999131627000300,12.804000244140624,-0.0037124999798834324,-0.18108749389648438,-0.00494999997317791
1779999131644276700,12.82127685546875,-0.0037124999798834324,-0.22990000247955322,-0.0037124999798834324
1779999131661553400,12.838553466796874,-0.002474999986588955,-0.14313749969005585,-0.002474999986588955
1779999131678830000,12.855830078125,0.0012374999932944775,0.02667500078678131,0.0012374999932944775
1779999131696107000,12.87310693359375,0.002474999986588955,0.18053749203681946,0.0035749999806284904
1779999131713383700,12.8903837890625,0.002474999986588955,0.227012500166893,0.0035749999806284904
1779999131730660400,12.907660400390625,0.002474999986588955,0.1414874941110611,0.002474999986588955
1779999131747936800,12.924936767578124,-0.0012374999932944775,-0.02722499892115593,-0.0012374999932944775
1779999131765213400,12.94221337890625,-0.002474999986588955,-0.17998750507831573,-0.0037124999798834324
1779999131782490400,12.959490478515624,-0.0035749999806284904,-0.2250874936580658,-0.00494999997317791
1779999131799766800,12.976766845703125,-0.0012374999932944775,-0.14079999923706055,-0.0012374999932944775
1779999131817043700,12.994043701171876,0.0012374999932944775,0.027775000780820847,0.002337499987334013
1779999131834320100,13.011320068359375,0.0037124999798834324,0.17806249856948853,0.0035749999806284904
1779999131851597000,13.02859716796875,0.002474999986588955,0.22316250205039978,0.0035749999806284904
1779999131868873700,13.045873779296874,0.002474999986588955,0.13887499272823334,0.002337499987334013
1779999131886150400,13.063150390625,0.0012374999932944775,-0.025987500324845314,-0.00013749999925494194
1779999131903427000,13.080427001953124,-0.0012374999932944775,-0.1775124967098236,-0.0037124999798834324
1779999131920703500,13.097703369140625,-0.002474999986588955,-0.22151249647140503,-0.0037124999798834324
1779999131937980400,13.11498046875,0,-0.13722500205039978,-0.002474999986588955
1779999131955257000,13.132257080078125,0.0012374999932944775,0.026537500321865082,0.0010999999940395355
1779999131972533800,13.14953369140625,0.0037124999798834324,0.17311249673366547,0.0035749999806284904
1779999131989810400,13.166810546875,0.0037124999798834324,0.21834999322891235,0.0035749999806284904
1779999132007087000,13.184087158203125,0.0012374999932944775,0.1340624988079071,0.002337499987334013
1779999132024363800,13.20136376953125,-0.0012374999932944775,-0.02722499892115593,-0.0012374999932944775
1779999132041640400,13.218640380859375,-0.002474999986588955,-0.17132499814033508,-0.0037124999798834324
1779999132058917000,13.235917236328126,-0.002474999986588955,-0.21408750116825104,-0.0037124999798834324
1779999132076194000,13.253194091796875,-0.0012374999932944775,-0.13103750348091125,-0.0012374999932944775
1779999132093470700,13.270470703125,0,0.027775000780820847,0.0010999999940395355
1779999132110747100,13.2877470703125,0.002474999986588955,0.16830000281333923,0.0035749999806284904
1779999132128023800,13.30502392578125,0.002474999986588955,0.21216249465942383,0.002337499987334013
1779999132145300700,13.32230078125,0.0012374999932944775,0.1303499937057495,0.002337499987334013
1779999132162577400,13.339577392578125,-0.0012374999932944775,-0.023512499406933784,-0.0012374999932944775
1779999132179854000,13.35685400390625,-0.002474999986588955,-0.1652749925851822,-0.002474999986588955
1779999132197130800,13.374130859375,-0.0012374999932944775,-0.20803749561309814,-0.0037124999798834324
1779999132214407400,13.391407470703125,0,-0.1297999918460846,-0.002474999986588955
1779999132231684400,13.408684326171874,0.0012374999932944775,0.024062499403953552,0.0010999999940395355
1779999132248960800,13.425960693359375,0.002474999986588955,0.1621125042438507,0.0010999999940395355
1779999132266237400,13.443237548828124,0.002474999986588955,0.20611250400543213,0.0035749999806284904
1779999132283514000,13.46051416015625,0.002474999986588955,0.13158750534057617,0
1779999132300790800,13.477790771484376,0,-0.018699999898672104,0
1779999132318067700,13.495067626953125,-0.0012374999932944775,-0.15674999356269836,-0.0037124999798834324
1779999132335344000,13.51234423828125,-0.0012374999932944775,-0.20198750495910645,-0.0037124999798834324
1779999132352620800,13.529620849609374,-0.0012374999932944775,-0.1297999918460846,-0.0012374999932944775
1779999132369897500,13.5468974609375,0.0012374999932944775,0.01677500084042549,0.0010999999940395355
1779999132387174400,13.56417431640625,0.002474999986588955,0.15358750522136688,0.004812499973922968
1779999132404450800,13.581450927734375,0.002474999986588955,0.20116250216960907,0.0035749999806284904
1779999132421727500,13.5987275390625,0.0012374999932944775,0.1303499937057495,0.0035749999806284904
1779999132439004200,13.616004150390625,0,-0.01746249943971634,0
1779999132456280800,13.63328076171875,-0.002337499987334013,-0.1555124968290329,-0.002474999986588955
1779999132473557800,13.650557861328124,-0.002337499987334013,-0.19951249659061432,-0.002474999986588955
1779999132490834200,13.667834228515625,-0.0012374999932944775,-0.1274625062942505,-0.002474999986588955
1779999132508110800,13.68511083984375,0.0012374999932944775,0.018012499436736107,0.002337499987334013
1779999132525387500,13.702387451171875,0.002474999986588955,0.1498750001192093,0.002337499987334013
1779999132542664200,13.719664306640626,0.002474999986588955,0.19634999334812164,0.0035749999806284904
1779999132559941000,13.736941162109375,0.0012374999932944775,0.1266375035047531,0.002337499987334013
1779999132577217800,13.7542177734375,0,-0.014987500384449959,0
1779999132594494500,13.771494384765624,-0.0012374999932944775,-0.14698749780654907,-0.002474999986588955
1779999132611771100,13.788771240234375,-0.002337499987334013,-0.19222499430179596,-0.002474999986588955
1779999132629047800,13.8060478515625,0,-0.12622499465942383,-0.0012374999932944775
1779999132646324500,13.823324462890625,0.0012374999932944775,0.013062499463558197,0.0010999999940395355
1779999132663601200,13.84060107421875,0.0012374999932944775,0.14258749783039093,0.002337499987334013
1779999132680877800,13.8578779296875,0.002474999986588955,0.19139999151229858,0.0035749999806284904
1779999132698154500,13.875154541015625,0.0012374999932944775,0.1266375035047531,0.002337499987334013
1779999132715431200,13.89243115234375,0,-0.011412499472498894,0
1779999132732707800,13.909707763671875,-0.0012374999932944775,-0.142037495970726,-0.002474999986588955
1779999132749984500,13.926984619140624,-0.0012374999932944775,-0.18851250410079956,-0.002474999986588955
1779999132767261200,13.94426123046875,0,-0.12622499465942383,-0.002474999986588955
1779999132784537900,13.961537841796876,0.0012374999932944775,0.010587500408291817,0.002337499987334013
1779999132801814500,13.978814453125,0.0037124999798834324,0.13887499272823334,0.002337499987334013
1779999132819091200,13.99609130859375,0.002474999986588955,0.18658749759197235,0.0035749999806284904
1779999132836368000,14.013367919921874,0.0012374999932944775,0.12553749978542328,0.0010999999940395355
1779999132853644500,14.03064453125,0,-0.010174999944865704,-0.0012374999932944775
1779999132870921200,14.047921142578126,-0.0012374999932944775,-0.13598750531673431,-0.002474999986588955
1779999132888198100,14.0651982421875,-0.0012374999932944775,-0.18232500553131104,-0.002474999986588955
1779999132905474600,14.082474609375,-0.0012374999932944775,-0.12251249700784683,-0.002474999986588955
1779999132922751200,14.099751220703125,0,0.009487500414252281,0.0010999999940395355
1779999132940028200,14.117028076171875,0.002474999986588955,0.13529999554157257,0.002337499987334013
1779999132957304800,14.134304931640624,0.002474999986588955,0.1816374957561493,0.002337499987334013
1779999132974581500,14.15158154296875,0.0012374999932944775,0.12058749794960022,0.002337499987334013
1779999132991858200,14.168858154296874,-0.0012374999932944775,-0.010174999944865704,-0.00013749999925494194
1779999133009134600,14.186134521484375,-0.002474999986588955,-0.13474999368190765,-0.002474999986588955
1779999133026411500,14.20341162109375,-0.0012374999932944775,-0.17874999344348907,-0.002474999986588955
1779999133043688200,14.220688232421875,0,-0.11879999935626984,-0.0012374999932944775
1779999133060964600,14.237964599609375,0.0012374999932944775,0.008249999955296516,0.002337499987334013
1779999133078241300,14.2552412109375,0.0012374999932944775,0.13158750534057617,0.002337499987334013
1779999133095518000,14.27251806640625,0.002474999986588955,0.17682500183582306,0.002337499987334013
1779999133112795000,14.289794921875,0.0012374999932944775,0.11935000121593475,0.0010999999940395355
1779999133130071600,14.307071533203125,0,-0.007699999958276749,-0.0012374999932944775
1779999133147348200,14.32434814453125,-0.0012374999932944775,-0.1274625062942505,-0.002474999986588955
1779999133164625000,14.341625,-0.0012374999932944775,-0.17132499814033508,-0.002474999986588955
1779999133181901600,14.358901611328125,-0.0012374999932944775,-0.11646249890327454,-0.0012374999932944775
1779999133199178200,14.37617822265625,0.0012374999932944775,0.004537499975413084,0.0010999999940395355
1779999133216455000,14.393454833984375,0.002474999986588955,0.12182500213384628,0.002337499987334013
1779999133233731600,14.410731689453126,0.002474999986588955,0.16830000281333923,0.002337499987334013
1779999133251008300,14.42800830078125,0.0012374999932944775,0.11467500030994415,0.0035749999806284904
1779999133268285000,14.445284912109376,-0.0012374999932944775,-0.007562499959021807,0
1779999133285561900,14.462561767578125,-0.002474999986588955,-0.1223749965429306,-0.0012374999932944775
1779999133302838300,14.47983837890625,-0.0012374999932944775,-0.16513749957084656,-0.002474999986588955
1779999133320115000,14.497114990234374,-0.0012374999932944775,-0.11261250078678131,-0.0012374999932944775
1779999133337391600,14.5143916015625,0.0012374999932944775,0.007149999961256981,0
1779999133354668300,14.531668212890626,0.002474999986588955,0.11948750168085098,0.002474999986588955
1779999133371945000,14.548945068359375,0.002474999986588955,0.1634874939918518,0.002474999986588955
1779999133389221600,14.5662216796875,0.0012374999932944775,0.11219999939203262,0
1779999133406498300,14.583498291015625,0,-0.0038499999791383743,-0.0012374999932944775
1779999133423775000,14.60077490234375,-0.0012374999932944775,-0.1163249984383583,-0.0037124999798834324
1779999133441051600,14.6180517578125,-0.0012374999932944775,-0.16032500565052032,-0.002474999986588955
1779999133458328300,14.635328369140625,-0.0012374999932944775,-0.11137499660253525,-0.0012374999932944775
1779999133475605000,14.65260498046875,0.0012374999932944775,0.0034374999813735485,0
1779999133492881700,14.669881591796875,0.002474999986588955,0.11701250076293945,0.0035749999806284904
1779999133510158300,14.687158447265626,0.002474999986588955,0.16101250052452087,0.0035749999806284904
1779999133527435300,14.704435302734375,0.0012374999932944775,0.1097249984741211,0.0012374999932944775
1779999133544712000,14.7217119140625,0,-0.005087499972432852,0
1779999133561988400,14.73898828125,-0.0012374999932944775,-0.1163249984383583,-0.0037124999798834324
1779999133579265000,14.75626513671875,-0.0012374999932944775,-0.15661250054836273,-0.0012374999932944775
1779999133596541700,14.773541748046876,0,-0.10766249895095825,-0.002474999986588955
1779999133613818600,14.790818603515625,0,0.004674999974668026,0.0012374999932944775
1779999133631095300,14.80809521484375,0.0012374999932944775,0.11343749612569809,0.002474999986588955
1779999133648372000,14.8253720703125,0.002474999986588955,0.15619999170303345,0.0035749999806284904
1779999133665648600,14.842648681640625,0.0012374999932944775,0.10724999755620956,0.0012374999932944775
1779999133682925000,14.859925048828124,0,-0.0038499999791383743,0
1779999133700202000,14.877201904296875,-0.0012374999932944775,-0.11261250078678131,-0.002474999986588955
1779999133717478700,14.894478759765626,-0.002474999986588955,-0.1541374921798706,-0.002474999986588955
1779999133734755300,14.91175537109375,-0.0012374999932944775,-0.10656250268220901,-0.0012374999932944775
1779999133752032000,14.929031982421876,0,0.0034374999813735485,0
1779999133769308700,14.94630859375,0.0012374999932944775,0.11096250265836716,0.0012374999932944775
1779999133786585300,14.96358544921875,0.002474999986588955,0.15372499823570251,0.002474999986588955
1779999133803862000,14.980862060546874,0.0012374999932944775,0.1060125008225441,0.0012374999932944775
1779999133821138700,14.998138671875,0,-0.0038499999791383743,-0.0012374999932944775
1779999133838415400,15.015415283203126,-0.0012374999932944775,-0.11261250078678131,-0.002474999986588955
1779999133855692000,15.032692138671875,-0.002474999986588955,-0.15166249871253967,-0.002474999986588955
1779999133872968700,15.04996875,-0.0012374999932944775,-0.10284999758005142,-0.0012374999932944775
1779999133890245400,15.067245361328125,0.0012374999932944775,0.004674999974668026,0
1779999133907522000,15.08452197265625,0.0012374999932944775,0.1097249984741211,0.0012374999932944775
1779999133924798700,15.101798828125,0.0012374999932944775,0.15125000476837158,0.002474999986588955
1779999133942075400,15.119075439453125,0.0012374999932944775,0.10491249710321426,0.0012374999932944775
1779999133959352000,15.13635205078125,0,-0.0002749999985098839,0
1779999133976628700,15.153628662109375,-0.0012374999932944775,-0.10656250268220901,-0.002474999986588955
1779999133993905400,15.170905517578126,-0.0012374999932944775,-0.15166249871253967,-0.002474999986588955
1779999134011182000,15.18818212890625,-0.0012374999932944775,-0.10532499849796295,-0.0012374999932944775
1779999134028459000,15.205458984375,0,0.0009624999947845936,0.0012374999932944775
1779999134045735400,15.2227353515625,0.0012374999932944775,0.1060125008225441,0.0035749999806284904
1779999134063012000,15.24001220703125,0.0012374999932944775,0.14767499268054962,0.002474999986588955
1779999134080288800,15.257288818359376,0,0.10243749618530273,0.002474999986588955
1779999134097565400,15.2745654296875,-0.0012374999932944775,-0.0013749999925494194,-0.0012374999932944775
1779999134114842400,15.29184228515625,-0.0012374999932944775,-0.10408750176429749,-0.0012374999932944775
1779999134132119000,15.309119140625,-0.0012374999932944775,-0.14561249315738678,-0.0012374999932944775
1779999134149395500,15.3263955078125,-0.0012374999932944775,-0.10161250084638596,-0.0012374999932944775
1779999134166672400,15.34367236328125,0,0.0009624999947845936,0
1779999134183948800,15.36094873046875,0.0012374999932944775,0.10243749618530273,0.0012374999932944775
1779999134201225500,15.3782255859375,0.0012374999932944775,0.1451999992132187,0.002474999986588955
1779999134218502100,15.395502197265625,0.0012374999932944775,0.10243749618530273,0
1779999134235778800,15.41277880859375,0.0012374999932944775,0.0009624999947845936,0
1779999134253055500,15.430055419921874,-0.0012374999932944775,-0.10161250084638596,-0.0037124999798834324
1779999134270332200,15.447332275390625,-0.0012374999932944775,-0.1443749964237213,-0.002474999986588955
1779999134287608800,15.46460888671875,-0.0012374999932944775,-0.10037499666213989,-0.0012374999932944775
1779999134304885800,15.4818857421875,0.0012374999932944775,0.002199999988079071,0
1779999134322162400,15.499162353515626,0.002337499987334013,0.1036750003695488,0.0012374999932944775
1779999134339439000,15.516439208984375,0.002337499987334013,0.1451999992132187,0.002474999986588955
1779999134356715800,15.5337158203125,0.002337499987334013,0.10119999945163727,0.002474999986588955
1779999134373992400,15.550992431640625,0,-0.0002749999985098839,0
1779999134391269000,15.56826904296875,-0.0012374999932944775,-0.10408750176429749,-0.0012374999932944775
1779999134408545800,15.5855458984375,-0.0012374999932944775,-0.14313749969005585,-0.002474999986588955
1779999134425822500,15.602822509765625,0,-0.10037499666213989,-0.0012374999932944775
1779999134443099100,15.62009912109375,0,0.0009624999947845936,0.0012374999932944775
1779999134460375600,15.63737548828125,0.0012374999932944775,0.0999625027179718,0.0012374999932944775
1779999134477652500,15.654652587890626,0.0012374999932944775,0.14024999737739563,0.0035749999806284904
1779999134494929200,15.67192919921875,0.002337499987334013,0.09748750180006027,0.002474999986588955
1779999134512205800,15.689205810546875,0,-0.0013749999925494194,0.0012374999932944775
1779999134529482500,15.706482421875,0,-0.09790000319480896,-0.0012374999932944775
1779999134546759200,15.72375927734375,-0.0012374999932944775,-0.13832500576972961,-0.0012374999932944775
1779999134564035800,15.741035888671876,-0.0012374999932944775,-0.09913749992847443,-0.0012374999932944775
1779999134581312500,15.7583125,0,-0.0013749999925494194,0
1779999134598589200,15.775589111328125,0.0012374999932944775,0.09748750180006027,0.002474999986588955
1779999134615865900,15.792865966796874,0.002337499987334013,0.1377750039100647,0.002474999986588955
1779999134633142500,15.810142578125,0.0012374999932944775,0.09872499853372574,0.002474999986588955
1779999134650419200,15.827419189453124,0,0.0009624999947845936,-0.0012374999932944775
1779999134667695900,15.84469580078125,-0.0012374999932944775,-0.09556250274181366,-0.002474999986588955
1779999134684972500,15.86197265625,-0.0012374999932944775,-0.13461250066757202,-0.002474999986588955
1779999134702249200,15.879249267578125,-0.0012374999932944775,-0.09308750182390213,-0.002474999986588955
1779999134719526000,15.89652587890625,0,0.0009624999947845936,0.0012374999932944775
1779999134736802300,15.91380224609375,0.0012374999932944775,0.09501250088214874,0.0012374999932944775
1779999134754079000,15.931078857421875,0.002474999986588955,0.13282500207424164,0.0035749999806284904
1779999134771356000,15.94835595703125,0.0012374999932944775,0.09377499669790268,0.0010999999940395355
1779999134788632600,15.965632568359375,0,-0.0004124999977648258,0.0010999999940395355
1779999134805909200,15.9829091796875,-0.0012374999932944775,-0.09569999575614929,-0.0012374999932944775
1779999134823186000,16.00018603515625,-0.002474999986588955,-0.13474999368190765,-0.0012374999932944775
1779999134840462600,16.017462646484375,-0.0012374999932944775,-0.09446249902248383,-0.00013749999925494194
1779999134857739300,16.0347392578125,0,-0.0004124999977648258,-0.00013749999925494194
1779999134875016000,16.052015869140625,0.0012374999932944775,0.09377499669790268,0.002337499987334013
1779999134892292600,16.069292724609376,0.0012374999932944775,0.13158750534057617,0.0010999999940395355
1779999134909569300,16.0865693359375,0,0.09253749996423721,0.002337499987334013
1779999134926846000,16.103845947265626,0,-0.0015124999918043613,-0.0012374999932944775
1779999134944122600,16.12112255859375,-0.0012374999932944775,-0.09322500228881836,-0.0012374999932944775
1779999134961399300,16.1383994140625,-0.0012374999932944775,-0.12856249511241913,-0.002474999986588955
1779999134978676000,16.155676025390626,-0.0012374999932944775,-0.08951249718666077,-0.0012374999932944775
1779999134995952600,16.17295263671875,0,0.0008249999955296516,-0.00013749999925494194
1779999135013229300,16.190229248046876,0,0.09129999577999115,-0.00013749999925494194
1779999135030506000,16.207506103515627,0.002474999986588955,0.12787500023841858,0.002337499987334013
1779999135047782700,16.22478271484375,0.0012374999932944775,0.09129999577999115,0.0010999999940395355
1779999135065059300,16.242059326171876,0,-0.0004124999977648258,0.0010999999940395355
1779999135082335700,16.259335693359375,-0.0012374999932944775,-0.09322500228881836,-0.002474999986588955
1779999135099612400,16.2766123046875,-0.0012374999932944775,-0.1297999918460846,-0.0012374999932944775
1779999135116889000,16.29388916015625,-0.0012374999932944775,-0.09075000137090683,-0.0012374999932944775
1779999135134166000,16.311166015625,0.0012374999932944775,0.0008249999955296516,-0.00013749999925494194
1779999135151442700,16.328442626953127,0.002474999986588955,0.09129999577999115,0.0010999999940395355
1779999135168719400,16.34571923828125,0.0012374999932944775,0.12677499651908875,0.0010999999940395355
1779999135185995800,16.362995849609376,0,0.08882500231266022,0.002337499987334013
1779999135203272400,16.3802724609375,0,-0.0015124999918043613,-0.00013749999925494194
1779999135220549400,16.39754931640625,0,-0.08951249718666077,-0.002474999986588955
1779999135237826000,16.414825927734373,0,-0.12498749792575836,-0.0012374999932944775
1779999135255102700,16.432102783203124,0,-0.08689999580383301,-0.002474999986588955
1779999135272379400,16.44937939453125,0,0.0009624999947845936,0.0012374999932944775
1779999135289656000,16.466656005859374,0.0012374999932944775,0.08524999767541885,0.0012374999932944775
1779999135306932700,16.4839326171875,0.0012374999932944775,0.12196250259876251,0
1779999135324209400,16.50120947265625,0.0012374999932944775,0.08772499859333038,0.0012374999932944775
1779999135341486000,16.518486083984374,0.0012374999932944775,0.0009624999947845936,-0.0012374999932944775
1779999135358762800,16.5357626953125,0,-0.0845625028014183,-0.0012374999932944775
1779999135376039400,16.553039306640624,-0.0012374999932944775,-0.11990000307559967,-0.002474999986588955
1779999135393316000,16.570316162109375,0,-0.08579999953508377,-0.002474999986588955
1779999135410592800,16.5875927734375,0.0012374999932944775,0.0009624999947845936,0
1779999135427869400,16.604869384765625,0.0012374999932944775,0.08648750185966492,0.0012374999932944775
1779999135445146000,16.62214599609375,0.0012374999932944775,0.12196250259876251,0.002474999986588955
1779999135462422800,16.6394228515625,0.0012374999932944775,0.08401250094175339,0.0012374999932944775
1779999135479699500,16.656699462890625,0,-0.0013749999925494194,0
1779999135496976100,16.67397607421875,-0.0012374999932944775,-0.08813749998807907,0
1779999135514252800,16.691252685546875,-0.0012374999932944775,-0.1223749965429306,-0.0012374999932944775
1779999135531529500,16.708529541015626,-0.0012374999932944775,-0.08579999953508377,0
1779999135548806100,16.72580615234375,0,-0.0002749999985098839,0.002474999986588955
1779999135566082800,16.743082763671875,0.0012374999932944775,0.08524999767541885,0.0035749999806284904
1779999135583359500,16.760359375,0.002474999986588955,0.11824999749660492,0.0035749999806284904
1779999135600636000,16.777635986328125,0.0012374999932944775,0.07919999957084656,0.0012374999932944775
1779999135617912800,16.794912841796876,0,-0.005087499972432852,0
1779999135635189500,16.812189453125,-0.0012374999932944775,-0.08332499861717224,-0.0012374999932944775
1779999135652466200,16.829466064453126,-0.0012374999932944775,-0.11261250078678131,-0.0012374999932944775
1779999135669742600,16.84674267578125,0,-0.07713750004768372,0.0012374999932944775
1779999135687019500,16.86401953125,0.0012374999932944775,0.0009624999947845936,0.002474999986588955
1779999135704296200,16.881296142578126,0.002474999986588955,0.0742499977350235,0.0035749999806284904
1779999135721572600,16.898572509765625,0.002474999986588955,0.10243749618530273,0.0012374999932944775
1779999135738849300,16.915849365234376,0.0012374999932944775,0.06943749636411667,0
1779999135756126000,16.9331259765625,0.0012374999932944775,-0.0013749999925494194,0
1779999135773402600,16.950402587890625,0,-0.06984999775886536,-0.002474999986588955
1779999135790679600,16.967679443359376,0,-0.09679999947547913,-0.002474999986588955
1779999135807956000,16.9849560546875,-0.0012374999932944775,-0.06861250102519989,-0.0012374999932944775
1779999135825232600,17.002232666015626,-0.002474999986588955,-0.0013749999925494194,-0.0037124999798834324
1779999135842509300,17.01950927734375,-0.0037124999798834324,0.0681999996304512,-0.0012374999932944775
1779999135859786000,17.036785888671876,-0.0037124999798834324,0.10491249710321426,-0.0037124999798834324
1779999135877062700,17.054062744140627,-0.0037124999798834324,0.08772499859333038,0
1779999135894339300,17.07133935546875,0,0.0193875003606081,0
1779999135911616000,17.088615966796876,0,-0.0625625029206276,-0.002474999986588955
1779999135928892700,17.105892578125,-0.0037124999798834324,-0.11013749986886978,-0.002474999986588955
1779999135946169300,17.12316943359375,-0.0037124999798834324,-0.0943249985575676,-0.00494999997317791
1779999135963446000,17.140446044921877,-0.0012374999932944775,-0.016087500378489494,-0.0012374999932944775
1779999135980722700,17.15772265625,0.0037124999798834324,0.0742499977350235,0.0012374999932944775
1779999135997999600,17.17499951171875,0.007287499960511923,0.11948750168085098,0.0012374999932944775
1779999136015276000,17.192276123046874,0.007287499960511923,0.09267500042915344,0.002474999986588955
1779999136032552700,17.209552734375,0.0037124999798834324,0.007149999961256981,-0.002474999986588955
1779999136049829400,17.226829345703123,0.0012374999932944775,-0.08084999769926071,-0.0037124999798834324
1779999136067106000,17.24410595703125,0,-0.11756250262260437,-0.006187499966472387
1779999136084383000,17.261383056640625,0.0012374999932944775,-0.08084999769926071,-0.0037124999798834324
1779999136101659600,17.27865966796875,0.0012374999932944775,0.0034374999813735485,-0.0012374999932944775
1779999136118936000,17.29593603515625,0.0012374999932944775,0.08524999767541885,0
1779999136136212700,17.313212646484374,0,0.11467500030994415,0.0012374999932944775
1779999136153489400,17.330489501953124,-0.0012374999932944775,0.08167500048875809,-0.0012374999932944775
1779999136170766000,17.34776611328125,0,0.0034374999813735485,0
1779999136188042800,17.365042724609374,0,-0.07479999959468842,-0.0012374999932944775
1779999136205319400,17.3823193359375,-0.0012374999932944775,-0.11137499660253525,0.0012374999932944775
1779999136222596000,17.39959619140625,-0.0012374999932944775,-0.0845625028014183,0
1779999136239872800,17.416872802734375,-0.0012374999932944775,-0.011274999938905239,0.0012374999932944775
1779999136257149400,17.4341494140625,0,0.07067500054836273,0.0012374999932944775
1779999136274426000,17.451426025390624,0.0012374999932944775,0.11219999939203262,0.002474999986588955
1779999136291702800,17.468702880859375,0,0.08648750185966492,0.0012374999932944775
1779999136308979500,17.4859794921875,0,0.008387500420212746,0
1779999136326256000,17.503256103515625,-0.0012374999932944775,-0.07356250286102295,0
1779999136343532800,17.52053271484375,-0.0012374999932944775,-0.11137499660253525,-0.0037124999798834324
1779999136360809500,17.5378095703125,0,-0.08208750188350677,0
1779999136378086100,17.555086181640625,0,-0.007562499959021807,0
1779999136395362800,17.57236279296875,0.0012374999932944775,0.07067500054836273,0
1779999136412639500,17.589639404296875,0.0012374999932944775,0.10848750174045563,0.002474999986588955
1779999136429916200,17.606916259765626,0.0012374999932944775,0.08415000140666962,0.002474999986588955
1779999136447192800,17.62419287109375,0,0.008387500420212746,0
1779999136464469200,17.64146923828125,-0.0012374999932944775,-0.07108750194311142,-0.0012374999932944775
1779999136481746000,17.658745849609375,-0.0012374999932944775,-0.10889999568462372,-0.0012374999932944775
1779999136499022800,17.67602294921875,0,-0.08332499861717224,-0.0012374999932944775
1779999136516299500,17.693299560546876,0,-0.007562499959021807,0.0012374999932944775
1779999136533576000,17.710575927734375,0.0012374999932944775,0.06943749636411667,0.0012374999932944775
1779999136550852600,17.7278525390625,0.0012374999932944775,0.10491249710321426,0.002474999986588955
1779999136568129300,17.74512939453125,0.0012374999932944775,0.08043749630451202,0.0012374999932944775
1779999136585406000,17.762406005859376,0,0.009624999947845936,0
1779999136602682600,17.7796826171875,0,-0.06737499684095383,-0.0012374999932944775
1779999136619959600,17.79695947265625,-0.0012374999932944775,-0.10656250268220901,-0.0012374999932944775
1779999136637236200,17.814236328125,-0.0012374999932944775,-0.08208750188350677,-0.002474999986588955
1779999136654512600,17.8315126953125,0,-0.008799999952316284,0
1779999136671789300,17.848789306640626,0.0012374999932944775,0.0681999996304512,0
1779999136689066000,17.86606591796875,0.002474999986588955,0.1060125008225441,0.0012374999932944775
1779999136706342700,17.8833427734375,0.0012374999932944775,0.08291249722242355,0.0012374999932944775
1779999136723619600,17.90061962890625,0,0.010724999941885471,-0.0012374999932944775
1779999136740896300,17.917896240234374,-0.0012374999932944775,-0.06613750010728836,-0.0012374999932944775
1779999136758172700,17.935172607421876,-0.0012374999932944775,-0.10284999758005142,-0.002474999986588955
1779999136775449300,17.952449462890623,-0.0012374999932944775,-0.07961250096559525,0
1779999136792726000,17.96972607421875,0,-0.008799999952316284,0
1779999136810002700,17.987002685546877,0.0012374999932944775,0.06572499871253967,0.0012374999932944775
1779999136827279600,18.004279541015624,0.0012374999932944775,0.10243749618530273,0.002474999986588955
1779999136844556000,18.02155615234375,0.0012374999932944775,0.07919999957084656,0.0012374999932944775
1779999136861832700,18.038832763671873,0,0.008387500420212746,0.0012374999932944775
1779999136879109400,18.056109375,-0.0012374999932944775,-0.06613750010728836,-0.0012374999932944775
1779999136896386000,18.073385986328127,-0.0012374999932944775,-0.10161250084638596,0.004812499973922968
1779999136913662700,18.090662841796874,-0.0012374999932944775,-0.07232499867677689,0
1779999136930939400,18.107939453125,0.0012374999932944775,0.0034374999813735485,0.004812499973922968
1779999136948216000,18.125216064453124,0.0012374999932944775,0.07919999957084656,0.0012374999932944775
1779999136965492700,18.14249267578125,0.002474999986588955,0.11219999939203262,0.0035749999806284904
1779999136982769400,18.159769287109373,0.0012374999932944775,0.08043749630451202,0
1779999137000046000,18.177046142578124,0,-0.0002749999985098839,-0.0012374999932944775
1779999137017322800,18.19432275390625,0,-0.07713750004768372,0.0012374999932944775
1779999137034599200,18.21159912109375,-0.0012374999932944775,-0.10766249895095825,-0.006187499966472387
1779999137051876000,18.2288759765625,0,-0.07961250096559525,-0.010999999940395355
1779999137069152500,18.246152587890624,0,-0.011274999938905239,0
1779999137086429400,18.263429443359374,0.0012374999932944775,0.05843750014901161,0.0035749999806284904
1779999137103706000,18.2807060546875,0.0012374999932944775,0.08896250277757645,-0.01347499992698431
1779999137120982500,18.297982421875,0.0012374999932944775,0.062150001525878906,0.002474999986588955
1779999137138259200,18.31525927734375,0,-0.010037500411272049,-0.00494999997317791
1779999137155536100,18.3325361328125,0,-0.07232499867677689,0.0085249999538064
1779999137172812800,18.349812744140625,0,-0.08208750188350677,0.004812499973922968
1779999137190089500,18.36708935546875,0,-0.03932499885559082,-0.0037124999798834324
1779999137207366100,18.3843662109375,0.0012374999932944775,0.02914999984204769,-0.002474999986588955
1779999137224642600,18.401642578125,0.0012374999932944775,0.07067500054836273,-0.010999999940395355
1779999137241919200,18.418919189453124,0.0012374999932944775,0.06572499871253967,0.0085249999538064
1779999137259196200,18.436196044921875,0,0.018149999901652336,-0.0037124999798834324
1779999137276472600,18.45347265625,-0.0012374999932944775,-0.03203750029206276,0.014574999921023846
1779999137293749200,18.470749267578125,-0.0012374999932944775,-0.050324998795986176,0.007287499960511923
1779999137311026000,18.48802587890625,-0.0012374999932944775,0.005912499967962503,-0.08428750187158585
1779999137328302600,18.505302490234374,0.0012374999932944775,0.09019999951124191,0.08304999768733978
1779999137345579300,18.522579345703125,0.0012374999932944775,0.0719124972820282,0.004812499973922968
1779999137362856000,18.53985595703125,0.0012374999932944775,-0.0038499999791383743,-0.00494999997317791
1779999137380132600,18.557132568359375,0,-0.012374999932944775,-0.12347500026226044
1779999137397409500,18.574409423828126,0.002474999986588955,0.11219999939203262,-0.010999999940395355
1779999137414686000,18.59168603515625,0.0037124999798834324,0.20253749191761017,0.00976249948143959
1779999137431962600,18.608962646484375,0.002474999986588955,0.17943750321865082,0.014574999921023846
1779999137449239300,18.6262392578125,0.0012374999932944775,0.07067500054836273,0.00976249948143959
1779999137466516000,18.643515869140625,-0.0012374999932944775,-0.021037500351667404,0.0085249999538064
1779999137483792600,18.660792724609376,0,-0.02956249937415123,0.007287499960511923
1779999137501069000,18.678069091796875,0.0012374999932944775,0.0681999996304512,-0.042762499302625656
1779999137518346000,18.695345947265626,0.007287499960511923,0.21601249277591705,-0.0317624993622303
1779999137535622700,18.71262255859375,0.007287499960511923,0.28806251287460327,0.023237500339746475
1779999137552899000,18.729899169921875,0.004812499973922968,0.23801249265670776,0.028049999848008156
1779999137570175700,18.74717578125,0.01347499992698431,0.14643749594688416,0.03657500073313713
1779999137587452400,18.764452392578125,0.014574999921023846,0.12443749606609344,0.01223750039935112
1779999137604729000,18.78172900390625,0.014574999921023846,0.1915374994277954,-0.02199999988079071
1779999137622005800,18.799005859375,0.00976249948143959,0.2539624869823456,-0.03423750028014183
1779999137639282700,18.81628271484375,0.004812499973922968,0.26001250743865967,-0.01718750037252903
1779999137656559400,18.833559326171876,0.006049999967217445,0.24406249821186066,0.01952499896287918
1779999137673836000,18.8508359375,0.01223750039935112,0.20253749191761017,0.0085249999538064
1779999137691112400,18.868112548828126,0.0085249999538064,0.13048750162124634,-0.01347499992698431
1779999137708389000,18.88538916015625,0.004812499973922968,0.11467500030994415,-0.08195000141859055
1779999137725665800,18.902665771484376,0.0037124999798834324,0.17820000648498535,-0.057475000619888306
1779999137742942700,18.919942626953127,0.004812499973922968,0.227012500166893,0.02928750030696392
1779999137760219400,18.937219482421874,0.00494999997317791,0.20006249845027924,0.05609999969601631
1779999137777496000,18.95449609375,0.00494999997317791,0.147537499666214,0.057337500154972076
1779999137794772500,18.9717724609375,0.00494999997317791,0.11329999566078186,0.057337500154972076
1779999137812049200,18.989049072265626,0.00494999997317791,0.10711249709129333,0.04028749838471413
1779999137829325800,19.006325927734373,0.01223750039935112,0.15482500195503235,-0.03423750028014183
1779999137846602800,19.023602783203124,0.002474999986588955,0.20982499420642853,0.030524998903274536
1779999137863879200,19.040879150390627,0.002474999986588955,0.23058749735355377,0.05362499877810478
1779999137881155800,19.05815576171875,-0.0012374999932944775,0.20487499237060547,0.06833750009536743
1779999137898432500,19.0754326171875,-0.0012374999932944775,0.17682500183582306,0.01952499896287918
1779999137915709200,19.092709228515623,0.0037124999798834324,0.16830000281333923,-0.008662499487400055
1779999137932985900,19.10998583984375,0.006049999967217445,0.18411250412464142,0.0085249999538064
1779999137950262500,19.127262451171877,0.006049999967217445,0.20611250400543213,0.00976249948143959
1779999137967539200,19.144539306640624,0.002474999986588955,0.19139999151229858,-0.029424998909235
1779999137984815900,19.16181591796875,0,0.14863750338554382,-0.05376249924302101
1779999138002092300,19.17909228515625,0.0012374999932944775,0.10477499663829803,-0.037950001657009125
1779999138019369000,19.196368896484376,0.0085249999538064,0.10353749990463257,-0.015949999913573265
1779999138036645600,19.213645751953123,0.007287499960511923,0.1498750001192093,-0.030662499368190765
1779999138053922300,19.23092236328125,0.0037124999798834324,0.18782499432563782,0.0010999999940395355
1779999138071199000,19.248198974609377,0.002474999986588955,0.16940000653266907,-0.002474999986588955
1779999138088476000,19.265475830078124,0.002474999986588955,0.12182500213384628,-0.00494999997317791
1779999138105752300,19.28275244140625,0.007287499960511923,0.1023000031709671,-0.01347499992698431
1779999138123029000,19.300029052734374,0.0085249999538064,0.12182500213384628,0.01209999993443489
1779999138140305700,19.3173056640625,0.0037124999798834324,0.1498750001192093,0.014574999921023846
1779999138157582300,19.334582275390623,0.0037124999798834324,0.15963749587535858,0.032862499356269836
1779999138174859000,19.35185888671875,0.0012374999932944775,0.13653749227523804,0.010862499475479126
1779999138192136000,19.369135986328125,0,0.10106249898672104,-0.007424999959766865
1779999138209412600,19.38641259765625,0.002474999986588955,0.09611249715089798,-0.04399999976158142
1779999138226689000,19.40368896484375,0.006049999967217445,0.11687500029802322,0.023099999874830246
1779999138243965700,19.420965576171874,0.0012374999932944775,0.08758749812841415,0.010862499475479126
1779999138261242400,19.438242431640624,-0.0037124999798834324,0.01677500084042549,-0.062424998730421066
1779999138278519000,19.45551904296875,-0.00494999997317791,-0.01746249943971634,-0.09171249717473984
1779999138295795700,19.472795654296874,0.0012374999932944775,0.008249999955296516,-0.0012374999932944775
1779999138313072400,19.490072265625,0.00494999997317791,0.05335000157356262,0.06104999780654907
1779999138330349000,19.50734912109375,0.0037124999798834324,0.09006249904632568,0.037812501192092896
1779999138347625700,19.524625732421875,0.0012374999932944775,0.09982500225305557,0.0170499999076128
1779999138364902100,19.541902099609374,-0.006049999967217445,0.09501250088214874,-0.018424998968839645
1779999138382179000,19.559178955078124,-0.01223750039935112,0.11082500219345093,-0.04895000159740448
1779999138399455500,19.57645556640625,-0.00494999997317791,0.14630000293254852,-0.032999999821186066
1779999138416732200,19.593732177734374,-0.002474999986588955,0.1695374995470047,-0.00494999997317791
1779999138434009000,19.611009033203125,0,0.16706250607967377,-0.007424999959766865
1779999138451285800,19.62828564453125,0,0.1621125042438507,-0.042762499302625656
1779999138468562400,19.6455625,0,0.14258749783039093,-0.045237500220537186
1779999138485838800,19.6628388671875,0.002474999986588955,0.09129999577999115,0.007287499960511923
1779999138503115500,19.680115478515624,0.002474999986588955,0.05101250112056732,0.014574999921023846
1779999138520392200,19.69739208984375,-0.0037124999798834324,0.07177499681711197,-0.06599999964237213
1779999138537668900,19.7146689453125,-0.002474999986588955,0.10958749800920486,-0.00013749999925494194
1779999138554945500,19.731945556640625,0.0037124999798834324,0.09377499669790268,0.04028749838471413
1779999138572222500,19.749222412109376,0.002474999986588955,0.04124999791383743,0.03162499889731407
1779999138589499000,19.766498779296874,0.002474999986588955,-0.010174999944865704,-0.00013749999925494194
1779999138606775600,19.783775634765625,-0.002474999986588955,-0.023512499406933784,-0.07218749821186066
1779999138624052200,19.80105224609375,-0.0012374999932944775,0.013062499463558197,-0.03918749839067459
1779999138641329000,19.818328857421875,0,0.04853750020265579,-0.00013749999925494194
1779999138658605600,19.83560546875,-0.0012374999932944775,0.07906249910593033,-0.037950001657009125
1779999138675882200,19.85288232421875,0.0012374999932944775,0.09253749996423721,-0.02447500079870224
1779999138693159000,19.870158935546876,0.0085249999538064,0.07906249910593033,0.023099999874830246
1779999138710435600,19.887435546875,0.010999999940395355,0.05582499876618385,0.0952875018119812
1779999138727712300,19.904712158203125,0.007287499960511923,0.0448249988257885,0.10381250083446503
1779999138744989000,19.921989013671876,0.002474999986588955,0.03382499888539314,0.05128749832510948
1779999138762265300,19.939265380859375,-0.0012374999932944775,0.021724998950958252,0.0035749999806284904
1779999138779542300,19.956542236328126,-0.007287499960511923,0.015675000846385956,-0.00976249948143959
1779999138796819000,19.97381884765625,-0.006187499966472387,0.02667500078678131,-0.045237500220537186
1779999138814095600,19.991095703125,-0.0012374999932944775,0.0424874983727932,-0.04028749838471413
1779999138831372300,20.008372314453126,0,0.0424874983727932,-0.02928750030696392
1779999138848649000,20.02564892578125,-0.00494999997317791,0.03272499889135361,-0.057475000619888306
1779999138865925400,20.04292529296875,-0.006187499966472387,0.03272499889135361,-0.07095000147819519
1779999138883202000,20.0602021484375,0,0.03272499889135361,0.0035749999806284904
1779999138900479000,20.07747900390625,0.0012374999932944775,0.014437500387430191,0.05128749832510948
1779999138917755600,20.094755615234376,-0.006187499966472387,-0.011274999938905239,0.06104999780654907
1779999138935032000,20.112031982421875,0,-0.013612499460577965,0.03904999792575836
1779999138952308700,20.129308837890626,0.0012374999932944775,0.010724999941885471,0.0085249999538064
1779999138969585400,20.14658544921875,0,0.03272499889135361,0.006049999967217445
1779999138986862000,20.163862060546876,0,0.021724998950958252,-0.015949999913573265
1779999139004138800,20.181138671875,-0.002474999986588955,-0.010037500411272049,-0.030524998903274536
1779999139021415200,20.198415283203126,-0.0037124999798834324,-0.012374999932944775,-0.05871250107884407
1779999139038692000,20.215692138671876,-0.0012374999932944775,0.02667500078678131,-0.04895000159740448
1779999139055968800,20.23296875,0.002474999986588955,0.06324999779462814,0.02433750033378601
1779999139073245200,20.2502451171875,0.006049999967217445,0.0681999996304512,0.07809999585151672
1779999139090521900,20.26752197265625,0.004812499973922968,0.0364375002682209,0.07809999585151672
1779999139107798500,20.284798583984376,0.0037124999798834324,-0.010037500411272049,0.03904999792575836
1779999139125075200,20.3020751953125,0,-0.02461249940097332,-0.01718750037252903
1779999139142352000,20.319351806640626,-0.00494999997317791,-0.023375000804662704,-0.059950001537799835
1779999139159628500,20.336628662109376,-0.00494999997317791,-0.02227500081062317,-0.05252499878406525
1779999139176905200,20.3539052734375,-0.002474999986588955,-0.02956249937415123,-0.03918749839067459
1779999139194182000,20.371181884765626,-0.0012374999932944775,-0.04179999977350235,-0.015949999913573265
1779999139211458600,20.38845849609375,0.0012374999932944775,-0.040562499314546585,-0.0085249999538064
1779999139228735200,20.4057353515625,0.0037124999798834324,-0.02461249940097332,0.04028749838471413
1779999139246011600,20.42301171875,0.0037124999798834324,-0.010037500411272049,0.05252499878406525
1779999139263288300,20.440288330078126,0.0012374999932944775,-0.005087499972432852,0.01952499896287918
1779999139280565200,20.457565185546876,-0.0037124999798834324,-0.0002749999985098839,-0.035475000739097595
1779999139297842000,20.474842041015624,-0.00494999997317791,0.007149999961256981,-0.04152499884366989
1779999139315118600,20.49211865234375,-0.002474999986588955,0.008387500420212746,-0.0317624993622303
1779999139332395300,20.509395263671873,0.0012374999932944775,0.005912499967962503,-0.007424999959766865
1779999139349672000,20.526671875,0.0037124999798834324,0.005912499967962503,0.01223750039935112
1779999139366948600,20.543948486328127,0.0012374999932944775,0.013199999928474426,0.010999999940395355
1779999139384225300,20.561225341796874,0.0012374999932944775,0.018149999901652336,0.01952499896287918
1779999139401501700,20.578501708984376,0.002474999986588955,0.011962499469518661,0.023237500339746475
1779999139418778600,20.595778564453123,0,-0.0038499999791383743,-0.002474999986588955
1779999139436055300,20.61305517578125,-0.0012374999932944775,-0.007562499959021807,-0.01718750037252903
1779999139453332000,20.63033203125,0.0012374999932944775,0.0034374999813735485,0.014574999921023846
1779999139470608600,20.647608642578124,0.002474999986588955,0.009487500414252281,0.035337500274181366
1779999139487885300,20.66488525390625,0.0012374999932944775,0.004674999974668026,0.004812499973922968
1779999139505161700,20.68216162109375,-0.0037124999798834324,-0.005087499972432852,-0.03671250119805336
1779999139522438400,20.6994384765625,-0.00494999997317791,-0.02708750031888485,-0.045237500220537186
1779999139539715300,20.71671533203125,-0.002474999986588955,-0.052799999713897705,-0.02694999985396862
1779999139556991700,20.73399169921875,-0.0012374999932944775,-0.04908749833703041,-0.015949999913573265
1779999139574268400,20.751268310546877,0,-0.013612499460577965,-0.0012374999932944775
1779999139591545000,20.768545166015624,0.0037124999798834324,0.03272499889135361,0.0317624993622303
1779999139608821800,20.78582177734375,0.004812499973922968,0.049912501126527786,0.035337500274181366
1779999139626098400,20.803098388671874,0.002474999986588955,0.02914999984204769,0.02199999988079071
1779999139643375000,20.820375,0,0.005912499967962503,0.0085249999538064
1779999139660651500,20.837651611328123,0,0.008387500420212746,0
1779999139677928200,20.85492822265625,0.0012374999932944775,0.03148749843239784,-0.01347499992698431
1779999139695205000,20.872205078125,0.0037124999798834324,0.04743750020861626,-0.0037124999798834324
1779999139712481800,20.889481689453124,0.0012374999932944775,0.02914999984204769,0.007287499960511923
1779999139729758500,20.906758544921875,-0.0012374999932944775,-0.01732499897480011,0
1779999139747035100,20.92403515625,0,-0.047849997878074646,0.0170499999076128
1779999139764311800,20.941311767578124,0.0012374999932944775,-0.03684999793767929,0.004812499973922968
1779999139781588500,20.95858837890625,0.0035749999806284904,0.0009624999947845936,0.025575000792741776
1779999139798865200,20.975865234375,0.0012374999932944775,0.0193875003606081,0.014574999921023846
1779999139816141800,20.993141845703125,-0.0012374999932944775,0.015675000846385956,-0.006187499966472387
1779999139833418500,21.01041845703125,-0.002474999986588955,0.010724999941885471,-0.03671250119805336
1779999139850695200,21.027695068359375,-0.002474999986588955,0.002199999988079071,-0.037950001657009125
1779999139867971600,21.0449716796875,0.0035749999806284904,0.01691249944269657,0.02199999988079071
1779999139885248300,21.062248291015624,0.007287499960511923,0.0644875019788742,0.07576250284910202
1779999139902525000,21.07952490234375,0.006049999967217445,0.08896250277757645,0.08428750187158585
1779999139919801600,21.096801513671874,0.0012374999932944775,0.05843750014901161,0.007287499960511923
1779999139937078300,21.114078369140625,-0.006187499966472387,0.002199999988079071,-0.07576250284910202
1779999139954355000,21.13135498046875,-0.0085249999538064,-0.03437500074505806,-0.0989999994635582
1779999139971631600,21.148631591796875,-0.002474999986588955,-0.04413750022649765,-0.050187498331069946
1779999139988908300,21.165908203125,0.002474999986588955,-0.0625625029206276,0.004812499973922968
1779999140006184700,21.183184814453124,0,-0.10766249895095825,0.0035749999806284904
1779999140023461400,21.20046142578125,-0.007287499960511923,-0.2213750034570694,-0.07204999774694443
1779999140040738000,21.217738037109374,-0.010999999940395355,-0.39118748903274536,-0.11247500032186508
1779999140058015000,21.235014892578125,-0.010999999940395355,-0.6660500168800354,-0.023237500339746475
1779999140075291600,21.252291748046876,-0.006187499966472387,-1.1412500143051147,0.24186250567436218
1779999140092568300,21.269568359375,-0.00976249948143959,-1.8889750242233276,0.5559124946594238
1779999140109844700,21.2868447265625,-0.05004999786615372,-2.8370375633239746,0.9761124849319458
1779999140127121400,21.304121337890624,0.04028749838471413,-3.7411000728607178,0.10381250083446503
1779999140144398000,21.321398193359375,-0.002474999986588955,-3.39528751373291,-1.373212456703186
1779999140161674800,21.3386748046875,-0.0037124999798834324,-1.184012532234192,-0.38981249928474426
1779999140178951400,21.355951416015625,0.03657500073313713,1.4169374704360962,1.3084499835968018
1779999140196228000,21.37322802734375,-0.035475000739097595,3.2568249702453613,1.6700749397277832
1779999140213504500,21.39050439453125,-0.09776250272989273,3.0845375061035156,-0.5631999969482422
1779999140230781400,21.407781494140625,-0.10752499848604202,0.9552124738693237,-3.827587366104126
1779999140248058000,21.42505810546875,0.02199999988079071,-1.52611243724823,2.692662477493286
1779999140265334500,21.44233447265625,0.059812501072883606,-2.971374988555908,0.8820624947547913
1779999140282611200,21.459611083984374,0.032999999821186066,-3.1608500480651855,-0.9957749843597412
1779999140299887900,21.476887939453125,0.015812499448657036,-1.2244374752044678,-0.5766749978065491
1779999140317164500,21.49416455078125,0.02199999988079071,1.1103124618530273,0.7720624804496765
1779999140334441200,21.511441162109374,-0.03423750028014183,2.9136250019073486,1.189924955368042
1779999140351717600,21.528717529296873,-0.07576250284910202,3.0112500190734863,-0.6462500095367432
1779999140368994300,21.545994384765624,-0.07328750193119049,1.3008874654769897,-3.2460999488830566
1779999140386271200,21.563271240234375,0.04152499884366989,-1.1290124654769897,2.637662410736084
1779999140403548000,21.5805478515625,0.0170499999076128,-2.8920373916625977,0.12828749418258667
1779999140420824300,21.59782421875,-0.02928750030696392,-3.224375009536743,-1.7641249895095825
1779999140438101000,21.61510107421875,-0.020762499421834946,-1.367300033569336,0.16981250047683716
1779999140455377700,21.632377685546874,0.04647500067949295,1.0785499811172485,1.809362530708313
1779999140472654300,21.649654296875,-0.04399999976158142,2.78410005569458,1.9449374675750732
1779999140489931000,21.666930908203124,-0.13557499647140503,2.773099899291992,-0.29809999465942383
1779999140507207700,21.684207763671875,-0.10257499665021896,0.9587875008583069,-3.852062463760376
1779999140524484400,21.701484375,0.00976249948143959,-0.6440500020980835,0.6304374933242798
1779999140541761000,21.718760986328125,0.0317624993622303,-1.9377875328063965,2.5986125469207764
1779999140559037700,21.73603759765625,0.08552499860525131,-2.5242249965667725,0.006049999967217445
