time,seconds_elapsed,z,y,x
1779999119135104000,0.31210400390625,21.693750381469727,29.962501525878906,9.356250762939453
1779999119155372500,0.33237255859375,22.443750381469727,30.056251525878906,9.5625
1779999119175741200,0.3527412109375,22.42500114440918,30.056251525878906,9.543750762939453
1779999119195943200,0.372943115234375,22.23750114440918,30.056251525878906,9.506250381469727
1779999119215729000,0.39272900390625,22.256250381469727,30.075000762939453,9.487500190734863
1779999119271915000,0.4489150390625,22.181251525878906,30.11250114440918,9.46875
1779999119374231000,0.55123095703125,22.106250762939453,30.168750762939453,9.393750190734863
1779999119505729500,0.6827294921875,21.993751525878906,30.30000114440918,9.300000190734863
1779999119549552000,0.72655224609375,21.918750762939453,30.356250762939453,9.262500762939453
1779999119593361200,0.770361083984375,21.918750762939453,30.356250762939453,9.24375057220459
1779999119637148700,0.814148681640625,21.900001525878906,30.39375114440918,9.206250190734863
1779999119680903200,0.857903076171875,21.86250114440918,30.412500381469727,9.168750762939453
1779999119724610300,0.9016103515625,21.900001525878906,30.431251525878906,9.15000057220459
1779999119768252200,0.945252197265625,21.84375,30.450000762939453,9.09375
1779999119811806000,0.988805908203125,21.787500381469727,30.450000762939453,9.075000762939453
1779999119855246000,1.03224609375,21.84375,30.48750114440918,9.075000762939453
1779999119898540800,1.075540771484375,21.75,30.48750114440918,9.037500381469727
1779999119941653000,1.118653076171875,21.84375,30.468751907348633,9.018750190734863
1779999119984543000,1.16154296875,21.900001525878906,30.450000762939453,9.018750190734863
1779999120027163000,1.204162841796875,21.881250381469727,30.431251525878906,9.018750190734863
1779999120069690400,1.2466904296875,21.975000381469727,30.412500381469727,9.037500381469727
1779999120194729500,1.3717294921875,22.3125,30.318750381469727,9.075000762939453
1779999120314133500,1.491133544921875,22.275001525878906,30.318750381469727,9.131250381469727
1779999120352345300,1.529345458984375,22.200000762939453,30.281251907348633,9.15000057220459
1779999120389643000,1.56664306640625,22.125,30.281251907348633,9.15000057220459
1779999120425936000,1.602935791015625,22.275001525878906,30.30000114440918,9.168750762939453
1779999120461134800,1.638134765625,22.481250762939453,30.262500762939453,9.206250190734863
1779999120495157000,1.672156982421875,22.51875114440918,30.243751525878906,9.262500762939453
1779999120527923700,1.704923828125,22.5,30.243751525878906,9.318750381469727
1779999120559348000,1.736347900390625,22.40625,30.243751525878906,9.33750057220459
1779999120589366500,1.766366455078125,22.462501525878906,30.225000381469727,9.356250762939453
1779999120617915000,1.794914794921875,22.42500114440918,30.187501907348633,9.375
1779999120644923000,1.8219228515625,22.23750114440918,30.187501907348633,9.356250762939453
1779999120670355200,1.847355224609375,22.087501525878906,30.187501907348633,9.375
1779999120694176500,1.871176513671875,21.975000381469727,30.168750762939453,9.393750190734863
1779999120716355600,1.89335546875,21.84375,30.168750762939453,9.393750190734863
1779999120736893400,1.9138935546875,21.731250762939453,30.150001525878906,9.393750190734863
1779999120755784400,1.932784423828125,21.787500381469727,30.150001525878906,9.412500381469727
1779999120774231000,1.95123095703125,21.76875114440918,30.131250381469727,9.43125057220459
1779999120808115000,1.985114990234375,21.58125114440918,30.075000762939453,9.450000762939453
1779999120844645000,2.02164501953125,21.1875,30.000001907348633,9.450000762939453
1779999120860515600,2.037515625,21.11250114440918,29.981250762939453,9.450000762939453
1779999120871763000,2.048762939453125,21.131250381469727,29.981250762939453,9.450000762939453
1779999120882758700,2.059758544921875,21,29.981250762939453,9.46875
1779999120895055400,2.072055419921875,20.83125114440918,30.000001907348633,9.543750762939453
1779999120905561900,2.082561767578125,17.625,30.356250762939453,10.65000057220459
1779999120917127700,2.094127685546875,17.73750114440918,30.431251525878906,10.818750381469727
1779999120949880000,2.126880126953125,18.09375,30.375001907348633,10.706250190734863
1779999120969907700,2.14690771484375,17.981250762939453,30.39375114440918,10.800000190734863
1779999120983912400,2.160912353515625,17.981250762939453,30.39375114440918,10.800000190734863
1779999120999730700,2.176730712890625,18.318750381469727,30.39375114440918,10.78125
1779999121017319700,2.194319580078125,18.356250762939453,30.337501525878906,10.74375057220459
1779999121036626400,2.21362646484375,18.225000381469727,30.356250762939453,10.78125
1779999121046905000,2.223905029296875,18.037500381469727,30.39375114440918,10.818750381469727
1779999121057589800,2.23458984375,17.850000381469727,30.412500381469727,10.875
1779999121068672800,2.2456728515625,17.868751525878906,30.431251525878906,10.893750190734863
1779999121080145700,2.257145751953125,17.90625,30.468751907348633,10.893750190734863
1779999121091999500,2.26899951171875,17.887500762939453,30.468751907348633,10.875
1779999121104246500,2.28124658203125,17.92500114440918,30.450000762939453,10.83750057220459
1779999121116855000,2.29385498046875,18.037500381469727,30.431251525878906,10.83750057220459
1779999121129798000,2.3067978515625,17.83125114440918,30.412500381469727,10.856250762939453
1779999121145219000,2.322218994140625,17.662500381469727,30.431251525878906,10.875
1779999121166939600,2.343939697265625,17.53125,30.450000762939453,10.856250762939453
1779999121190980600,2.367980712890625,17.45625114440918,30.468751907348633,10.875
1779999121214366200,2.3913662109375,17.418750762939453,30.468751907348633,10.856250762939453
1779999121236086800,2.413086669921875,16.98750114440918,30.48750114440918,10.875
1779999121256535300,2.433535400390625,16.650001525878906,30.468751907348633,10.856250762939453
1779999121276409600,2.45340966796875,16.462501525878906,30.48750114440918,10.856250762939453
1779999121296177200,2.47317724609375,16.556251525878906,30.468751907348633,10.856250762939453
1779999121315693600,2.492693603515625,16.743751525878906,30.468751907348633,10.818750381469727
1779999121335349800,2.512349853515625,16.80000114440918,30.468751907348633,10.800000190734863
1779999121355483100,2.532483154296875,16.89375114440918,30.468751907348633,10.800000190734863
1779999121375313700,2.552313720703125,16.931251525878906,30.48750114440918,10.800000190734863
1779999121395170800,2.5721708984375,16.6875,30.48750114440918,10.818750381469727
1779999121415101000,2.592100830078125,16.462501525878906,30.48750114440918,10.83750057220459
1779999121435095000,2.612094970703125,16.5,30.506250381469727,10.856250762939453
1779999121455365400,2.632365478515625,16.650001525878906,30.48750114440918,10.856250762939453
1779999121475256000,2.652256103515625,16.818750381469727,30.468751907348633,10.818750381469727
1779999121495240700,2.67224072265625,16.931251525878906,30.431251525878906,10.800000190734863
1779999121515442700,2.692442626953125,17.08125114440918,30.431251525878906,10.818750381469727
1779999121535294500,2.71229443359375,17.15625,30.431251525878906,10.818750381469727
1779999121555293700,2.732293701171875,17.287500381469727,30.431251525878906,10.875
1779999121575196700,2.75219677734375,17.587501525878906,30.412500381469727,10.875
1779999121595145700,2.772145751953125,17.73750114440918,30.412500381469727,10.856250762939453
1779999121615594800,2.7925947265625,17.793750762939453,30.412500381469727,10.83750057220459
1779999121635369000,2.812368896484375,17.775001525878906,30.39375114440918,10.818750381469727
1779999121655486200,2.832486328125,17.55000114440918,30.375001907348633,10.818750381469727
1779999121675485700,2.852485595703125,17.400001525878906,30.375001907348633,10.83750057220459
1779999121695321600,2.872321533203125,17.493751525878906,30.375001907348633,10.856250762939453
1779999121715440600,2.892440673828125,17.418750762939453,30.356250762939453,10.83750057220459
1779999121735261400,2.912261474609375,17.45625114440918,30.356250762939453,10.800000190734863
1779999121755255000,2.932255126953125,17.36250114440918,30.375001907348633,10.78125
1779999121775371500,2.95237158203125,17.17500114440918,30.356250762939453,10.762500762939453
1779999121795224800,2.972224853515625,17.006250381469727,30.375001907348633,10.78125
1779999121815350500,2.9923505859375,16.70625114440918,30.356250762939453,10.800000190734863
1779999121835485200,3.012485107421875,16.80000114440918,30.356250762939453,10.800000190734863
1779999121855293000,3.03229296875,16.89375114440918,30.375001907348633,10.800000190734863
1779999121875361300,3.052361328125,16.912500381469727,30.356250762939453,10.800000190734863
1779999121895218200,3.07221826171875,16.96875,30.356250762939453,10.762500762939453
1779999121915137000,3.092136962890625,16.89375114440918,30.337501525878906,10.762500762939453
1779999121935527400,3.11252734375,16.856250762939453,30.337501525878906,10.762500762939453
1779999121955814000,3.13281396484375,16.912500381469727,30.337501525878906,10.762500762939453
1779999121975666700,3.152666748046875,16.875,30.337501525878906,10.78125
1779999121995850500,3.1728505859375,16.856250762939453,30.337501525878906,10.78125
1779999122015436500,3.1924365234375,17.0625,30.337501525878906,10.78125
1779999122035198200,3.2121982421875,17.15625,30.337501525878906,10.78125
1779999122055425300,3.23242529296875,17.306251525878906,30.30000114440918,10.800000190734863
1779999122075246300,3.252246337890625,17.4375,30.318750381469727,10.818750381469727
1779999122095150000,3.272150146484375,17.475000381469727,30.30000114440918,10.83750057220459
1779999122115318800,3.29231884765625,17.587501525878906,30.318750381469727,10.875
1779999122135204400,3.312204345703125,17.568750381469727,30.30000114440918,10.893750190734863
1779999122155418000,3.332418212890625,17.475000381469727,30.30000114440918,10.875
1779999122175478500,3.352478515625,17.25,30.30000114440918,10.875
1779999122195324200,3.37232421875,17.193750381469727,30.318750381469727,10.893750190734863
1779999122215203000,3.392203125,17.381250381469727,30.337501525878906,10.893750190734863
1779999122235135200,3.41213525390625,17.418750762939453,30.356250762939453,10.912500381469727
1779999122255112000,3.43211181640625,17.36250114440918,30.356250762939453,10.912500381469727
1779999122275324200,3.45232421875,17.34375,30.375001907348633,10.93125057220459
1779999122295223800,3.472223876953125,17.306251525878906,30.375001907348633,10.93125057220459
1779999122315529700,3.49252978515625,17.287500381469727,30.375001907348633,10.912500381469727
1779999122335332600,3.51233251953125,17.325000762939453,30.39375114440918,10.893750190734863
1779999122355210200,3.532210205078125,17.34375,30.412500381469727,10.893750190734863
1779999122375384800,3.552384765625,17.34375,30.412500381469727,10.875
1779999122395239000,3.572239013671875,17.306251525878906,30.431251525878906,10.856250762939453
1779999122415159000,3.592158935546875,17.231250762939453,30.450000762939453,10.83750057220459
1779999122435373300,3.612373291015625,17.231250762939453,30.468751907348633,10.818750381469727
1779999122455567400,3.6325673828125,17.381250381469727,30.468751907348633,10.818750381469727
1779999122475347000,3.652346923828125,17.53125,30.468751907348633,10.800000190734863
1779999122495673900,3.672673828125,17.45625114440918,30.450000762939453,10.818750381469727
1779999122515478800,3.692478759765625,17.25,30.450000762939453,10.818750381469727
1779999122535256300,3.71225634765625,17.118751525878906,30.431251525878906,10.818750381469727
1779999122555151600,3.732151611328125,17.025001525878906,30.431251525878906,10.818750381469727
1779999122575300600,3.752300537109375,17.006250381469727,30.412500381469727,10.800000190734863
1779999122595393000,3.77239306640625,17.231250762939453,30.39375114440918,10.78125
1779999122615504100,3.792504150390625,17.381250381469727,30.375001907348633,10.78125
1779999122635297000,3.812297119140625,17.26875114440918,30.375001907348633,10.78125
1779999122655440000,3.83243994140625,17.100000381469727,30.375001907348633,10.78125
1779999122675270400,3.8522705078125,16.98750114440918,30.375001907348633,10.818750381469727
1779999122695381800,3.8723818359375,16.931251525878906,30.39375114440918,10.83750057220459
1779999122715223300,3.892223388671875,17.025001525878906,30.375001907348633,10.856250762939453
1779999122735151900,3.91215185546875,17.17500114440918,30.375001907348633,10.856250762939453
1779999122755387000,3.932386962890625,17.193750381469727,30.375001907348633,10.856250762939453
1779999122775270000,3.952269775390625,17.26875114440918,30.375001907348633,10.856250762939453
1779999122795186700,3.972186767578125,17.193750381469727,30.375001907348633,10.875
1779999122815407900,3.992407958984375,17.231250762939453,30.356250762939453,10.893750190734863
1779999122835278800,4.01227880859375,17.287500381469727,30.375001907348633,10.912500381469727
1779999122855654400,4.032654296875,17.381250381469727,30.356250762939453,10.912500381469727
1779999122875592200,4.05259228515625,17.625,30.356250762939453,10.893750190734863
1779999122895486700,4.07248681640625,17.606250762939453,30.39375114440918,10.875
1779999122915724300,4.092724365234375,17.512500762939453,30.412500381469727,10.856250762939453
1779999122935392500,4.112392578125,17.475000381469727,30.39375114440918,10.856250762939453
1779999122955192000,4.132192138671875,17.45625114440918,30.412500381469727,10.856250762939453
1779999122975094000,4.152093994140625,17.493751525878906,30.39375114440918,10.875
1779999122995078000,4.172077880859375,17.568750381469727,30.39375114440918,10.83750057220459
1779999123015176200,4.19217626953125,17.568750381469727,30.412500381469727,10.818750381469727
1779999123035153400,4.2121533203125,17.36250114440918,30.412500381469727,10.800000190734863
1779999123055348200,4.23234814453125,17.118751525878906,30.412500381469727,10.78125
1779999123075440400,4.2524404296875,16.931251525878906,30.39375114440918,10.78125
1779999123095273700,4.272273681640625,16.89375114440918,30.431251525878906,10.78125
1779999123115441400,4.29244140625,16.631250381469727,30.450000762939453,10.762500762939453
1779999123135750700,4.312750732421875,16.61250114440918,30.450000762939453,10.762500762939453
1779999123155710500,4.33271044921875,16.5,30.468751907348633,10.725000381469727
1779999123175590700,4.352590576171875,16.462501525878906,30.48750114440918,10.725000381469727
1779999123195302700,4.372302734375,16.33125114440918,30.468751907348633,10.762500762939453
1779999123215188200,4.392188232421875,16.275001525878906,30.468751907348633,10.78125
1779999123235375600,4.412375732421875,16.3125,30.468751907348633,10.818750381469727
1779999123255482000,4.432482177734375,16.275001525878906,30.450000762939453,10.818750381469727
1779999123275483000,4.45248291015625,16.21875,30.431251525878906,10.818750381469727
1779999123295267600,4.472267578125,16.14375114440918,30.431251525878906,10.818750381469727
1779999123315367000,4.492366943359375,16.05000114440918,30.412500381469727,10.818750381469727
1779999123335239700,4.51223974609375,15.918750762939453,30.412500381469727,10.818750381469727
1779999123355154200,4.532154296875,16.012500762939453,30.375001907348633,10.83750057220459
1779999123375349200,4.552349365234375,15.881250381469727,30.375001907348633,10.83750057220459
1779999123395579600,4.57257958984375,15.937500953674316,30.356250762939453,10.83750057220459
1779999123415336700,4.592336669921875,16.23750114440918,30.356250762939453,10.83750057220459
1779999123435201800,4.612201904296875,16.33125114440918,30.337501525878906,10.818750381469727
1779999123455382500,4.632382568359375,16.61250114440918,30.337501525878906,10.818750381469727
1779999123475249200,4.652249267578125,16.631250381469727,30.337501525878906,10.83750057220459
1779999123495173600,4.672173583984375,16.650001525878906,30.356250762939453,10.83750057220459
1779999123515395800,4.692395751953125,16.70625114440918,30.337501525878906,10.83750057220459
1779999123535540200,4.712540283203125,16.743751525878906,30.318750381469727,10.818750381469727
1779999123555613700,4.73261376953125,16.762500762939453,30.337501525878906,10.818750381469727
1779999123575561700,4.752561767578125,16.818750381469727,30.356250762939453,10.800000190734863
1779999123595571000,4.772571044921875,16.856250762939453,30.375001907348633,10.818750381469727
1779999123615315200,4.792315185546875,16.89375114440918,30.356250762939453,10.83750057220459
1779999123635427600,4.812427490234375,17.006250381469727,30.375001907348633,10.893750190734863
1779999123655461000,4.832461181640625,17.025001525878906,30.375001907348633,10.893750190734863
1779999123675259600,4.852259765625,17.306251525878906,30.39375114440918,10.875
1779999123695610400,4.8726103515625,17.26875114440918,30.39375114440918,10.875
1779999123715626000,4.8926259765625,17.26875114440918,30.375001907348633,10.856250762939453
1779999123735337200,4.912337158203125,17.26875114440918,30.375001907348633,10.856250762939453
1779999123755174700,4.932174560546875,16.950000762939453,30.375001907348633,10.856250762939453
1779999123775427000,4.952427001953125,16.875,30.39375114440918,10.856250762939453
1779999123795515600,4.972515625,16.89375114440918,30.375001907348633,10.856250762939453
1779999123815506200,4.992506103515625,16.70625114440918,30.375001907348633,10.856250762939453
1779999123835295000,5.012294921875,16.70625114440918,30.375001907348633,10.83750057220459
1779999123855170800,5.0321708984375,16.743751525878906,30.375001907348633,10.83750057220459
1779999123875311400,5.052311279296875,16.818750381469727,30.356250762939453,10.818750381469727
1779999123895198000,5.072197998046875,16.89375114440918,30.356250762939453,10.818750381469727
1779999123915133400,5.092133544921875,16.818750381469727,30.356250762939453,10.818750381469727
1779999123935121200,5.11212109375,16.70625114440918,30.356250762939453,10.78125
1779999123955514000,5.13251416015625,16.61250114440918,30.318750381469727,10.78125
1779999123975437000,5.15243701171875,16.51875114440918,30.318750381469727,10.78125
1779999123995279000,5.172279052734375,16.650001525878906,30.318750381469727,10.78125
1779999124015177500,5.192177490234375,16.70625114440918,30.337501525878906,10.762500762939453
1779999124035345000,5.212344970703125,16.725000381469727,30.356250762939453,10.762500762939453
1779999124055227600,5.2322275390625,16.818750381469727,30.356250762939453,10.78125
1779999124075357400,5.252357421875,16.89375114440918,30.356250762939453,10.800000190734863
1779999124095427600,5.272427490234375,16.912500381469727,30.356250762939453,10.818750381469727
1779999124115749600,5.29274951171875,17.118751525878906,30.375001907348633,10.818750381469727
1779999124135416800,5.312416748046875,17.231250762939453,30.375001907348633,10.818750381469727
1779999124155366700,5.33236669921875,17.25,30.375001907348633,10.818750381469727
1779999124175205400,5.352205322265625,17.15625,30.39375114440918,10.856250762939453
1779999124195323000,5.372322998046875,17.043750762939453,30.412500381469727,10.856250762939453
1779999124215667700,5.392667724609375,17.100000381469727,30.412500381469727,10.875
1779999124235384600,5.412384521484375,17.15625,30.431251525878906,10.875
1779999124255212800,5.432212890625,17.17500114440918,30.450000762939453,10.875
1779999124275322000,5.452322021484375,17.212501525878906,30.48750114440918,10.875
1779999124295192800,5.47219287109375,17.212501525878906,30.48750114440918,10.856250762939453
1779999124315394000,5.49239404296875,17.043750762939453,30.48750114440918,10.893750190734863
1779999124335524600,5.512524658203125,16.856250762939453,30.48750114440918,10.93125057220459
1779999124355448000,5.532447998046875,16.837501525878906,30.48750114440918,10.912500381469727
1779999124375460600,5.552460693359375,16.950000762939453,30.468751907348633,10.893750190734863
1779999124395261700,5.57226171875,17.0625,30.450000762939453,10.875
1779999124415348700,5.5923486328125,17.100000381469727,30.450000762939453,10.875
1779999124435211300,5.612211181640625,16.931251525878906,30.450000762939453,10.875
1779999124455135700,5.6321357421875,16.856250762939453,30.450000762939453,10.875
1779999124475110100,5.652110107421875,16.837501525878906,30.450000762939453,10.856250762939453
1779999124495382500,5.672382568359375,16.837501525878906,30.431251525878906,10.856250762939453
1779999124515454500,5.692454345703125,16.78125,30.431251525878906,10.83750057220459
1779999124535663000,5.7126630859375,16.950000762939453,30.412500381469727,10.818750381469727
1779999124555611100,5.732611083984375,17.043750762939453,30.412500381469727,10.818750381469727
1779999124575536000,5.7525361328125,17.025001525878906,30.412500381469727,10.818750381469727
1779999124595277300,5.77227734375,17.08125114440918,30.412500381469727,10.83750057220459
1779999124615145200,5.792145263671875,17.15625,30.412500381469727,10.818750381469727
1779999124635086000,5.812086181640625,17.26875114440918,30.412500381469727,10.800000190734863
1779999124655121200,5.83212109375,17.306251525878906,30.412500381469727,10.800000190734863
1779999124675131400,5.85213134765625,17.193750381469727,30.431251525878906,10.78125
1779999124695125800,5.872125732421875,17.17500114440918,30.450000762939453,10.78125
1779999124715402200,5.89240234375,17.08125114440918,30.431251525878906,10.78125
1779999124735288300,5.912288330078125,17.043750762939453,30.450000762939453,10.800000190734863
1779999124755207700,5.932207763671875,16.98750114440918,30.450000762939453,10.800000190734863
1779999124775164700,5.95216455078125,16.98750114440918,30.48750114440918,10.800000190734863
1779999124795436000,5.97243603515625,17.17500114440918,30.468751907348633,10.800000190734863
1779999124815745300,5.992745361328125,17.34375,30.48750114440918,10.800000190734863
1779999124835435300,6.012435302734375,17.231250762939453,30.506250381469727,10.818750381469727
1779999124855271400,6.032271484375,17.17500114440918,30.506250381469727,10.83750057220459
1779999124875152000,6.05215185546875,17.212501525878906,30.506250381469727,10.856250762939453
1779999124895572200,6.072572265625,17.231250762939453,30.525001525878906,10.875
1779999124915915500,6.09291552734375,17.212501525878906,30.543750762939453,10.893750190734863
1779999124935515100,6.11251513671875,17.26875114440918,30.543750762939453,10.912500381469727
1779999124955265500,6.132265625,17.287500381469727,30.525001525878906,10.893750190734863
1779999124975132400,6.15213232421875,17.325000762939453,30.525001525878906,10.893750190734863
1779999124995088000,6.172087890625,17.26875114440918,30.525001525878906,10.875
1779999125015343400,6.19234326171875,17.231250762939453,30.543750762939453,10.893750190734863
1779999125035505400,6.21250537109375,17.25,30.543750762939453,10.893750190734863
1779999125055329000,6.2323291015625,17.231250762939453,30.525001525878906,10.875
1779999125075206400,6.252206298828125,17.36250114440918,30.48750114440918,10.875
1779999125095142400,6.272142333984375,17.36250114440918,30.48750114440918,10.856250762939453
1779999125115287800,6.292287841796875,17.306251525878906,30.468751907348633,10.83750057220459
1779999125135459800,6.3124599609375,17.231250762939453,30.450000762939453,10.83750057220459
1779999125155304700,6.3323046875,17.231250762939453,30.450000762939453,10.83750057220459
1779999125175402000,6.352402099609375,17.231250762939453,30.450000762939453,10.83750057220459
1779999125195247000,6.3722470703125,17.193750381469727,30.431251525878906,10.818750381469727
1779999125215619800,6.392619873046875,17.15625,30.412500381469727,10.78125
1779999125235365000,6.412365234375,17.137500762939453,30.39375114440918,10.762500762939453
1779999125255676000,6.432676025390625,17.212501525878906,30.39375114440918,10.78125
1779999125275384800,6.452384765625,17.043750762939453,30.375001907348633,10.800000190734863
1779999125295202600,6.47220263671875,16.89375114440918,30.375001907348633,10.800000190734863
1779999125315116800,6.49211669921875,16.931251525878906,30.39375114440918,10.800000190734863
1779999125335093800,6.51209375,16.837501525878906,30.39375114440918,10.78125
1779999125355363800,6.53236376953125,16.856250762939453,30.39375114440918,10.78125
1779999125375283000,6.552282958984375,16.80000114440918,30.39375114440918,10.78125
1779999125395466000,6.572466064453125,16.650001525878906,30.39375114440918,10.78125
1779999125415561000,6.59256103515625,16.668750762939453,30.412500381469727,10.78125
1779999125435338800,6.6123388671875,16.80000114440918,30.431251525878906,10.78125
1779999125455203800,6.632203857421875,16.725000381469727,30.450000762939453,10.78125
1779999125475128600,6.652128662109375,16.668750762939453,30.431251525878906,10.78125
1779999125495391200,6.67239111328125,16.61250114440918,30.450000762939453,10.78125
1779999125515249400,6.69224951171875,16.59375,30.468751907348633,10.78125
1779999125535213300,6.71221337890625,16.59375,30.468751907348633,10.800000190734863
1779999125555270000,6.732269775390625,16.5,30.48750114440918,10.800000190734863
1779999125575184400,6.752184326171875,16.556251525878906,30.506250381469727,10.818750381469727
1779999125595141400,6.772141357421875,16.59375,30.48750114440918,10.83750057220459
1779999125615425800,6.79242578125,16.537500381469727,30.468751907348633,10.856250762939453
1779999125635277300,6.81227734375,16.61250114440918,30.48750114440918,10.875
1779999125655650300,6.832650390625,16.631250381469727,30.468751907348633,10.875
1779999125675841800,6.852841796875,16.575000762939453,30.506250381469727,10.875
1779999125695459000,6.872458984375,16.462501525878906,30.525001525878906,10.875
1779999125715226400,6.892226318359375,16.443750381469727,30.525001525878906,10.875
1779999125735116300,6.9121162109375,16.33125114440918,30.506250381469727,10.875
1779999125755133000,6.9321328125,16.40625,30.506250381469727,10.875
1779999125775113200,6.95211328125,16.42500114440918,30.468751907348633,10.893750190734863
1779999125795108600,6.972108642578125,16.51875114440918,30.450000762939453,10.875
1779999125815207400,6.99220751953125,16.481250762939453,30.431251525878906,10.875
1779999125835176400,7.012176513671875,16.387500762939453,30.412500381469727,10.875
1779999125855150300,7.032150390625,16.40625,30.412500381469727,10.893750190734863
1779999125875353600,7.052353515625,16.481250762939453,30.412500381469727,10.893750190734863
1779999125895247000,7.0722470703125,16.51875114440918,30.412500381469727,10.875
1779999125915445200,7.0924453125,16.481250762939453,30.39375114440918,10.856250762939453
1779999125935299300,7.11229931640625,16.443750381469727,30.375001907348633,10.856250762939453
1779999125955503900,7.13250390625,16.462501525878906,30.375001907348633,10.875
1779999125975308000,7.15230810546875,16.575000762939453,30.356250762939453,10.893750190734863
1779999125995328000,7.172327880859375,16.70625114440918,30.337501525878906,10.875
1779999126015473700,7.1924736328125,16.6875,30.356250762939453,10.893750190734863
1779999126035295000,7.212294921875,16.80000114440918,30.356250762939453,10.893750190734863
1779999126055455000,7.232455078125,16.912500381469727,30.375001907348633,10.893750190734863
1779999126075280400,7.2522802734375,16.875,30.39375114440918,10.893750190734863
1779999126095176400,7.272176513671875,16.6875,30.412500381469727,10.875
1779999126115406000,7.292406005859375,16.762500762939453,30.450000762939453,10.893750190734863
1779999126135273500,7.3122734375,16.875,30.450000762939453,10.893750190734863
1779999126155457300,7.332457275390625,16.856250762939453,30.450000762939453,10.893750190734863
1779999126175496000,7.352495849609375,16.78125,30.468751907348633,10.856250762939453
1779999126195293700,7.372293701171875,16.96875,30.450000762939453,10.83750057220459
1779999126215372500,7.39237255859375,17.118751525878906,30.450000762939453,10.83750057220459
1779999126235217400,7.412217529296875,17.15625,30.431251525878906,10.818750381469727
1779999126255377000,7.432376953125,17.193750381469727,30.431251525878906,10.818750381469727
1779999126275424300,7.45242431640625,17.006250381469727,30.450000762939453,10.818750381469727
1779999126295446300,7.4724462890625,16.950000762939453,30.450000762939453,10.83750057220459
1779999126315452000,7.492451904296875,16.912500381469727,30.450000762939453,10.818750381469727
1779999126335251500,7.51225146484375,16.912500381469727,30.431251525878906,10.800000190734863
1779999126355146000,7.53214599609375,16.818750381469727,30.431251525878906,10.800000190734863
1779999126375300900,7.55230078125,16.762500762939453,30.450000762939453,10.800000190734863
1779999126395196200,7.572196044921875,16.80000114440918,30.412500381469727,10.800000190734863
1779999126415144000,7.59214404296875,16.837501525878906,30.39375114440918,10.818750381469727
1779999126435128600,7.612128662109375,16.743751525878906,30.375001907348633,10.800000190734863
1779999126455123700,7.632123779296875,16.78125,30.39375114440918,10.800000190734863
1779999126475119900,7.652119873046875,16.762500762939453,30.412500381469727,10.800000190734863
1779999126495134700,7.672134765625,16.631250381469727,30.431251525878906,10.818750381469727
1779999126515494100,7.692494140625,16.481250762939453,30.431251525878906,10.818750381469727
1779999126535332600,7.71233251953125,16.462501525878906,30.450000762939453,10.83750057220459
1779999126555238700,7.73223876953125,16.481250762939453,30.450000762939453,10.856250762939453
1779999126575412700,7.752412841796875,16.631250381469727,30.450000762939453,10.83750057220459
1779999126595256300,7.77225634765625,16.70625114440918,30.450000762939453,10.83750057220459
1779999126615433200,7.79243310546875,16.743751525878906,30.431251525878906,10.818750381469727
1779999126635270400,7.8122705078125,16.70625114440918,30.431251525878906,10.83750057220459
1779999126655185000,7.832184814453125,16.762500762939453,30.431251525878906,10.856250762939453
1779999126675125500,7.85212548828125,16.912500381469727,30.412500381469727,10.875
1779999126695337000,7.8723369140625,17.025001525878906,30.450000762939453,10.875
1779999126715500800,7.892500732421875,16.98750114440918,30.431251525878906,10.893750190734863
1779999126735317200,7.912317138671875,17.025001525878906,30.450000762939453,10.875
1779999126755574300,7.93257421875,17.0625,30.450000762939453,10.856250762939453
1779999126775330800,7.952330810546875,17.26875114440918,30.412500381469727,10.875
1779999126795191600,7.972191650390625,17.36250114440918,30.412500381469727,10.875
1779999126815669200,7.992669189453125,17.381250381469727,30.431251525878906,10.893750190734863
1779999126835395300,8.012395263671875,17.381250381469727,30.431251525878906,10.893750190734863
1779999126855217000,8.032216796875,17.36250114440918,30.412500381469727,10.893750190734863
1779999126875330300,8.052330322265625,17.325000762939453,30.431251525878906,10.912500381469727
1779999126895691300,8.072691162109376,17.325000762939453,30.431251525878906,10.893750190734863
1779999126915398000,8.09239794921875,17.36250114440918,30.450000762939453,10.893750190734863
1779999126935470600,8.112470703125,17.26875114440918,30.450000762939453,10.893750190734863
1779999126955458800,8.132458740234375,17.287500381469727,30.450000762939453,10.893750190734863
1779999126975733800,8.152733642578125,17.17500114440918,30.450000762939453,10.893750190734863
1779999126995874000,8.1728740234375,17.0625,30.450000762939453,10.875
1779999127015670300,8.192670166015626,16.950000762939453,30.450000762939453,10.875
1779999127035584300,8.212584228515626,17.118751525878906,30.431251525878906,10.875
1779999127055490800,8.23249072265625,17.25,30.431251525878906,10.893750190734863
1779999127075433000,8.252432861328124,17.100000381469727,30.431251525878906,10.875
1779999127095767800,8.272767822265624,16.96875,30.412500381469727,10.893750190734863
1779999127115867400,8.292867431640625,17.100000381469727,30.39375114440918,10.893750190734863
1779999127135663000,8.3126630859375,17.287500381469727,30.375001907348633,10.875
1779999127155316200,8.332316162109375,17.45625114440918,30.375001907348633,10.856250762939453
1779999127175137500,8.352137451171876,17.493751525878906,30.375001907348633,10.83750057220459
1779999127195086300,8.37208642578125,17.568750381469727,30.375001907348633,10.83750057220459
1779999127215347200,8.39234716796875,17.493751525878906,30.356250762939453,10.83750057220459
1779999127235473400,8.412473388671875,17.475000381469727,30.356250762939453,10.83750057220459
1779999127255755500,8.432755615234376,17.381250381469727,30.375001907348633,10.83750057220459
1779999127275584500,8.45258447265625,17.512500762939453,30.375001907348633,10.818750381469727
1779999127295768800,8.472768798828126,17.625,30.356250762939453,10.83750057220459
1779999127315866600,8.49286669921875,17.681251525878906,30.375001907348633,10.83750057220459
1779999127335441700,8.512441650390626,17.45625114440918,30.39375114440918,10.83750057220459
1779999127355199700,8.53219970703125,17.325000762939453,30.375001907348633,10.83750057220459
1779999127375084500,8.55208447265625,17.26875114440918,30.375001907348633,10.83750057220459
1779999127395057400,8.572057373046874,17.231250762939453,30.375001907348633,10.83750057220459
1779999127415071000,8.592071044921875,17.006250381469727,30.39375114440918,10.818750381469727
1779999127435100700,8.6121005859375,16.89375114440918,30.39375114440918,10.83750057220459
1779999127455120000,8.632119873046875,16.80000114440918,30.412500381469727,10.83750057220459
1779999127475135200,8.65213525390625,16.762500762939453,30.412500381469727,10.83750057220459
1779999127495675600,8.672675537109376,16.725000381469727,30.39375114440918,10.856250762939453
1779999127515916500,8.69291650390625,16.70625114440918,30.39375114440918,10.856250762939453
1779999127535520500,8.7125205078125,16.631250381469727,30.39375114440918,10.875
1779999127555280000,8.73227978515625,16.650001525878906,30.375001907348633,10.875
1779999127575643000,8.752642822265624,16.575000762939453,30.375001907348633,10.856250762939453
1779999127595661600,8.77266162109375,16.575000762939453,30.39375114440918,10.83750057220459
1779999127615561500,8.7925615234375,16.631250381469727,30.39375114440918,10.83750057220459
1779999127635541500,8.81254150390625,16.631250381469727,30.39375114440918,10.856250762939453
1779999127655430700,8.8324306640625,16.537500381469727,30.412500381469727,10.856250762939453
1779999127675219700,8.8522197265625,16.631250381469727,30.431251525878906,10.875
1779999127695118800,8.872118896484375,16.631250381469727,30.431251525878906,10.856250762939453
1779999127715282400,8.892282470703124,16.80000114440918,30.431251525878906,10.875
1779999127735184400,8.912184326171875,16.80000114440918,30.431251525878906,10.856250762939453
1779999127755238400,8.93223828125,16.78125,30.39375114440918,10.83750057220459
1779999127775346200,8.95234619140625,16.78125,30.412500381469727,10.83750057220459
1779999127795221200,8.97222119140625,16.668750762939453,30.431251525878906,10.83750057220459
1779999127815153000,8.99215283203125,16.575000762939453,30.431251525878906,10.818750381469727
1779999127835127600,9.01212744140625,16.61250114440918,30.412500381469727,10.818750381469727
1779999127855116500,9.032116455078125,16.59375,30.412500381469727,10.800000190734863
1779999127875119600,9.05211962890625,16.537500381469727,30.39375114440918,10.800000190734863
1779999127895428000,9.072427978515625,16.631250381469727,30.39375114440918,10.800000190734863
1779999127915563500,9.0925634765625,16.856250762939453,30.375001907348633,10.83750057220459
1779999127935348000,9.112347900390626,16.875,30.375001907348633,10.83750057220459
1779999127955490800,9.13249072265625,16.931251525878906,30.375001907348633,10.83750057220459
1779999127975302100,9.15230224609375,16.818750381469727,30.375001907348633,10.818750381469727
1779999127995192000,9.172192138671875,16.96875,30.39375114440918,10.818750381469727
1779999128015145500,9.1921455078125,16.98750114440918,30.375001907348633,10.800000190734863
1779999128035120000,9.2121201171875,17.137500762939453,30.39375114440918,10.818750381469727
1779999128055519200,9.232519287109374,17.043750762939453,30.39375114440918,10.818750381469727
1779999128075346200,9.25234619140625,16.89375114440918,30.375001907348633,10.818750381469727
1779999128095429600,9.2724296875,16.818750381469727,30.39375114440918,10.818750381469727
1779999128115263500,9.292263427734374,16.818750381469727,30.39375114440918,10.818750381469727
1779999128135161300,9.312161376953124,16.98750114440918,30.39375114440918,10.800000190734863
1779999128155127600,9.33212744140625,17.025001525878906,30.39375114440918,10.78125
1779999128175115300,9.352115234375,17.043750762939453,30.39375114440918,10.78125
1779999128195119600,9.37211962890625,16.950000762939453,30.412500381469727,10.78125
1779999128215133200,9.39213330078125,16.80000114440918,30.412500381469727,10.762500762939453
1779999128235403300,9.4124033203125,16.89375114440918,30.375001907348633,10.706250190734863
1779999128255283000,9.432282958984375,17.043750762939453,30.356250762939453,10.6875
1779999128275446300,9.4524462890625,17.08125114440918,30.337501525878906,10.6875
1779999128295278800,9.47227880859375,17.043750762939453,30.318750381469727,10.668750762939453
1779999128315178500,9.492178466796876,17.043750762939453,30.337501525878906,10.668750762939453
1779999128335133700,9.5121337890625,16.950000762939453,30.337501525878906,10.6875
1779999128355206700,9.53220654296875,17.08125114440918,30.356250762939453,10.706250190734863
1779999128375160300,9.552160400390624,17.26875114440918,30.375001907348633,10.725000381469727
1779999128395141400,9.572141357421875,17.512500762939453,30.356250762939453,10.725000381469727
1779999128415220500,9.592220458984375,17.83125114440918,30.375001907348633,10.725000381469727
1779999128435170800,9.6121708984375,17.90625,30.375001907348633,10.725000381469727
1779999128455350800,9.632350830078124,17.8125,30.39375114440918,10.725000381469727
1779999128475392300,9.652392333984375,17.868751525878906,30.412500381469727,10.762500762939453
1779999128495250700,9.672250732421874,17.83125114440918,30.412500381469727,10.78125
1779999128515426800,9.6924267578125,17.8125,30.39375114440918,10.78125
1779999128535279900,9.71227978515625,17.793750762939453,30.412500381469727,10.800000190734863
1779999128555459800,9.7324599609375,17.71875,30.431251525878906,10.818750381469727
1779999128575286800,9.752286865234375,17.73750114440918,30.431251525878906,10.818750381469727
1779999128595391000,9.772390869140626,17.681251525878906,30.450000762939453,10.83750057220459
1779999128615492000,9.7924921875,17.55000114440918,30.431251525878906,10.856250762939453
1779999128635299000,9.812299072265626,17.45625114440918,30.431251525878906,10.83750057220459
1779999128655469600,9.832469482421875,17.418750762939453,30.431251525878906,10.818750381469727
1779999128675290600,9.85229052734375,17.475000381469727,30.412500381469727,10.818750381469727
1779999128695184400,9.872184326171874,17.400001525878906,30.431251525878906,10.800000190734863
1779999128715434800,9.892434814453125,17.212501525878906,30.412500381469727,10.800000190734863
1779999128735283200,9.912283203125,17.17500114440918,30.431251525878906,10.800000190734863
1779999128755290600,9.93229052734375,17.34375,30.39375114440918,10.800000190734863
1779999128775459800,9.9524599609375,17.34375,30.412500381469727,10.78125
1779999128795438800,9.97243896484375,17.26875114440918,30.412500381469727,10.78125
1779999128815259600,9.992259765625,17.36250114440918,30.431251525878906,10.78125
1779999128835163100,10.0121630859375,17.36250114440918,30.431251525878906,10.78125
1779999128855317800,10.03231787109375,17.381250381469727,30.450000762939453,10.78125
1779999128875406800,10.05240673828125,17.306251525878906,30.468751907348633,10.78125
1779999128895452000,10.072451904296875,17.418750762939453,30.468751907348633,10.800000190734863
1779999128915457800,10.092457763671876,17.493751525878906,30.468751907348633,10.78125
1779999128935261400,10.112261474609374,17.55000114440918,30.468751907348633,10.800000190734863
1779999128955157800,10.13215771484375,17.587501525878906,30.468751907348633,10.800000190734863
1779999128975109000,10.152109130859374,17.568750381469727,30.468751907348633,10.818750381469727
1779999128995104300,10.172104248046875,17.625,30.450000762939453,10.818750381469727
1779999129015310600,10.192310546875,17.625,30.450000762939453,10.818750381469727
1779999129035221500,10.212221435546875,17.568750381469727,30.450000762939453,10.83750057220459
1779999129055189200,10.232189208984375,17.568750381469727,30.450000762939453,10.83750057220459
1779999129075350500,10.2523505859375,17.381250381469727,30.450000762939453,10.856250762939453
1779999129095233800,10.27223388671875,17.400001525878906,30.450000762939453,10.83750057220459
1779999129115215000,10.292215087890625,17.34375,30.431251525878906,10.856250762939453
1779999129135153400,10.3121533203125,17.193750381469727,30.431251525878906,10.83750057220459
1779999129155401500,10.3324013671875,17.15625,30.412500381469727,10.818750381469727
1779999129175454200,10.3524541015625,17.17500114440918,30.431251525878906,10.818750381469727
1779999129195285000,10.372284912109375,17.100000381469727,30.412500381469727,10.818750381469727
1779999129215176700,10.3921767578125,17.08125114440918,30.39375114440918,10.78125
1779999129235143700,10.412143798828126,17.118751525878906,30.39375114440918,10.78125
1779999129255326700,10.43232666015625,17.08125114440918,30.39375114440918,10.78125
1779999129275429400,10.452429443359375,16.950000762939453,30.39375114440918,10.78125
1779999129295436300,10.472436279296875,16.875,30.39375114440918,10.762500762939453
1779999129315528700,10.49252880859375,16.762500762939453,30.39375114440918,10.762500762939453
1779999129335318000,10.512318115234375,16.6875,30.39375114440918,10.762500762939453
1779999129355616500,10.532616455078125,16.481250762939453,30.375001907348633,10.78125
1779999129375353600,10.552353515625,16.631250381469727,30.375001907348633,10.800000190734863
1779999129395199000,10.572198974609375,16.837501525878906,30.356250762939453,10.800000190734863
1779999129415402500,10.592402587890625,16.912500381469727,30.356250762939453,10.78125
1779999129435270000,10.612269775390626,17.043750762939453,30.356250762939453,10.800000190734863
1779999129455175700,10.63217578125,16.98750114440918,30.356250762939453,10.818750381469727
1779999129475133200,10.65213330078125,16.96875,30.356250762939453,10.818750381469727
1779999129495197000,10.672197021484376,16.912500381469727,30.375001907348633,10.818750381469727
1779999129515157800,10.69215771484375,16.856250762939453,30.412500381469727,10.856250762939453
1779999129535403300,10.7124033203125,16.837501525878906,30.39375114440918,10.856250762939453
1779999129555517000,10.732516845703126,16.818750381469727,30.39375114440918,10.83750057220459
1779999129575313700,10.752313720703125,16.837501525878906,30.39375114440918,10.83750057220459
1779999129595657200,10.7726572265625,16.80000114440918,30.412500381469727,10.856250762939453
1779999129615653600,10.792653564453126,16.89375114440918,30.431251525878906,10.83750057220459
1779999129635347000,10.812346923828125,16.931251525878906,30.412500381469727,10.83750057220459
1779999129655173400,10.83217333984375,16.950000762939453,30.450000762939453,10.818750381469727
1779999129675406600,10.852406494140626,17.006250381469727,30.431251525878906,10.800000190734863
1779999129695229400,10.8722294921875,16.856250762939453,30.431251525878906,10.78125
1779999129715138000,10.892137939453125,16.725000381469727,30.450000762939453,10.818750381469727
1779999129735147300,10.912147216796875,16.743751525878906,30.450000762939453,10.818750381469727
1779999129755120400,10.932120361328124,16.725000381469727,30.468751907348633,10.818750381469727
1779999129775113500,10.952113525390626,16.70625114440918,30.468751907348633,10.83750057220459
1779999129795586800,10.9725869140625,16.70625114440918,30.450000762939453,10.818750381469727
1779999129815380000,10.9923798828125,16.78125,30.450000762939453,10.800000190734863
1779999129835505700,11.012505615234375,16.70625114440918,30.450000762939453,10.818750381469727
1779999129855568400,11.032568359375,16.743751525878906,30.431251525878906,10.83750057220459
1779999129875499800,11.052499755859374,16.818750381469727,30.431251525878906,10.818750381469727
1779999129895277300,11.07227734375,16.818750381469727,30.412500381469727,10.818750381469727
1779999129915421700,11.092421630859375,16.80000114440918,30.431251525878906,10.83750057220459
1779999129935260200,11.11226025390625,16.950000762939453,30.450000762939453,10.83750057220459
1779999129955170600,11.132170654296875,17.17500114440918,30.431251525878906,10.818750381469727
1779999129975125500,11.15212548828125,17.25,30.450000762939453,10.83750057220459
1779999129995319600,11.172319580078126,17.25,30.468751907348633,10.856250762939453
1779999130015446300,11.1924462890625,17.212501525878906,30.468751907348633,10.83750057220459
1779999130035274000,11.21227392578125,17.0625,30.468751907348633,10.818750381469727
1779999130055317000,11.23231689453125,16.98750114440918,30.468751907348633,10.818750381469727
1779999130075203600,11.25220361328125,17.043750762939453,30.468751907348633,10.800000190734863
1779999130095144200,11.272144287109375,17.137500762939453,30.468751907348633,10.800000190734863
1779999130115388200,11.29238818359375,17.193750381469727,30.468751907348633,10.800000190734863
1779999130135263700,11.312263671875,17.231250762939453,30.48750114440918,10.800000190734863
1779999130155447600,11.332447509765625,17.15625,30.506250381469727,10.800000190734863
1779999130175557000,11.35255712890625,17.08125114440918,30.506250381469727,10.800000190734863
1779999130195335700,11.372335693359375,17.15625,30.506250381469727,10.818750381469727
1779999130215198700,11.39219873046875,17.36250114440918,30.468751907348633,10.818750381469727
1779999130235396600,11.412396728515626,17.400001525878906,30.450000762939453,10.818750381469727
1779999130255386600,11.43238671875,17.381250381469727,30.450000762939453,10.83750057220459
1779999130275446500,11.452446533203124,17.325000762939453,30.450000762939453,10.83750057220459
1779999130295258600,11.472258544921875,17.193750381469727,30.431251525878906,10.83750057220459
1779999130315371000,11.49237109375,17.100000381469727,30.412500381469727,10.856250762939453
1779999130335226600,11.5122265625,17.100000381469727,30.412500381469727,10.875
1779999130355149800,11.53214990234375,17.025001525878906,30.412500381469727,10.893750190734863
1779999130375315000,11.55231494140625,16.96875,30.412500381469727,10.93125057220459
1779999130395746000,11.57274609375,16.931251525878906,30.412500381469727,10.950000762939453
1779999130415896300,11.592896240234374,16.950000762939453,30.431251525878906,10.93125057220459
1779999130435491300,11.6124912109375,16.96875,30.39375114440918,10.93125057220459
1779999130455441200,11.632441162109375,16.96875,30.39375114440918,10.93125057220459
1779999130475217200,11.652217041015625,16.98750114440918,30.412500381469727,10.912500381469727
1779999130495468300,11.67246826171875,16.950000762939453,30.412500381469727,10.912500381469727
1779999130515276000,11.692276123046875,16.875,30.412500381469727,10.893750190734863
1779999130535166700,11.712166748046876,16.650001525878906,30.431251525878906,10.893750190734863
1779999130555393800,11.732393798828125,16.556251525878906,30.450000762939453,10.875
1779999130575268600,11.7522685546875,16.462501525878906,30.431251525878906,10.875
1779999130595180000,11.772179931640625,16.668750762939453,30.431251525878906,10.856250762939453
1779999130615139600,11.7921396484375,16.837501525878906,30.431251525878906,10.856250762939453
1779999130635162600,11.81216259765625,16.912500381469727,30.431251525878906,10.83750057220459
1779999130655403300,11.8324033203125,17.193750381469727,30.412500381469727,10.818750381469727
1779999130675472600,11.85247265625,17.34375,30.412500381469727,10.78125
1779999130695490600,11.872490478515624,17.325000762939453,30.39375114440918,10.78125
1779999130715745000,11.8927451171875,17.118751525878906,30.39375114440918,10.800000190734863
1779999130735412200,11.912412109375,17.118751525878906,30.431251525878906,10.800000190734863
1779999130755353600,11.932353515625,17.231250762939453,30.450000762939453,10.818750381469727
1779999130775182600,11.9521826171875,17.34375,30.431251525878906,10.83750057220459
1779999130795370500,11.97237060546875,17.34375,30.431251525878906,10.83750057220459
1779999130815645000,11.99264501953125,17.25,30.431251525878906,10.83750057220459
1779999130835379500,12.01237939453125,17.306251525878906,30.431251525878906,10.83750057220459
1779999130855209000,12.032208984375,17.287500381469727,30.431251525878906,10.856250762939453
1779999130875396400,12.052396240234375,17.325000762939453,30.450000762939453,10.856250762939453
1779999130895235800,12.07223583984375,17.212501525878906,30.450000762939453,10.856250762939453
1779999130915151000,12.092151123046875,17.193750381469727,30.431251525878906,10.83750057220459
1779999130935364900,12.11236474609375,17.287500381469727,30.431251525878906,10.856250762939453
1779999130955257300,12.13225732421875,17.26875114440918,30.431251525878906,10.893750190734863
1779999130975174100,12.152174072265625,17.306251525878906,30.431251525878906,10.893750190734863
1779999130995407600,12.17240771484375,17.287500381469727,30.450000762939453,10.893750190734863
1779999131015443700,12.192443603515626,17.193750381469727,30.431251525878906,10.875
1779999131035539200,12.212539306640625,17.100000381469727,30.412500381469727,10.856250762939453
1779999131055348200,12.23234814453125,17.006250381469727,30.412500381469727,10.856250762939453
1779999131075405300,12.2524052734375,16.96875,30.412500381469727,10.856250762939453
1779999131095232000,12.27223193359375,16.837501525878906,30.412500381469727,10.856250762939453
1779999131115144700,12.292144775390625,16.912500381469727,30.431251525878906,10.875
1779999131135244000,12.312244140625,17.006250381469727,30.450000762939453,10.875
1779999131155441200,12.332441162109374,16.950000762939453,30.431251525878906,10.856250762939453
1779999131175292700,12.352292724609375,16.950000762939453,30.412500381469727,10.856250762939453
1779999131195518500,12.3725185546875,17.043750762939453,30.431251525878906,10.856250762939453
1779999131215596300,12.39259619140625,16.931251525878906,30.431251525878906,10.856250762939453
1779999131235353300,12.412353271484376,16.743751525878906,30.431251525878906,10.856250762939453
1779999131255559200,12.43255908203125,16.6875,30.450000762939453,10.83750057220459
1779999131275360000,12.452360107421875,16.556251525878906,30.450000762939453,10.83750057220459
1779999131295468000,12.472468017578125,16.5,30.450000762939453,10.818750381469727
1779999131315539700,12.492539794921875,16.6875,30.450000762939453,10.83750057220459
1779999131335317800,12.51231787109375,16.762500762939453,30.468751907348633,10.818750381469727
1779999131355188200,12.532188232421875,16.80000114440918,30.48750114440918,10.818750381469727
1779999131375120400,12.552120361328125,16.668750762939453,30.468751907348633,10.800000190734863
1779999131395297500,12.572297607421875,16.6875,30.468751907348633,10.800000190734863
1779999131415198500,12.592198486328124,16.51875114440918,30.468751907348633,10.78125
1779999131435408400,12.612408447265626,16.40625,30.450000762939453,10.78125
1779999131455533600,12.632533447265626,16.443750381469727,30.468751907348633,10.78125
1779999131475314700,12.652314697265625,16.368751525878906,30.468751907348633,10.800000190734863
1779999131495194600,12.672194580078125,16.275001525878906,30.450000762939453,10.78125
1779999131515461000,12.692461181640626,16.275001525878906,30.450000762939453,10.818750381469727
1779999131535282400,12.712282470703125,16.3125,30.450000762939453,10.818750381469727
1779999131555189000,12.73218896484375,16.350000381469727,30.450000762939453,10.83750057220459
1779999131575129900,12.7521298828125,16.33125114440918,30.468751907348633,10.818750381469727
1779999131595374800,12.772374755859374,16.33125114440918,30.468751907348633,10.818750381469727
1779999131615263700,12.792263671875,16.256250381469727,30.450000762939453,10.818750381469727
1779999131635183000,12.81218310546875,16.3125,30.450000762939453,10.83750057220459
1779999131655416600,12.83241650390625,16.275001525878906,30.450000762939453,10.83750057220459
1779999131675485000,12.85248486328125,16.3125,30.450000762939453,10.856250762939453
1779999131695298000,12.872298095703124,16.33125114440918,30.450000762939453,10.856250762939453
1779999131715260400,12.892260498046875,16.368751525878906,30.450000762939453,10.856250762939453
1779999131735165700,12.912165771484375,16.40625,30.450000762939453,10.856250762939453
1779999131755123700,12.932123779296875,16.275001525878906,30.450000762939453,10.83750057220459
1779999131775320000,12.952320068359375,16.443750381469727,30.468751907348633,10.83750057220459
1779999131795421000,12.9724208984375,16.443750381469727,30.450000762939453,10.818750381469727
1779999131815526000,12.99252587890625,16.650001525878906,30.48750114440918,10.818750381469727
1779999131835320300,13.0123203125,16.575000762939453,30.468751907348633,10.818750381469727
1779999131855189200,13.032189208984375,16.631250381469727,30.468751907348633,10.818750381469727
1779999131875125500,13.05212548828125,16.725000381469727,30.48750114440918,10.83750057220459
1779999131895518500,13.0725185546875,16.762500762939453,30.48750114440918,10.818750381469727
1779999131915323000,13.092322998046875,16.912500381469727,30.48750114440918,10.818750381469727
1779999131935454200,13.1124541015625,16.80000114440918,30.468751907348633,10.800000190734863
1779999131955554600,13.132554443359375,16.818750381469727,30.468751907348633,10.800000190734863
1779999131975326000,13.152325927734376,16.912500381469727,30.48750114440918,10.818750381469727
1779999131995451100,13.172451171875,16.912500381469727,30.468751907348633,10.800000190734863
1779999132015534800,13.192534912109375,17.043750762939453,30.468751907348633,10.818750381469727
1779999132035308000,13.21230810546875,17.100000381469727,30.468751907348633,10.83750057220459
1779999132055449600,13.23244970703125,17.25,30.468751907348633,10.856250762939453
1779999132075836700,13.252836669921875,17.212501525878906,30.468751907348633,10.856250762939453
1779999132095657500,13.272657470703125,17.17500114440918,30.468751907348633,10.856250762939453
1779999132115341000,13.292341064453124,17.212501525878906,30.468751907348633,10.83750057220459
1779999132135467500,13.312467529296875,17.231250762939453,30.468751907348633,10.818750381469727
1779999132155257000,13.332257080078126,17.231250762939453,30.450000762939453,10.800000190734863
1779999132175135700,13.3521357421875,17.25,30.431251525878906,10.800000190734863
1779999132195292700,13.372292724609375,17.26875114440918,30.431251525878906,10.800000190734863
1779999132215389200,13.39238916015625,17.17500114440918,30.431251525878906,10.818750381469727
1779999132235237400,13.4122373046875,17.25,30.450000762939453,10.818750381469727
1779999132255155200,13.4321552734375,17.212501525878906,30.431251525878906,10.800000190734863
1779999132275158300,13.452158203125,17.25,30.412500381469727,10.800000190734863
1779999132295140400,13.472140380859376,17.306251525878906,30.412500381469727,10.818750381469727
1779999132315129900,13.4921298828125,17.118751525878906,30.431251525878906,10.800000190734863
1779999132335132700,13.512132568359375,17.08125114440918,30.450000762939453,10.800000190734863
1779999132355404000,13.532404052734375,17.193750381469727,30.468751907348633,10.800000190734863
1779999132375287300,13.552287353515625,17.100000381469727,30.450000762939453,10.78125
1779999132395208000,13.5722080078125,17.025001525878906,30.468751907348633,10.78125
1779999132415158300,13.592158203125,16.875,30.468751907348633,10.78125
1779999132435143400,13.612143310546875,17.043750762939453,30.450000762939453,10.78125
1779999132455133700,13.6321337890625,16.950000762939453,30.450000762939453,10.78125
1779999132475269400,13.652269287109375,16.78125,30.450000762939453,10.800000190734863
1779999132495474200,13.67247412109375,16.743751525878906,30.431251525878906,10.800000190734863
1779999132515667000,13.6926669921875,16.837501525878906,30.450000762939453,10.800000190734863
1779999132535397000,13.712397216796875,16.912500381469727,30.431251525878906,10.818750381469727
1779999132555499000,13.7324990234375,16.912500381469727,30.431251525878906,10.818750381469727
1779999132575493000,13.7524931640625,16.70625114440918,30.431251525878906,10.800000190734863
1779999132595502800,13.7725029296875,16.6875,30.450000762939453,10.800000190734863
1779999132615817000,13.79281689453125,16.837501525878906,30.431251525878906,10.78125
1779999132635432200,13.81243212890625,16.80000114440918,30.412500381469727,10.78125
1779999132655401700,13.832401611328125,16.837501525878906,30.39375114440918,10.78125
1779999132675197700,13.85219775390625,17.025001525878906,30.412500381469727,10.800000190734863
1779999132695114800,13.87211474609375,17.231250762939453,30.412500381469727,10.818750381469727
1779999132715358200,13.892358154296875,17.17500114440918,30.39375114440918,10.818750381469727
1779999132735506400,13.91250634765625,17.212501525878906,30.39375114440918,10.83750057220459
1779999132755422700,13.932422607421875,17.36250114440918,30.39375114440918,10.83750057220459
1779999132775460400,13.95246044921875,17.381250381469727,30.39375114440918,10.818750381469727
1779999132795523800,13.97252392578125,17.325000762939453,30.39375114440918,10.818750381469727
1779999132815300000,13.992300048828126,17.306251525878906,30.39375114440918,10.800000190734863
1779999132835439000,14.012439208984375,17.15625,30.412500381469727,10.818750381469727
1779999132855421400,14.03242138671875,17.212501525878906,30.431251525878906,10.818750381469727
1779999132875240400,14.052240478515625,17.381250381469727,30.412500381469727,10.83750057220459
1779999132895411700,14.07241162109375,17.287500381469727,30.39375114440918,10.83750057220459
1779999132915466200,14.09246630859375,17.231250762939453,30.39375114440918,10.856250762939453
1779999132935280000,14.112280029296874,17.287500381469727,30.39375114440918,10.83750057220459
1779999132955439600,14.132439697265625,17.306251525878906,30.39375114440918,10.856250762939453
1779999132975464700,14.152464599609376,17.306251525878906,30.39375114440918,10.83750057220459
1779999132995274200,14.172274169921875,17.306251525878906,30.39375114440918,10.856250762939453
1779999133015424500,14.192424560546876,17.53125,30.431251525878906,10.83750057220459
1779999133035481300,14.2124814453125,17.475000381469727,30.450000762939453,10.818750381469727
1779999133055295000,14.232294921875,17.493751525878906,30.431251525878906,10.818750381469727
1779999133075177000,14.252177001953125,17.53125,30.412500381469727,10.83750057220459
1779999133095127600,14.27212744140625,17.64375114440918,30.412500381469727,10.83750057220459
1779999133115131100,14.292131103515626,17.625,30.412500381469727,10.856250762939453
1779999133135118600,14.31211865234375,17.71875,30.412500381469727,10.818750381469727
1779999133155439900,14.33243994140625,17.775001525878906,30.412500381469727,10.818750381469727
1779999133175364600,14.352364501953126,17.625,30.431251525878906,10.818750381469727
1779999133195245300,14.372245361328124,17.64375114440918,30.450000762939453,10.818750381469727
1779999133215177500,14.392177490234374,17.625,30.431251525878906,10.818750381469727
1779999133235138000,14.412137939453125,17.55000114440918,30.450000762939453,10.818750381469727
1779999133255125800,14.432125732421875,17.418750762939453,30.468751907348633,10.818750381469727
1779999133275332600,14.45233251953125,17.381250381469727,30.468751907348633,10.800000190734863
1779999133295278000,14.472278076171875,17.26875114440918,30.450000762939453,10.800000190734863
1779999133315663400,14.492663330078125,17.137500762939453,30.431251525878906,10.800000190734863
1779999133335403800,14.51240380859375,17.212501525878906,30.450000762939453,10.800000190734863
1779999133355321600,14.532321533203126,17.043750762939453,30.468751907348633,10.800000190734863
1779999133375190300,14.552190185546875,16.950000762939453,30.48750114440918,10.800000190734863
1779999133395332400,14.572332275390625,16.818750381469727,30.506250381469727,10.78125
1779999133415688000,14.59268798828125,16.78125,30.506250381469727,10.74375057220459
1779999133435396000,14.61239599609375,16.875,30.48750114440918,10.74375057220459
1779999133455421400,14.63242138671875,16.912500381469727,30.48750114440918,10.725000381469727
1779999133475257600,14.652257568359374,16.89375114440918,30.48750114440918,10.725000381469727
1779999133495196400,14.672196533203126,16.931251525878906,30.468751907348633,10.725000381469727
1779999133515328800,14.692328857421876,16.875,30.48750114440918,10.706250190734863
1779999133535205600,14.71220556640625,16.875,30.48750114440918,10.706250190734863
1779999133555298600,14.732298583984376,16.837501525878906,30.468751907348633,10.706250190734863
1779999133575193000,14.752193115234375,16.743751525878906,30.450000762939453,10.725000381469727
1779999133595605500,14.77260546875,16.78125,30.468751907348633,10.725000381469727
1779999133615592200,14.79259228515625,16.725000381469727,30.468751907348633,10.74375057220459
1779999133635325700,14.81232568359375,16.59375,30.450000762939453,10.762500762939453
1779999133655185000,14.832184814453125,16.575000762939453,30.450000762939453,10.762500762939453
1779999133675295000,14.852294921875,16.631250381469727,30.431251525878906,10.78125
1779999133695176400,14.872176513671874,16.80000114440918,30.431251525878906,10.78125
1779999133715121200,14.89212109375,16.856250762939453,30.412500381469727,10.800000190734863
1779999133735224800,14.912224853515625,16.743751525878906,30.412500381469727,10.818750381469727
1779999133755178500,14.932178466796875,16.556251525878906,30.39375114440918,10.83750057220459
1779999133775144400,14.95214453125,16.575000762939453,30.39375114440918,10.818750381469727
1779999133795616500,14.972616455078125,16.631250381469727,30.39375114440918,10.818750381469727
1779999133815654700,14.992654541015625,16.631250381469727,30.412500381469727,10.818750381469727
1779999133835389400,15.012389404296876,16.6875,30.412500381469727,10.818750381469727
1779999133855559000,15.032558837890624,16.725000381469727,30.412500381469727,10.818750381469727
1779999133875321300,15.0523212890625,16.818750381469727,30.39375114440918,10.800000190734863
1779999133895185400,15.072185302734376,16.668750762939453,30.39375114440918,10.800000190734863
1779999133915522000,15.09252197265625,16.6875,30.39375114440918,10.800000190734863
1779999133935321600,15.112321533203126,16.743751525878906,30.375001907348633,10.78125
1779999133955471600,15.1324716796875,16.856250762939453,30.39375114440918,10.800000190734863
1779999133975291100,15.152291015625,16.78125,30.39375114440918,10.78125
1779999133995189000,15.17218896484375,16.668750762939453,30.39375114440918,10.818750381469727
1779999134015131600,15.192131591796874,16.6875,30.431251525878906,10.83750057220459
1779999134035376600,15.212376708984374,16.70625114440918,30.431251525878906,10.83750057220459
1779999134055485400,15.2324853515625,16.762500762939453,30.431251525878906,10.83750057220459
1779999134075296000,15.2522958984375,16.78125,30.431251525878906,10.83750057220459
1779999134095648800,15.272648681640625,16.80000114440918,30.450000762939453,10.83750057220459
1779999134115862300,15.2928623046875,16.89375114440918,30.431251525878906,10.818750381469727
1779999134135726600,15.3127265625,16.89375114440918,30.431251525878906,10.83750057220459
1779999134155480600,15.33248046875,16.912500381469727,30.431251525878906,10.83750057220459
1779999134175432000,15.352431884765625,16.70625114440918,30.431251525878906,10.856250762939453
1779999134195211500,15.37221142578125,16.78125,30.450000762939453,10.875
1779999134215376000,15.3923759765625,16.89375114440918,30.431251525878906,10.893750190734863
1779999134235224000,15.41222412109375,16.80000114440918,30.468751907348633,10.893750190734863
1779999134255476700,15.432476806640626,16.650001525878906,30.450000762939453,10.875
1779999134275303700,15.4523037109375,16.743751525878906,30.431251525878906,10.856250762939453
1779999134295190000,15.47218994140625,16.743751525878906,30.468751907348633,10.818750381469727
1779999134315217200,15.492217041015625,16.762500762939453,30.468751907348633,10.83750057220459
1779999134335157500,15.512157470703125,16.78125,30.468751907348633,10.83750057220459
1779999134355397000,15.532397216796875,16.80000114440918,30.468751907348633,10.83750057220459
1779999134375508700,15.5525087890625,16.837501525878906,30.468751907348633,10.83750057220459
1779999134395311400,15.572311279296875,16.725000381469727,30.468751907348633,10.83750057220459
1779999134415184400,15.592184326171875,16.818750381469727,30.468751907348633,10.856250762939453
1779999134435342000,15.612342041015625,16.725000381469727,30.468751907348633,10.856250762939453
1779999134455218400,15.632218505859376,16.61250114440918,30.450000762939453,10.83750057220459
1779999134475144000,15.65214404296875,16.650001525878906,30.450000762939453,10.83750057220459
1779999134495500800,15.672500732421875,16.725000381469727,30.431251525878906,10.800000190734863
1779999134515556400,15.692556396484376,16.743751525878906,30.450000762939453,10.762500762939453
1779999134535336200,15.712336181640625,16.96875,30.450000762939453,10.762500762939453
1779999134555476500,15.7324765625,17.043750762939453,30.468751907348633,10.78125
1779999134575293200,15.752293212890624,16.931251525878906,30.468751907348633,10.78125
1779999134595441200,15.772441162109375,16.931251525878906,30.431251525878906,10.78125
1779999134615538200,15.7925380859375,16.875,30.412500381469727,10.78125
1779999134635316700,15.812316650390626,16.950000762939453,30.39375114440918,10.78125
1779999134655517200,15.83251708984375,17.006250381469727,30.39375114440918,10.78125
1779999134675533800,15.852533935546875,17.08125114440918,30.375001907348633,10.78125
1779999134695435500,15.872435546875,17.100000381469727,30.39375114440918,10.78125
1779999134715696400,15.8926962890625,17.0625,30.39375114440918,10.78125
1779999134735377700,15.912377685546875,17.118751525878906,30.39375114440918,10.800000190734863
1779999134755195000,15.93219482421875,17.137500762939453,30.412500381469727,10.800000190734863
1779999134775377200,15.952377197265625,17.08125114440918,30.431251525878906,10.800000190734863
1779999134795697700,15.97269775390625,17.08125114440918,30.431251525878906,10.818750381469727
1779999134815642600,15.992642578125,16.96875,30.450000762939453,10.83750057220459
1779999134835346700,16.0123466796875,16.89375114440918,30.450000762939453,10.818750381469727
1779999134855374000,16.0323740234375,16.950000762939453,30.450000762939453,10.856250762939453
1779999134875398700,16.052398681640625,17.08125114440918,30.450000762939453,10.875
1779999134895217200,16.072217041015627,17.100000381469727,30.450000762939453,10.875
1779999134915128600,16.092128662109374,17.100000381469727,30.450000762939453,10.856250762939453
1779999134935103200,16.112103271484376,17.08125114440918,30.468751907348633,10.83750057220459
1779999135016573200,16.1935732421875,17.025001525878906,30.468751907348633,10.856250762939453
1779999135106918700,16.283918701171874,17.17500114440918,30.450000762939453,10.893750190734863
1779999135283498000,16.460498046875,17.700000762939453,30.468751907348633,10.875
1779999135327614200,16.5046142578125,17.83125114440918,30.468751907348633,10.856250762939453
1779999135371703600,16.54870361328125,17.90625,30.450000762939453,10.856250762939453
1779999135415752400,16.59275244140625,17.850000381469727,30.450000762939453,10.875
1779999135459744800,16.636744873046876,17.71875,30.431251525878906,10.818750381469727
1779999135503660300,16.680660400390625,17.64375114440918,30.431251525878906,10.818750381469727
1779999135547474200,16.72447412109375,17.625,30.431251525878906,10.818750381469727
1779999135591157200,16.7681572265625,17.55000114440918,30.412500381469727,10.83750057220459
1779999135634675200,16.81167529296875,17.512500762939453,30.431251525878906,10.83750057220459
1779999135677990000,16.854989990234376,17.493751525878906,30.431251525878906,10.83750057220459
1779999135721055000,16.898054931640626,17.475000381469727,30.450000762939453,10.818750381469727
1779999135763820800,16.94082080078125,17.4375,30.468751907348633,10.818750381469727
1779999135806232800,16.98323291015625,17.493751525878906,30.450000762939453,10.818750381469727
1779999135848229400,17.0252294921875,17.400001525878906,30.431251525878906,10.818750381469727
1779999135889743000,17.0667431640625,17.36250114440918,30.431251525878906,10.818750381469727
1779999135930703000,17.107703125,17.34375,30.450000762939453,10.83750057220459
1779999135971031300,17.14803125,17.08125114440918,30.450000762939453,10.83750057220459
1779999136010649600,17.187649658203124,17.025001525878906,30.450000762939453,10.856250762939453
1779999136049475800,17.226475830078126,17.118751525878906,30.431251525878906,10.875
1779999136087419100,17.264419189453125,17.15625,30.431251525878906,10.875
1779999136124389600,17.3013896484375,17.212501525878906,30.431251525878906,10.856250762939453
1779999136160302300,17.33730224609375,17.306251525878906,30.431251525878906,10.83750057220459
1779999136195070200,17.3720703125,17.381250381469727,30.450000762939453,10.856250762939453
1779999136228606500,17.4056064453125,17.381250381469727,30.431251525878906,10.83750057220459
1779999136260830200,17.437830322265626,17.45625114440918,30.431251525878906,10.83750057220459
1779999136291670800,17.4686708984375,17.287500381469727,30.431251525878906,10.818750381469727
1779999136321046500,17.498046630859374,17.26875114440918,30.431251525878906,10.83750057220459
1779999136348901600,17.525901611328123,17.043750762939453,30.431251525878906,10.856250762939453
1779999136375184400,17.552184326171876,16.96875,30.431251525878906,10.83750057220459
1779999136399851300,17.576851318359374,16.837501525878906,30.431251525878906,10.83750057220459
1779999136422880500,17.599880615234376,16.6875,30.431251525878906,10.83750057220459
1779999136444240400,17.621240478515624,16.837501525878906,30.431251525878906,10.856250762939453
1779999136463933200,17.64093310546875,16.80000114440918,30.412500381469727,10.83750057220459
1779999136481967900,17.6589677734375,16.631250381469727,30.412500381469727,10.83750057220459
1779999136498379500,17.675379638671874,16.6875,30.412500381469727,10.83750057220459
1779999136513180700,17.6901806640625,16.668750762939453,30.431251525878906,10.83750057220459
1779999136526423300,17.70342333984375,16.6875,30.450000762939453,10.83750057220459
1779999136538170600,17.715170654296877,16.6875,30.431251525878906,10.83750057220459
1779999136548492500,17.725492431640625,16.650001525878906,30.468751907348633,10.856250762939453
1779999136565203200,17.742203125,16.78125,30.468751907348633,10.856250762939453
1779999136577253000,17.754253173828126,16.98750114440918,30.431251525878906,10.800000190734863
1779999136588296400,17.76529638671875,17.212501525878906,30.412500381469727,10.800000190734863
1779999136598695000,17.77569482421875,17.231250762939453,30.450000762939453,10.893750190734863
1779999136608509400,17.785509521484375,17.418750762939453,30.450000762939453,10.893750190734863
1779999136619197700,17.79619775390625,17.34375,30.431251525878906,10.856250762939453
1779999136633926700,17.8109267578125,17.418750762939453,30.450000762939453,10.875
1779999136646044400,17.82304443359375,17.45625114440918,30.468751907348633,10.93125057220459
1779999136660013000,17.837012939453125,17.100000381469727,30.468751907348633,10.912500381469727
1779999136675821000,17.852821044921875,17.08125114440918,30.468751907348633,10.912500381469727
1779999136693396500,17.870396484375,17.025001525878906,30.450000762939453,10.912500381469727
1779999136712723000,17.889722900390623,16.96875,30.450000762939453,10.93125057220459
1779999136723032800,17.90003271484375,16.931251525878906,30.431251525878906,10.950000762939453
1779999136733728000,17.91072802734375,16.96875,30.431251525878906,10.950000762939453
1779999136744838400,17.92183837890625,16.96875,30.450000762939453,10.950000762939453
1779999136756345900,17.933345947265625,16.912500381469727,30.450000762939453,10.950000762939453
1779999136768238000,17.945238037109377,17.006250381469727,30.431251525878906,10.93125057220459
1779999136780506000,17.957506103515627,16.950000762939453,30.431251525878906,10.893750190734863
1779999136793093000,17.970093017578126,16.743751525878906,30.431251525878906,10.856250762939453
1779999136806592500,17.983592529296875,16.762500762939453,30.431251525878906,10.856250762939453
1779999136825006000,18.002006103515626,16.856250762939453,30.468751907348633,10.875
1779999136848731000,18.02573095703125,16.98750114440918,30.468751907348633,10.856250762939453
1779999136872552000,18.049552001953124,16.931251525878906,30.468751907348633,10.875
1779999136895034400,18.072034423828125,16.96875,30.468751907348633,10.856250762939453
1779999136916085000,18.0930849609375,16.856250762939453,30.468751907348633,10.83750057220459
1779999136936171800,18.113171875,16.98750114440918,30.48750114440918,10.83750057220459
1779999136955950600,18.13295068359375,17.006250381469727,30.506250381469727,10.83750057220459
1779999136975859000,18.15285888671875,17.025001525878906,30.525001525878906,10.83750057220459
1779999136995515000,18.172514892578125,17.100000381469727,30.525001525878906,10.818750381469727
1779999137015745800,18.192745849609373,17.137500762939453,30.506250381469727,10.818750381469727
1779999137035393300,18.212393310546876,17.118751525878906,30.506250381469727,10.818750381469727
1779999137055200300,18.2322001953125,16.950000762939453,30.525001525878906,10.856250762939453
1779999137075306000,18.252305908203127,16.89375114440918,30.525001525878906,10.856250762939453
1779999137095464000,18.2724638671875,16.950000762939453,30.506250381469727,10.83750057220459
1779999137115283200,18.292283203125,17.006250381469727,30.48750114440918,10.856250762939453
1779999137135169300,18.312169189453126,17.0625,30.468751907348633,10.856250762939453
1779999137155392800,18.332392822265625,16.80000114440918,30.506250381469727,10.856250762939453
1779999137175287600,18.35228759765625,16.743751525878906,30.506250381469727,10.856250762939453
1779999137195186200,18.372186279296876,16.59375,30.506250381469727,10.856250762939453
1779999137215544600,18.392544677734374,16.725000381469727,30.525001525878906,10.875
1779999137235348500,18.412348388671877,16.762500762939453,30.525001525878906,10.893750190734863
1779999137255220500,18.432220458984375,16.725000381469727,30.525001525878906,10.893750190734863
1779999137275143200,18.45214306640625,16.70625114440918,30.506250381469727,10.912500381469727
1779999137295309600,18.4723095703125,16.650001525878906,30.543750762939453,10.93125057220459
1779999137315412200,18.492412109375,16.537500381469727,30.562501907348633,10.950000762939453
1779999137335302400,18.512302490234376,16.61250114440918,30.562501907348633,10.950000762939453
1779999137355348200,18.53234814453125,16.668750762939453,30.562501907348633,10.912500381469727
1779999137375214600,18.552214599609375,16.631250381469727,30.58125114440918,10.912500381469727
1779999137395384300,18.57238427734375,16.725000381469727,30.58125114440918,10.93125057220459
1779999137415529700,18.59252978515625,16.70625114440918,30.600000381469727,10.912500381469727
1779999137435315000,18.61231494140625,16.650001525878906,30.600000381469727,10.893750190734863
1779999137455182600,18.6321826171875,16.70625114440918,30.58125114440918,10.893750190734863
1779999137475324400,18.652324462890626,16.837501525878906,30.562501907348633,10.893750190734863
1779999137495209500,18.67220947265625,16.931251525878906,30.562501907348633,10.893750190734863
1779999137515143000,18.692142822265627,16.96875,30.562501907348633,10.875
1779999137535373000,18.712373046875,17.025001525878906,30.543750762939453,10.856250762939453
1779999137555262500,18.732262451171874,17.118751525878906,30.543750762939453,10.856250762939453
1779999137575184000,18.752183837890627,17.137500762939453,30.543750762939453,10.800000190734863
1779999137595407000,18.772406982421874,17.118751525878906,30.506250381469727,10.78125
1779999137615421000,18.7924208984375,17.25,30.506250381469727,10.74375057220459
1779999137635259000,18.8122587890625,17.137500762939453,30.48750114440918,10.74375057220459
1779999137655176400,18.832176513671875,17.100000381469727,30.450000762939453,10.725000381469727
1779999137675335000,18.8523349609375,17.15625,30.431251525878906,10.6875
1779999137695221200,18.87222119140625,17.17500114440918,30.431251525878906,10.668750762939453
1779999137715151000,18.892151123046876,17.231250762939453,30.431251525878906,10.65000057220459
1779999137735326700,18.91232666015625,17.15625,30.431251525878906,10.631250381469727
1779999137755724000,18.93272412109375,17.25,30.450000762939453,10.575000762939453
1779999137775431700,18.952431640625,17.212501525878906,30.468751907348633,10.55625057220459
1779999137795366400,18.972366455078124,17.36250114440918,30.431251525878906,10.518750190734863
1779999137815474200,18.99247412109375,17.381250381469727,30.39375114440918,10.481250762939453
1779999137835283000,19.012282958984375,17.381250381469727,30.39375114440918,10.443750381469727
1779999137855431200,19.03243115234375,17.418750762939453,30.39375114440918,10.425000190734863
1779999137875264000,19.052263916015626,17.587501525878906,30.39375114440918,10.40625
1779999137895169500,19.07216943359375,17.756250381469727,30.412500381469727,10.387500762939453
1779999137915417600,19.09241748046875,17.73750114440918,30.431251525878906,10.36875057220459
1779999137935265300,19.112265380859377,18,30.450000762939453,10.3125
1779999137955189500,19.132189453125,18.150001525878906,30.468751907348633,10.293750762939453
1779999137975358000,19.15235791015625,18.28125,30.468751907348633,10.27500057220459
1779999137995347500,19.172347412109374,18.337501525878906,30.468751907348633,10.237500190734863
1779999138015481900,19.19248193359375,18.39375114440918,30.468751907348633,10.200000762939453
1779999138035551700,19.2125517578125,18.712501525878906,30.468751907348633,10.18125057220459
1779999138055535600,19.23253564453125,18.787500381469727,30.431251525878906,10.162500381469727
1779999138075294500,19.25229443359375,18.900001525878906,30.431251525878906,10.125
1779999138095627300,19.272627197265624,19.068750381469727,30.450000762939453,10.106250762939453
1779999138115584500,19.29258447265625,19.181251525878906,30.48750114440918,10.068750381469727
1779999138135304200,19.31230419921875,19.3125,30.506250381469727,10.012500762939453
1779999138155162400,19.332162353515624,19.537500381469727,30.506250381469727,9.975000381469727
1779999138175137000,19.352136962890626,19.61250114440918,30.48750114440918,9.9375
1779999138195099000,19.372098876953125,19.6875,30.468751907348633,9.918750762939453
1779999138215358200,19.392358154296875,19.856250762939453,30.450000762939453,9.881250381469727
1779999138235255300,19.41225537109375,19.98750114440918,30.431251525878906,9.84375
1779999138255188700,19.432188720703124,20.17500114440918,30.412500381469727,9.825000762939453
1779999138275155500,19.452155517578124,20.34375,30.412500381469727,9.787500381469727
1779999138295134500,19.472134521484374,20.568750381469727,30.412500381469727,9.768750190734863
1779999138315130600,19.492130615234377,20.71875,30.412500381469727,9.75
1779999138335136300,19.51213623046875,20.662500381469727,30.39375114440918,9.731250762939453
1779999138355542000,19.5325419921875,20.793750762939453,30.39375114440918,9.731250762939453
1779999138375489300,19.5524892578125,20.887500762939453,30.375001907348633,9.693750381469727
1779999138395304000,19.572303955078127,20.887500762939453,30.356250762939453,9.675000190734863
1779999138415456300,19.592456298828125,21.01875114440918,30.337501525878906,9.65625
1779999138435289000,19.6122890625,21.168750762939453,30.337501525878906,9.637500762939453
1779999138455182000,19.63218212890625,21.131250381469727,30.337501525878906,9.61875057220459
1779999138475132000,19.6521318359375,21.20625114440918,30.337501525878906,9.600000381469727
1779999138495147500,19.6721474609375,21.318750381469727,30.356250762939453,9.581250190734863
1779999138515396600,19.692396728515625,21.30000114440918,30.356250762939453,9.5625
1779999138535270000,19.712269775390624,21.28125,30.356250762939453,9.543750762939453
1779999138555493000,19.7324931640625,21.168750762939453,30.356250762939453,9.52500057220459
1779999138575294200,19.752294189453124,21.243751525878906,30.356250762939453,9.487500190734863
1779999138595187700,19.772187744140624,21.318750381469727,30.337501525878906,9.46875
1779999138615401700,19.792401611328124,21.356250762939453,30.337501525878906,9.450000762939453
1779999138635262200,19.81226220703125,21.412500381469727,30.337501525878906,9.450000762939453
1779999138655643000,19.832642822265626,21.543750762939453,30.318750381469727,9.43125057220459
1779999138675588900,19.8525888671875,21.600000381469727,30.337501525878906,9.43125057220459
1779999138756791600,19.93379150390625,21.731250762939453,30.356250762939453,9.412500381469727
1779999138846945000,20.023945068359374,21.9375,30.356250762939453,9.375
1779999138891031000,20.068031005859375,22.068750381469727,30.356250762939453,9.356250762939453
1779999139023262200,20.20026220703125,22.3125,30.356250762939453,9.33750057220459
1779999139067313200,20.244313232421874,22.14375114440918,30.337501525878906,9.318750381469727
1779999139111337200,20.288337158203124,22.23750114440918,30.337501525878906,9.300000190734863
1779999139155320800,20.33232080078125,22.200000762939453,30.318750381469727,9.300000190734863
1779999139199248000,20.376247802734376,22.125,30.318750381469727,9.300000190734863
1779999139243098400,20.420098388671875,22.23750114440918,30.30000114440918,9.28125
1779999139286847500,20.463847412109374,22.275001525878906,30.30000114440918,9.28125
1779999139330466300,20.50746630859375,22.293750762939453,30.318750381469727,9.262500762939453
1779999139373920000,20.550919921875,22.40625,30.281251907348633,9.24375057220459
1779999139417170000,20.594169921875,22.293750762939453,30.262500762939453,9.24375057220459
1779999139460171500,20.637171630859374,22.14375114440918,30.262500762939453,9.24375057220459
1779999139502874600,20.67987451171875,22.012500762939453,30.262500762939453,9.24375057220459
1779999139545223700,20.7222236328125,21.975000381469727,30.243751525878906,9.24375057220459
1779999139587157800,20.76415771484375,21.900001525878906,30.20625114440918,9.24375057220459
1779999139628610000,20.805610107421874,21.881250381469727,30.187501907348633,9.24375057220459
1779999139669509000,20.846509033203127,21.806251525878906,30.187501907348633,9.225000381469727
1779999139709779200,20.886779296875,21.918750762939453,30.20625114440918,9.225000381469727
1779999139749340400,20.92634033203125,21.95625114440918,30.168750762939453,9.225000381469727
1779999139788109600,20.965109619140627,22.012500762939453,30.187501907348633,9.24375057220459
1779999139826000100,21.003000244140626,21.918750762939453,30.187501907348633,9.24375057220459
1779999139862923500,21.039923583984375,21.900001525878906,30.168750762939453,9.24375057220459
1779999139898788400,21.075788330078126,21.881250381469727,30.150001525878906,9.24375057220459
1779999139933516500,21.1105166015625,21.918750762939453,30.150001525878906,9.262500762939453
1779999139967011000,21.144010986328126,21.881250381469727,30.150001525878906,9.28125
1779999139999196000,21.17619580078125,21.95625114440918,30.168750762939453,9.300000190734863
1779999140029999600,21.20699951171875,21.9375,30.150001525878906,9.300000190734863
1779999140059343600,21.236343505859374,22.012500762939453,30.131250381469727,9.300000190734863
1779999140087176400,21.264176513671874,22.012500762939453,30.131250381469727,9.300000190734863
1779999140113440800,21.290440673828126,22.14375114440918,30.131250381469727,9.300000190734863
1779999140138089200,21.315089111328124,22.03125,30.131250381469727,9.300000190734863
1779999140161095700,21.338095703125,22.14375114440918,30.11250114440918,9.318750381469727
1779999140182444000,21.359444091796874,22.181251525878906,30.093751907348633,9.318750381469727
1779999140202134800,21.379134765625,22.21875,30.11250114440918,9.33750057220459
1779999140220165600,21.39716552734375,22.05000114440918,30.11250114440918,9.318750381469727
1779999140236564700,21.413564697265624,22.087501525878906,30.150001525878906,9.356250762939453
1779999140251375600,21.428375732421873,21.900001525878906,30.187501907348633,9.356250762939453
1779999140264627000,21.441626953125,21.825000762939453,30.187501907348633,9.375
1779999140276397600,21.4533974609375,21.731250762939453,30.187501907348633,9.375
1779999140286744800,21.463744873046874,21.67500114440918,30.187501907348633,9.356250762939453
1779999140303488000,21.480488037109374,21.731250762939453,30.168750762939453,9.356250762939453
1779999140315601700,21.4926015625,21.806251525878906,30.187501907348633,9.375
1779999140326791700,21.503791748046876,21.67500114440918,30.20625114440918,9.375
1779999140336714000,21.5137138671875,21.693750381469727,30.20625114440918,9.375
1779999140347786000,21.524785888671875,21.525001525878906,30.131250381469727,9.318750381469727
1779999140358584000,21.535583984375,20.71875,30.225000381469727,9.450000762939453
1779999140373422300,21.55042236328125,19.5,30.262500762939453,9.84375
1779999140385615600,21.56261572265625,18.76875114440918,30.30000114440918,10.03125
1779999140399694800,21.57669482421875,18.30000114440918,30.337501525878906,10.200000762939453
1779999140415541800,21.592541748046877,17.418750762939453,30.412500381469727,10.443750381469727
1779999140433170000,21.610169921875,16.80000114440918,30.450000762939453,10.668750762939453
1779999140452538600,21.62953857421875,16.650001525878906,30.450000762939453,10.800000190734863
1779999140462843600,21.63984375,16.725000381469727,30.431251525878906,10.818750381469727
1779999140473560600,21.650560546875,16.481250762939453,30.412500381469727,10.856250762939453
1779999140484718800,21.66171875,16.42500114440918,30.431251525878906,10.875
1779999140496229600,21.673229736328125,16.556251525878906,30.431251525878906,10.856250762939453
1779999140508125000,21.685125,16.59375,30.468751907348633,10.83750057220459
1779999140520414000,21.6974140625,16.6875,30.450000762939453,10.818750381469727
1779999140533019100,21.71001904296875,16.743751525878906,30.450000762939453,10.818750381469727
1779999140546541300,21.723541259765625,16.51875114440918,30.450000762939453,10.83750057220459
1779999140565090800,21.7420908203125,16.462501525878906,30.468751907348633,10.856250762939453
1779999140588769800,21.765769775390623,16.462501525878906,30.468751907348633,10.856250762939453
1779999140612841500,21.789841552734377,16.51875114440918,30.468751907348633,10.83750057220459
1779999140635231500,21.8122314453125,16.668750762939453,30.506250381469727,10.818750381469727
1779999140656234000,21.83323388671875,16.875,30.450000762939453,10.818750381469727
1779999140676692500,21.8536923828125,16.950000762939453,30.468751907348633,10.818750381469727
1779999140696193800,21.87319384765625,16.80000114440918,30.506250381469727,10.856250762939453
1779999140715968800,21.89296875,16.5,30.525001525878906,10.875
1779999140735520300,21.912520263671876,16.725000381469727,30.543750762939453,10.893750190734863
1779999140755246800,21.932246826171873,16.856250762939453,30.543750762939453,10.875
1779999140775105800,21.952105712890624,17.025001525878906,30.562501907348633,10.875
1779999140795310000,21.97231005859375,17.15625,30.543750762939453,10.856250762939453
1779999140815672300,21.99267236328125,17.15625,30.525001525878906,10.875
1779999140835401500,22.0124013671875,17.325000762939453,30.58125114440918,10.893750190734863
1779999140855496700,22.03249658203125,17.53125,30.58125114440918,10.912500381469727
1779999140875487500,22.052487548828125,17.418750762939453,30.58125114440918,10.93125057220459
1779999140895270000,22.072269775390627,17.568750381469727,30.58125114440918,10.96875
1779999140915571700,22.09257177734375,17.681251525878906,30.58125114440918,10.950000762939453
1779999140935343000,22.112343017578127,17.681251525878906,30.543750762939453,10.93125057220459
1779999141023195400,22.2001953125,17.681251525878906,30.562501907348633,10.912500381469727
1779999141119727600,22.2967275390625,17.83125114440918,30.543750762939453,10.912500381469727
1779999141213586700,22.390586669921873,18.28125,30.543750762939453,10.856250762939453
1779999141307420200,22.484420166015624,18.46875,30.525001525878906,10.78125
1779999141354311700,22.531311767578124,18.506250381469727,30.506250381469727,10.762500762939453
1779999141401172700,22.5781728515625,18.600000381469727,30.525001525878906,10.800000190734863
1779999141447989000,22.624989013671875,18.46875,30.48750114440918,10.800000190734863
1779999141494742000,22.671741943359375,18.262500762939453,30.468751907348633,10.800000190734863
1779999141541409300,22.7184091796875,18.28125,30.450000762939453,10.78125
1779999141587963100,22.764963134765626,18.262500762939453,30.468751907348633,10.74375057220459
1779999141634371300,22.811371337890623,18.225000381469727,30.468751907348633,10.74375057220459
1779999141680595500,22.857595458984374,18.09375,30.468751907348633,10.74375057220459
1779999141726592000,22.903592041015624,17.943750381469727,30.450000762939453,10.762500762939453
1779999141772310800,22.949310791015623,17.775001525878906,30.468751907348633,10.78125
1779999141817696300,22.9946962890625,17.512500762939453,30.468751907348633,10.818750381469727
1779999141862686200,23.039686279296873,17.17500114440918,30.468751907348633,10.83750057220459
1779999141907212300,23.08421240234375,17.043750762939453,30.48750114440918,10.856250762939453
1779999141951200300,23.1282001953125,16.931251525878906,30.48750114440918,10.83750057220459
1779999141994570000,23.171570068359376,16.931251525878906,30.48750114440918,10.83750057220459
1779999142037236500,23.214236572265627,16.762500762939453,30.48750114440918,10.856250762939453
1779999142079110000,23.25610986328125,16.5,30.468751907348633,10.856250762939453
1779999142120097000,23.297096923828125,16.33125114440918,30.48750114440918,10.856250762939453
1779999142160101000,23.33710107421875,16.293750762939453,30.48750114440918,10.856250762939453
1779999142199024000,23.376024169921877,16.443750381469727,30.48750114440918,10.856250762939453
1779999142236770800,23.413770751953123,16.575000762939453,30.450000762939453,10.875
1779999142273237000,23.450237060546876,16.61250114440918,30.450000762939453,10.875
1779999142308331300,23.485331298828125,16.668750762939453,30.450000762939453,10.893750190734863
1779999142341961500,23.51896142578125,16.668750762939453,30.450000762939453,10.893750190734863
1779999142374042600,23.551042724609374,16.61250114440918,30.468751907348633,10.93125057220459
1779999142404503600,23.581503662109377,16.650001525878906,30.468751907348633,10.912500381469727
1779999142433264000,23.61026416015625,16.80000114440918,30.450000762939453,10.893750190734863
1779999142460277200,23.63727734375,16.875,30.412500381469727,10.875
1779999142485495000,23.6624951171875,16.875,30.431251525878906,10.893750190734863
1779999142508869600,23.68586962890625,16.818750381469727,30.431251525878906,10.893750190734863
1779999142530394600,23.70739453125,16.856250762939453,30.39375114440918,10.893750190734863
1779999142550069200,23.7270693359375,16.89375114440918,30.412500381469727,10.875
1779999142567879400,23.74487939453125,17.043750762939453,30.431251525878906,10.893750190734863
1779999142583865000,23.760864990234374,17.193750381469727,30.431251525878906,10.893750190734863
1779999142598074000,23.77507421875,17.137500762939453,30.431251525878906,10.893750190734863
1779999142610541000,23.787541015625,17.0625,30.450000762939453,10.893750190734863
1779999142621351000,23.798350830078125,17.0625,30.450000762939453,10.893750190734863
1779999142638284800,23.815284912109377,17.0625,30.48750114440918,10.875
1779999142649587000,23.8265869140625,17.043750762939453,30.450000762939453,10.818750381469727
1779999142663570200,23.840570068359376,16.80000114440918,30.412500381469727,10.96875
1779999142674532900,23.851532958984375,16.631250381469727,30.39375114440918,10.96875
1779999142687532500,23.864532470703125,16.5,30.375001907348633,10.950000762939453
1779999142702532900,23.879532958984374,16.40625,30.39375114440918,10.893750190734863
1779999142719487000,23.896487060546875,16.856250762939453,30.412500381469727,10.893750190734863
1779999142738306000,23.91530615234375,16.70625114440918,30.39375114440918,10.875
1779999142748374300,23.925374267578125,16.856250762939453,30.412500381469727,10.875
1779999142758881500,23.935881591796875,16.875,30.375001907348633,10.83750057220459
1779999142769822500,23.946822509765624,16.875,30.375001907348633,10.800000190734863
1779999142781179000,23.958178955078125,16.875,30.375001907348633,10.800000190734863
1779999142792911400,23.969911376953124,16.931251525878906,30.375001907348633,10.818750381469727
1779999142805659600,23.98265966796875,16.96875,30.39375114440918,10.83750057220459
1779999142823870700,24.00087060546875,17.231250762939453,30.39375114440918,10.83750057220459
1779999142848365300,24.025365234375,17.45625114440918,30.39375114440918,10.856250762939453
1779999142872660500,24.049660400390625,17.625,30.412500381469727,10.83750057220459
1779999142895224600,24.072224609375,17.606250762939453,30.39375114440918,10.818750381469727
1779999142916541700,24.093541748046874,17.700000762939453,30.39375114440918,10.818750381469727
1779999142938170000,24.115170166015623,17.587501525878906,30.39375114440918,10.83750057220459
1779999142959798500,24.136798583984376,17.418750762939453,30.412500381469727,10.856250762939453
1779999142981426700,24.1584267578125,17.45625114440918,30.431251525878906,10.875
1779999143003054800,24.180054931640626,17.662500381469727,30.412500381469727,10.875
1779999143024682500,24.2016826171875,17.681251525878906,30.39375114440918,10.875
1779999143046309600,24.2233095703125,17.73750114440918,30.431251525878906,10.875
1779999143067935500,24.244935546875,17.793750762939453,30.431251525878906,10.893750190734863
1779999143089559600,24.2665595703125,17.662500381469727,30.412500381469727,10.893750190734863
1779999143111181000,24.28818115234375,17.45625114440918,30.412500381469727,10.893750190734863
1779999143132799000,24.309799072265626,17.400001525878906,30.39375114440918,10.893750190734863
1779999143154411500,24.33141162109375,17.25,30.375001907348633,10.875
1779999143176017400,24.353017333984376,17.100000381469727,30.375001907348633,10.856250762939453
1779999143197614800,24.37461474609375,17.100000381469727,30.356250762939453,10.856250762939453
1779999143219201500,24.396201416015625,17.006250381469727,30.375001907348633,10.875
1779999143240774400,24.4177744140625,16.950000762939453,30.375001907348633,10.875
1779999143262330600,24.43933056640625,16.875,30.375001907348633,10.875
1779999143283867000,24.460866943359374,16.875,30.356250762939453,10.875
1779999143305379800,24.4823798828125,16.89375114440918,30.356250762939453,10.856250762939453
1779999143326866200,24.5038662109375,16.837501525878906,30.39375114440918,10.83750057220459
1779999143348321500,24.525321533203126,16.837501525878906,30.375001907348633,10.818750381469727
1779999143369738500,24.546738525390627,16.875,30.39375114440918,10.818750381469727
1779999143391113500,24.568113525390626,16.70625114440918,30.39375114440918,10.818750381469727
1779999143412441300,24.58944140625,16.743751525878906,30.39375114440918,10.856250762939453
1779999143433716700,24.610716796875,16.78125,30.375001907348633,10.856250762939453
1779999143454936600,24.6319365234375,16.6875,30.375001907348633,10.856250762939453
1779999143476092700,24.6530927734375,16.70625114440918,30.375001907348633,10.856250762939453
1779999143497176800,24.6741767578125,16.743751525878906,30.375001907348633,10.856250762939453
1779999143518188500,24.6951884765625,16.556251525878906,30.39375114440918,10.875
1779999143539116000,24.716115966796874,16.631250381469727,30.375001907348633,10.875
1779999143559958500,24.73695849609375,16.70625114440918,30.39375114440918,10.875
1779999143580708000,24.7577080078125,16.6875,30.39375114440918,10.893750190734863
1779999143601362400,24.778362548828124,16.725000381469727,30.375001907348633,10.912500381469727
1779999143621922000,24.798922119140624,16.818750381469727,30.375001907348633,10.912500381469727
1779999143642386000,24.819385986328125,16.818750381469727,30.375001907348633,10.950000762939453
1779999143662732000,24.83973193359375,16.78125,30.412500381469727,10.96875
1779999143682970400,24.859970458984375,16.61250114440918,30.431251525878906,10.96875
1779999143703100700,24.8801005859375,16.537500381469727,30.431251525878906,10.950000762939453
1779999143723122200,24.9001220703125,16.42500114440918,30.450000762939453,10.950000762939453
1779999143743035600,24.92003564453125,16.51875114440918,30.468751907348633,10.950000762939453
1779999143762852000,24.93985205078125,16.59375,30.48750114440918,10.93125057220459
1779999143782555100,24.95955517578125,16.650001525878906,30.506250381469727,10.893750190734863
1779999143802172400,24.97917236328125,16.59375,30.525001525878906,10.893750190734863
1779999143821678000,24.998677978515627,16.59375,30.525001525878906,10.893750190734863
1779999143841090800,25.0180908203125,16.70625114440918,30.525001525878906,10.912500381469727
1779999143860427800,25.037427734375,16.70625114440918,30.468751907348633,10.893750190734863
1779999143879671000,25.056671142578125,16.80000114440918,30.450000762939453,10.875
1779999143898839000,25.075839111328126,16.875,30.431251525878906,10.83750057220459
1779999143917938000,25.09493798828125,16.818750381469727,30.431251525878906,10.818750381469727
1779999143936980500,25.11398046875,16.837501525878906,30.431251525878906,10.818750381469727
1779999143955973000,25.13297314453125,16.875,30.412500381469727,10.83750057220459
1779999143974917000,25.151917236328124,16.80000114440918,30.39375114440918,10.83750057220459
1779999143993820200,25.170820068359376,16.80000114440918,30.39375114440918,10.83750057220459
1779999144012670500,25.18967041015625,16.856250762939453,30.39375114440918,10.818750381469727
1779999144031491300,25.2084912109375,17.043750762939453,30.412500381469727,10.818750381469727
1779999144050287400,25.227287353515624,17.212501525878906,30.39375114440918,10.818750381469727
1779999144069065500,25.2460654296875,17.15625,30.412500381469727,10.856250762939453
1779999144087830300,25.264830322265624,17.231250762939453,30.412500381469727,10.875
1779999144106587000,25.2835869140625,17.325000762939453,30.431251525878906,10.875
1779999144125340400,25.30234033203125,17.17500114440918,30.450000762939453,10.875
1779999144144095000,25.321094970703125,17.193750381469727,30.468751907348633,10.893750190734863
1779999144162854100,25.339854248046876,17.25,30.48750114440918,10.875
1779999144181639000,25.358638916015625,17.193750381469727,30.48750114440918,10.875
1779999144200418300,25.377418212890625,17.08125114440918,30.48750114440918,10.875
1779999144219212500,25.396212646484376,17.043750762939453,30.48750114440918,10.893750190734863
1779999144238044400,25.41504443359375,16.98750114440918,30.48750114440918,10.875
1779999144256874500,25.43387451171875,17.15625,30.468751907348633,10.856250762939453
1779999144275759600,25.452759521484374,17.381250381469727,30.468751907348633,10.856250762939453
1779999144294644000,25.47164404296875,17.400001525878906,30.450000762939453,10.83750057220459
1779999144313541400,25.490541259765624,17.287500381469727,30.431251525878906,10.83750057220459
1779999144332498400,25.50949853515625,17.231250762939453,30.431251525878906,10.818750381469727
1779999144351447600,25.528447509765623,17.231250762939453,30.431251525878906,10.83750057220459
1779999144370424000,25.547424072265624,17.043750762939453,30.412500381469727,10.818750381469727
1779999144389428000,25.566427978515627,16.98750114440918,30.375001907348633,10.818750381469727
1779999144408468500,25.585468505859374,17.043750762939453,30.356250762939453,10.800000190734863
1779999144427528700,25.60452880859375,17.006250381469727,30.375001907348633,10.800000190734863
1779999144446616800,25.623616943359377,16.89375114440918,30.375001907348633,10.818750381469727
1779999144465763300,25.642763427734376,16.912500381469727,30.39375114440918,10.83750057220459
1779999144484910300,25.661910400390624,16.856250762939453,30.375001907348633,10.875
1779999144504085200,25.681085205078126,16.837501525878906,30.375001907348633,10.856250762939453
1779999144523305500,25.700305419921875,16.818750381469727,30.39375114440918,10.893750190734863
1779999144542536400,25.719536376953126,16.875,30.39375114440918,10.875
1779999144561796000,25.738796142578124,16.89375114440918,30.39375114440918,10.875
1779999144581099300,25.758099365234376,17.006250381469727,30.39375114440918,10.875
1779999144600436500,25.7774365234375,17.006250381469727,30.39375114440918,10.856250762939453
1779999144619810300,25.796810302734375,16.875,30.39375114440918,10.875
1779999144639191600,25.816191650390625,16.78125,30.39375114440918,10.893750190734863
1779999144658592800,25.8355927734375,16.875,30.375001907348633,10.893750190734863
1779999144678006800,25.8550068359375,16.856250762939453,30.39375114440918,10.912500381469727
1779999144697501000,25.8745009765625,16.912500381469727,30.412500381469727,10.93125057220459
1779999144716643300,25.893643310546874,16.818750381469727,30.39375114440918,10.93125057220459
1779999144735675400,25.91267529296875,16.631250381469727,30.39375114440918,10.950000762939453
1779999144755271000,25.93227099609375,16.556251525878906,30.39375114440918,10.96875
1779999144775066000,25.952066162109375,16.743751525878906,30.39375114440918,10.950000762939453
1779999144794878200,25.971878173828124,16.875,30.412500381469727,10.950000762939453
1779999144815332600,25.99233251953125,16.912500381469727,30.39375114440918,10.93125057220459
1779999144835394800,26.012394775390625,16.80000114440918,30.39375114440918,10.950000762939453
1779999144855487000,26.032487060546874,16.556251525878906,30.39375114440918,10.950000762939453
1779999144875286500,26.05228662109375,16.3125,30.39375114440918,10.950000762939453
1779999144895438300,26.072438232421874,16.106250762939453,30.39375114440918,10.96875
1779999144915545900,26.0925458984375,16.087501525878906,30.412500381469727,10.987500190734863
1779999144935331800,26.112331787109376,16.256250381469727,30.431251525878906,10.96875
1779999144955467500,26.132467529296875,16.33125114440918,30.431251525878906,10.950000762939453
1779999144975273700,26.152273681640626,16.42500114440918,30.431251525878906,10.93125057220459
1779999144995174100,26.172174072265626,16.387500762939453,30.431251525878906,10.912500381469727
1779999145015122400,26.192122314453126,16.42500114440918,30.468751907348633,10.893750190734863
1779999145035320600,26.212320556640623,16.5,30.450000762939453,10.875
1779999145055425500,26.232425537109375,16.462501525878906,30.450000762939453,10.856250762939453
1779999145075261000,26.252260986328125,16.387500762939453,30.450000762939453,10.83750057220459
1779999145095403300,26.2724033203125,16.293750762939453,30.450000762939453,10.83750057220459
1779999145115248400,26.292248291015625,16.23750114440918,30.450000762939453,10.856250762939453
1779999145135417600,26.31241748046875,16.293750762939453,30.450000762939453,10.856250762939453
1779999145155334700,26.332334716796876,16.368751525878906,30.468751907348633,10.856250762939453
1779999145175214600,26.352214599609376,16.537500381469727,30.450000762939453,10.856250762939453
1779999145195150800,26.37215087890625,16.575000762939453,30.431251525878906,10.856250762939453
1779999145215370500,26.39237060546875,16.650001525878906,30.431251525878906,10.83750057220459
1779999145235519200,26.412519287109376,16.650001525878906,30.412500381469727,10.83750057220459
1779999145255594800,26.4325947265625,16.743751525878906,30.412500381469727,10.83750057220459
1779999145275369700,26.45236962890625,16.78125,30.39375114440918,10.818750381469727
1779999145295212500,26.472212646484376,16.70625114440918,30.375001907348633,10.83750057220459
1779999145315336400,26.49233642578125,16.6875,30.356250762939453,10.856250762939453
1779999145335210800,26.512210693359375,16.70625114440918,30.337501525878906,10.875
1779999145355257000,26.532257080078125,16.837501525878906,30.337501525878906,10.875
1779999145375373300,26.552373291015623,16.743751525878906,30.337501525878906,10.875
1779999145395700700,26.57270068359375,16.875,30.356250762939453,10.875
1779999145415603000,26.59260302734375,16.96875,30.356250762939453,10.875
1779999145435316700,26.612316650390625,17.08125114440918,30.356250762939453,10.875
1779999145455163000,26.632162841796877,17.25,30.356250762939453,10.875
1779999145475249700,26.652249755859376,17.231250762939453,30.375001907348633,10.893750190734863
1779999145495415300,26.672415283203126,17.381250381469727,30.39375114440918,10.912500381469727
1779999145515726600,26.6927265625,17.400001525878906,30.375001907348633,10.912500381469727
1779999145535419400,26.71241943359375,17.475000381469727,30.39375114440918,10.912500381469727
1779999145555231500,26.7322314453125,17.587501525878906,30.39375114440918,10.912500381469727
1779999145575130000,26.752130126953126,17.475000381469727,30.412500381469727,10.93125057220459
1779999145595594800,26.7725947265625,17.587501525878906,30.412500381469727,10.93125057220459
1779999145615363000,26.792363037109375,17.587501525878906,30.39375114440918,10.912500381469727
1779999145635210000,26.8122099609375,17.64375114440918,30.412500381469727,10.893750190734863
1779999145655474700,26.832474609375,17.756250381469727,30.412500381469727,10.893750190734863
1779999145675299800,26.8522998046875,17.8125,30.412500381469727,10.912500381469727
1779999145695448000,26.872447998046876,17.700000762939453,30.412500381469727,10.893750190734863
1779999145715741700,26.89274169921875,17.64375114440918,30.431251525878906,10.912500381469727
1779999145735609900,26.91260986328125,17.512500762939453,30.450000762939453,10.893750190734863
1779999145755423700,26.932423828125,17.381250381469727,30.450000762939453,10.893750190734863
1779999145775408400,26.952408447265626,17.36250114440918,30.468751907348633,10.856250762939453
1779999145795410200,26.97241015625,17.381250381469727,30.468751907348633,10.83750057220459
1779999145815680000,26.992679931640627,17.26875114440918,30.468751907348633,10.818750381469727
1779999145835634400,27.012634521484376,17.006250381469727,30.468751907348633,10.818750381469727
1779999145855552300,27.03255224609375,16.650001525878906,30.450000762939453,10.818750381469727
1779999145875629300,27.05262939453125,16.575000762939453,30.431251525878906,10.78125
1779999145895333600,27.072333740234374,16.537500381469727,30.450000762939453,10.818750381469727
1779999145915504400,27.09250439453125,16.631250381469727,30.468751907348633,10.818750381469727
1779999145935279900,27.11227978515625,16.650001525878906,30.506250381469727,10.83750057220459
1779999145955160300,27.132160400390624,16.61250114440918,30.48750114440918,10.83750057220459
1779999145975105800,27.152105712890624,16.668750762939453,30.468751907348633,10.83750057220459
1779999145995099000,27.172098876953125,16.6875,30.468751907348633,10.83750057220459
1779999146015103500,27.192103515625,16.78125,30.468751907348633,10.83750057220459
1779999146035371500,27.21237158203125,16.912500381469727,30.468751907348633,10.83750057220459
1779999146055277000,27.232277099609377,16.912500381469727,30.450000762939453,10.83750057220459
1779999146075201300,27.252201171875,16.950000762939453,30.431251525878906,10.856250762939453
1779999146095421200,27.272421142578125,16.875,30.412500381469727,10.856250762939453
1779999146115438600,27.2924384765625,16.89375114440918,30.39375114440918,10.875
1779999146135268000,27.31226806640625,17.006250381469727,30.412500381469727,10.893750190734863
1779999146155443700,27.332443603515625,17.08125114440918,30.431251525878906,10.912500381469727
1779999146175473200,27.35247314453125,17.137500762939453,30.431251525878906,10.912500381469727
1779999146195278800,27.37227880859375,17.193750381469727,30.431251525878906,10.893750190734863
1779999146215526700,27.392526611328126,17.15625,30.431251525878906,10.875
1779999146235317200,27.412317138671874,17.043750762939453,30.412500381469727,10.856250762939453
1779999146255191800,27.43219189453125,17.006250381469727,30.412500381469727,10.856250762939453
1779999146275336700,27.452336669921873,17.006250381469727,30.412500381469727,10.856250762939453
1779999146295452000,27.472451904296875,16.89375114440918,30.412500381469727,10.875
1779999146315511600,27.492511474609376,16.837501525878906,30.412500381469727,10.856250762939453
1779999146335576800,27.512576904296875,16.856250762939453,30.412500381469727,10.856250762939453
1779999146355605000,27.53260498046875,16.950000762939453,30.412500381469727,10.856250762939453
1779999146375333000,27.5523330078125,16.89375114440918,30.412500381469727,10.83750057220459
1779999146395449300,27.572449462890624,16.837501525878906,30.412500381469727,10.818750381469727
1779999146415521800,27.592521728515624,16.70625114440918,30.39375114440918,10.800000190734863
1779999146435311600,27.6123115234375,16.650001525878906,30.39375114440918,10.78125
1779999146455181600,27.632181640625,16.59375,30.375001907348633,10.78125
1779999146475586600,27.652586669921874,16.725000381469727,30.39375114440918,10.762500762939453
1779999146495477000,27.67247705078125,16.875,30.375001907348633,10.762500762939453
1779999146515265800,27.692265869140623,16.875,30.39375114440918,10.74375057220459
1779999146535152000,27.712152099609376,17.006250381469727,30.412500381469727,10.762500762939453
1779999146555117600,27.73211767578125,16.931251525878906,30.412500381469727,10.762500762939453
1779999146575364000,27.752364013671876,16.875,30.412500381469727,10.762500762939453
1779999146595455700,27.772455810546877,17.006250381469727,30.39375114440918,10.74375057220459
1779999146615516400,27.792516357421874,17.15625,30.39375114440918,10.74375057220459
1779999146635558700,27.81255859375,17.15625,30.39375114440918,10.725000381469727
1779999146655316500,27.83231640625,17.0625,30.39375114440918,10.725000381469727
1779999146675369700,27.85236962890625,16.98750114440918,30.39375114440918,10.706250190734863
1779999146695461600,27.872461669921876,17.006250381469727,30.412500381469727,10.706250190734863
1779999146715531300,27.89253125,17.325000762939453,30.450000762939453,10.725000381469727
1779999146735308500,27.91230859375,17.4375,30.468751907348633,10.74375057220459
1779999146755445500,27.932445556640626,17.53125,30.48750114440918,10.74375057220459
1779999146775463400,27.95246337890625,17.512500762939453,30.48750114440918,10.74375057220459
1779999146795525600,27.972525634765624,17.45625114440918,30.506250381469727,10.74375057220459
1779999146815695400,27.9926953125,17.45625114440918,30.506250381469727,10.762500762939453
1779999146835394000,28.01239404296875,17.325000762939453,30.48750114440918,10.762500762939453
1779999146855206400,28.032206298828125,17.306251525878906,30.468751907348633,10.74375057220459
1779999146875284200,28.0522841796875,17.36250114440918,30.468751907348633,10.762500762939453
1779999146895377200,28.072377197265624,17.45625114440918,30.468751907348633,10.762500762939453
1779999146915606500,28.0926064453125,17.381250381469727,30.48750114440918,10.800000190734863
1779999146935568100,28.112568115234374,17.36250114440918,30.48750114440918,10.800000190734863
1779999146955319000,28.132319091796877,17.36250114440918,30.48750114440918,10.818750381469727
1779999146975165400,28.15216552734375,17.287500381469727,30.506250381469727,10.856250762939453
1779999146995108000,28.172108154296875,17.17500114440918,30.48750114440918,10.893750190734863
1779999147015339000,28.192339111328124,16.96875,30.48750114440918,10.893750190734863
1779999147035238000,28.21223779296875,16.762500762939453,30.48750114440918,10.912500381469727
1779999147055611400,28.232611328125,16.6875,30.468751907348633,10.93125057220459
1779999147075381200,28.25238134765625,16.537500381469727,30.468751907348633,10.96875
1779999147095690800,28.272690673828127,16.256250381469727,30.468751907348633,11.02500057220459
1779999147115860500,28.292860595703125,16.068750381469727,30.450000762939453,11.081250190734863
1779999147135720400,28.312720458984376,16.14375114440918,30.450000762939453,11.100000381469727
1779999147155738600,28.332738525390624,16.106250762939453,30.450000762939453,11.100000381469727
1779999147175563300,28.352563232421875,15.862500190734863,30.450000762939453,11.11875057220459
1779999147195322400,28.372322265625,15.693750381469727,30.450000762939453,11.137500762939453
1779999147215605500,28.39260546875,15.52500057220459,30.450000762939453,11.137500762939453
1779999147235583000,28.4125830078125,15.375000953674316,30.431251525878906,11.175000190734863
1779999147255496400,28.432496337890626,15.281250953674316,30.412500381469727,11.193750381469727
1779999147275448800,28.45244873046875,15.300000190734863,30.412500381469727,11.21250057220459
1779999147295690500,28.4726904296875,15.356250762939453,30.375001907348633,11.21250057220459
1779999147315612700,28.49261279296875,15.262500762939453,30.375001907348633,11.21250057220459
1779999147335574300,28.51257421875,15.356250762939453,30.337501525878906,11.231250762939453
1779999147355664100,28.5326640625,15.43125057220459,30.337501525878906,11.231250762939453
1779999147375573500,28.552573486328125,15.43125057220459,30.30000114440918,11.231250762939453
1779999147395561200,28.572561279296874,15.562500953674316,30.262500762939453,11.231250762939453
1779999147415756500,28.592756591796874,15.675000190734863,30.281251907348633,11.231250762939453
1779999147435649000,28.61264892578125,15.675000190734863,30.243751525878906,11.231250762939453
1779999147455597300,28.632597412109376,15.768750190734863,30.243751525878906,11.268750190734863
1779999147475511800,28.65251171875,15.731250762939453,30.225000381469727,11.268750190734863
1779999147495714000,28.672714111328126,15.656250953674316,30.225000381469727,11.268750190734863
1779999147515686400,28.692686279296876,15.52500057220459,30.225000381469727,11.30625057220459
1779999147535842600,28.712842529296875,15.581250190734863,30.225000381469727,11.325000762939453
1779999147555805000,28.732804931640626,15.450000762939453,30.243751525878906,11.34375
1779999147575483600,28.752483642578124,15.356250762939453,30.243751525878906,11.362500190734863
1779999147595414300,28.772414306640623,15.281250953674316,30.262500762939453,11.362500190734863
1779999147615657700,28.79265771484375,15.393750190734863,30.281251907348633,11.381250381469727
1779999147635333600,28.812333740234376,15.393750190734863,30.30000114440918,11.381250381469727
1779999147655168300,28.832168212890625,15.33750057220459,30.30000114440918,11.381250381469727
1779999147675283500,28.852283447265624,15.375000953674316,30.318750381469727,11.362500190734863
1779999147695367200,28.8723671875,15.093750953674316,30.318750381469727,11.325000762939453
1779999147715477000,28.89247705078125,14.943750381469727,30.318750381469727,11.30625057220459
1779999147735284200,28.9122841796875,15.037500381469727,30.337501525878906,11.30625057220459
1779999147755302100,28.93230224609375,15.15000057220459,30.356250762939453,11.287500381469727
1779999147775199000,28.952198974609374,15.393750190734863,30.356250762939453,11.287500381469727
1779999147795139000,28.97213916015625,15.506250381469727,30.356250762939453,11.25
1779999147815584300,28.992584228515625,15.637500762939453,30.337501525878906,11.231250762939453
1779999147835369200,29.012369140625,15.468750953674316,30.318750381469727,11.21250057220459
1779999147855485200,29.032485107421873,15.637500762939453,30.30000114440918,11.193750381469727
1779999147875493000,29.0524931640625,15.768750190734863,30.281251907348633,11.175000190734863
1779999147895578600,29.07257861328125,15.90000057220459,30.262500762939453,11.193750381469727
1779999147915789000,29.0927890625,16.087501525878906,30.243751525878906,11.21250057220459
1779999147935679000,29.112678955078124,16.106250762939453,30.262500762939453,11.25
1779999147955464400,29.13246435546875,16.05000114440918,30.262500762939453,11.268750190734863
1779999147975432000,29.152431884765626,15.99375057220459,30.262500762939453,11.30625057220459
1779999147995675400,29.17267529296875,16.293750762939453,30.243751525878906,11.30625057220459
1779999148015558100,29.19255810546875,16.481250762939453,30.243751525878906,11.325000762939453
1779999148035542000,29.2125419921875,16.275001525878906,30.243751525878906,11.34375
1779999148055750400,29.23275048828125,16.162500381469727,30.243751525878906,11.34375
1779999148075592700,29.2525927734375,16.012500762939453,30.225000381469727,11.381250381469727
1779999148095796000,29.2727958984375,15.787500381469727,30.225000381469727,11.418750762939453
1779999148115869200,29.292869140625,15.675000190734863,30.243751525878906,11.4375
1779999148135586000,29.3125859375,15.768750190734863,30.225000381469727,11.475000381469727
1779999148155530800,29.33253076171875,15.768750190734863,30.243751525878906,11.475000381469727
1779999148175450000,29.3524501953125,15.80625057220459,30.243751525878906,11.475000381469727
1779999148195677000,29.372677001953125,15.693750381469727,30.262500762939453,11.475000381469727
1779999148215611400,29.392611328125,15.375000953674316,30.281251907348633,11.49375057220459
1779999148235314400,29.412314453125,15.375000953674316,30.262500762939453,11.475000381469727
1779999148255621400,29.432621337890627,15.318750381469727,30.262500762939453,11.4375
1779999148275347000,29.452346923828124,15.168750762939453,30.262500762939453,11.418750762939453
1779999148295645000,29.47264501953125,15.018750190734863,30.243751525878906,11.4375
1779999148315819500,29.492819580078127,14.96250057220459,30.262500762939453,11.456250190734863
1779999148335482400,29.512482421875,15.168750762939453,30.243751525878906,11.456250190734863
1779999148355602700,29.532602783203124,15.187500953674316,30.262500762939453,11.456250190734863
1779999148375511300,29.55251123046875,15.300000190734863,30.281251907348633,11.456250190734863
1779999148395458600,29.57245849609375,15.468750953674316,30.281251907348633,11.456250190734863
1779999148415687400,29.5926875,15.543750762939453,30.262500762939453,11.4375
1779999148435811800,29.612811767578126,15.506250381469727,30.262500762939453,11.40000057220459
1779999148455635700,29.6326357421875,15.600000381469727,30.243751525878906,11.40000057220459
1779999148475950800,29.652950927734373,15.61875057220459,30.243751525878906,11.40000057220459
1779999148495948000,29.672947998046876,15.71250057220459,30.243751525878906,11.381250381469727
1779999148515852800,29.692852783203126,15.787500381469727,30.20625114440918,11.381250381469727
1779999148535656200,29.71265625,15.61875057220459,30.20625114440918,11.362500190734863
1779999148555671600,29.732671630859375,15.693750381469727,30.20625114440918,11.362500190734863
1779999148575516200,29.75251611328125,15.975000381469727,30.20625114440918,11.362500190734863
1779999148595495200,29.7724951171875,16.125,30.20625114440918,11.362500190734863
1779999148615713000,29.792713134765624,16.106250762939453,30.187501907348633,11.34375
1779999148635628300,29.812628173828124,16.14375114440918,30.20625114440918,11.34375
1779999148655715600,29.832715576171875,16.125,30.187501907348633,11.34375
1779999148675565600,29.852565673828124,16.106250762939453,30.20625114440918,11.325000762939453
1779999148695735600,29.872735595703126,16.106250762939453,30.20625114440918,11.30625057220459
1779999148715519000,29.89251904296875,16.068750381469727,30.225000381469727,11.287500381469727
