time,seconds_elapsed,z,y,x
1779999119145162000,0.322161865234375,348.6750183105469,-103.7437515258789,27.506250381469727
1779999119165576700,0.34257666015625,348.7125244140625,-103.7437515258789,27.506250381469727
1779999119185863200,0.36286328125,348.5812683105469,-103.7437515258789,27.48750114440918
1779999119205957000,0.38295703125,348.4875183105469,-103.72500610351562,27.450000762939453
1779999119225531100,0.40253125,348.4312744140625,-103.70625305175781,27.431251525878906
1779999119306316300,0.48331640625,348.4125061035156,-103.66875457763672,27.39375114440918
1779999119396148500,0.5731484375,348.3375244140625,-103.59375762939453,27.337501525878906
1779999119527642000,0.70464208984375,348.2062683105469,-103.4625015258789,27.243751525878906
1779999119571458800,0.748458740234375,348.1500244140625,-103.42500305175781,27.20625114440918
1779999119615258400,0.79225830078125,348.1875,-103.42500305175781,27.168750762939453
1779999119659031000,0.836031005859375,348.09375,-103.38750457763672,27.150001525878906
1779999119702763800,0.879763671875,348.1312561035156,-103.38750457763672,27.11250114440918
1779999119746440700,0.923440673828125,348.1125183105469,-103.35000610351562,27.075000762939453
1779999119790041600,0.96704150390625,348.0375061035156,-103.33125305175781,27.037500381469727
1779999119833542100,1.010542236328125,348.0562744140625,-103.31250762939453,27.01875114440918
1779999119876913700,1.05391357421875,348.0187683105469,-103.29375457763672,27.01875114440918
1779999119920122000,1.0971220703125,348.0375061035156,-103.31250762939453,26.981250762939453
1779999119963128600,1.140128662109375,348.1125183105469,-103.33125305175781,26.981250762939453
1779999120005890300,1.182890380859375,348.16876220703125,-103.35000610351562,26.962501525878906
1779999120048468700,1.22546875,348.16876220703125,-103.3687515258789,26.981250762939453
1779999120132754000,1.30975390625,348.35626220703125,-103.42500305175781,27.01875114440918
1779999120255286300,1.432286376953125,348.54376220703125,-103.4625015258789,27.056251525878906
1779999120294710500,1.47171044921875,348.5812683105469,-103.48125457763672,27.075000762939453
1779999120333347300,1.510347412109375,348.45001220703125,-103.48125457763672,27.093751907348633
1779999120371113500,1.548113525390625,348.4125061035156,-103.50000762939453,27.093751907348633
1779999120407922000,1.584921875,348.3937683105469,-103.50000762939453,27.11250114440918
1779999120443677200,1.62067724609375,348.6187744140625,-103.51875305175781,27.150001525878906
1779999120478298400,1.65529833984375,348.75,-103.53750610351562,27.187501907348633
1779999120511700700,1.68870068359375,348.75,-103.53750610351562,27.243751525878906
1779999120543807700,1.720807861328125,348.6937561035156,-103.5562515258789,27.281251907348633
1779999120574540300,1.751540283203125,348.63751220703125,-103.5562515258789,27.30000114440918
1779999120603828700,1.780828857421875,348.6937561035156,-103.57500457763672,27.318750381469727
1779999120631615000,1.808614990234375,348.5812683105469,-103.59375762939453,27.318750381469727
1779999120657836300,1.834836181640625,348.375,-103.59375762939453,27.318750381469727
1779999120682467800,1.8594677734375,348.3000183105469,-103.61250305175781,27.337501525878906
1779999120705475300,1.882475341796875,348.1312561035156,-103.61250305175781,27.337501525878906
1779999120726830800,1.903830810546875,348,-103.63125610351562,27.337501525878906
1779999120746544000,1.923544189453125,348,-103.63125610351562,27.356250762939453
1779999120764608500,1.9416083984375,348.0562744140625,-103.6500015258789,27.356250762939453
1779999120783370200,1.960370361328125,347.98126220703125,-103.66875457763672,27.39375114440918
1779999120815427000,1.992427001953125,347.70001220703125,-103.7437515258789,27.412500381469727
1779999120849190400,2.0261904296875,347.4375,-103.80000305175781,27.39375114440918
1779999120863718700,2.04071875,347.32501220703125,-103.80000305175781,27.39375114440918
1779999120873952300,2.0509521484375,347.3625183105469,-103.81875610351562,27.39375114440918
1779999120890391800,2.067391845703125,347.23126220703125,-103.80000305175781,27.468751907348633
1779999120900482300,2.077482421875,344.6625061035156,-103.50000762939453,28.312501907348633
1779999120912004000,2.089004150390625,344.04376220703125,-103.3687515258789,28.743751525878906
1779999120921681200,2.09868115234375,343.95001220703125,-103.35000610351562,28.762500762939453
1779999120946109700,2.123109619140625,344.3062744140625,-103.40625762939453,28.650001525878906
1779999120966694000,2.14369384765625,344.25,-103.42500305175781,28.725000381469727
1779999120980240000,2.157239990234375,344.2125244140625,-103.38750457763672,28.743751525878906
1779999120995608000,2.172608154296875,344.4937744140625,-103.40625762939453,28.743751525878906
1779999121012759000,2.189759033203125,344.5687561035156,-103.44375610351562,28.725000381469727
1779999121031642400,2.208642333984375,344.4750061035156,-103.42500305175781,28.725000381469727
1779999121041714200,2.218714111328125,344.3812561035156,-103.42500305175781,28.743751525878906
1779999121052196900,2.22919677734375,344.1750183105469,-103.38750457763672,28.80000114440918
1779999121063082200,2.240082275390625,344.04376220703125,-103.3687515258789,28.837501525878906
1779999121074360800,2.25136083984375,344.15625,-103.35000610351562,28.837501525878906
1779999121086025500,2.263025390625,344.1187744140625,-103.31250762939453,28.837501525878906
1779999121098084600,2.275084716796875,344.1000061035156,-103.35000610351562,28.818750381469727
1779999121110514200,2.28751416015625,344.25,-103.35000610351562,28.781251907348633
1779999121123255800,2.300255859375,344.1937561035156,-103.3687515258789,28.80000114440918
1779999121136881400,2.31388134765625,343.96875,-103.3687515258789,28.818750381469727
1779999121155476200,2.332476318359375,343.8375244140625,-103.35000610351562,28.818750381469727
1779999121178983000,2.35598291015625,343.7062683105469,-103.33125305175781,28.818750381469727
1779999121202903800,2.37990380859375,343.7062683105469,-103.33125305175781,28.818750381469727
1779999121225415700,2.402415771484375,343.5,-103.31250762939453,28.80000114440918
1779999121246253600,2.423253662109375,343.0687561035156,-103.31250762939453,28.818750381469727
1779999121266663400,2.443663330078125,342.7875061035156,-103.31250762939453,28.818750381469727
1779999121286155800,2.46315576171875,342.6937561035156,-103.31250762939453,28.80000114440918
1779999121305940200,2.482940185546875,342.9000244140625,-103.33125305175781,28.781251907348633
1779999121325498600,2.50249853515625,343.03125,-103.31250762939453,28.762500762939453
1779999121345243400,2.522243408203125,343.0875244140625,-103.31250762939453,28.762500762939453
1779999121365432000,2.54243212890625,343.1437683105469,-103.31250762939453,28.743751525878906
1779999121385228000,2.56222802734375,343.10626220703125,-103.29375457763672,28.762500762939453
1779999121405125400,2.58212548828125,342.75,-103.31250762939453,28.781251907348633
1779999121425092000,2.602092041015625,342.7125244140625,-103.29375457763672,28.80000114440918
1779999121445094700,2.6220947265625,342.82501220703125,-103.29375457763672,28.818750381469727
1779999121465304800,2.642304931640625,342.9375,-103.31250762939453,28.781251907348633
1779999121485219800,2.6622197265625,343.1437683105469,-103.35000610351562,28.762500762939453
1779999121505203700,2.68220361328125,343.2750244140625,-103.35000610351562,28.743751525878906
1779999121525366500,2.702366455078125,343.3687744140625,-103.35000610351562,28.762500762939453
1779999121545250600,2.72225048828125,343.4250183105469,-103.3687515258789,28.80000114440918
1779999121565237000,2.742237060546875,343.7062683105469,-103.3687515258789,28.818750381469727
1779999121585170700,2.762170654296875,343.9312744140625,-103.38750457763672,28.818750381469727
1779999121605396200,2.782396240234375,344.04376220703125,-103.3687515258789,28.80000114440918
1779999121625470500,2.802470458984375,344.0812683105469,-103.38750457763672,28.781251907348633
1779999121645290800,2.822290771484375,343.8937683105469,-103.40625762939453,28.762500762939453
1779999121665642200,2.842642333984375,343.7062683105469,-103.40625762939453,28.781251907348633
1779999121685430300,2.86243017578125,343.6875,-103.40625762939453,28.80000114440918
1779999121705241900,2.882241943359375,343.7062683105469,-103.42500305175781,28.80000114440918
1779999121725338400,2.90233837890625,343.66876220703125,-103.42500305175781,28.781251907348633
1779999121745329000,2.922328857421875,343.6500244140625,-103.42500305175781,28.743751525878906
1779999121765466600,2.942466552734375,343.5,-103.42500305175781,28.725000381469727
1779999121785286700,2.96228662109375,343.3687744140625,-103.42500305175781,28.725000381469727
1779999121805447200,2.982447265625,343.0500183105469,-103.42500305175781,28.743751525878906
1779999121825275400,3.002275390625,342.9937744140625,-103.44375610351562,28.743751525878906
1779999121845377000,3.022376953125,343.0687561035156,-103.42500305175781,28.762500762939453
1779999121865495600,3.04249560546875,343.10626220703125,-103.42500305175781,28.743751525878906
1779999121885278000,3.06227783203125,343.21875,-103.42500305175781,28.743751525878906
1779999121905168000,3.08216796875,343.1437683105469,-103.44375610351562,28.70625114440918
1779999121925385000,3.102385009765625,343.0687561035156,-103.44375610351562,28.70625114440918
1779999121945704400,3.122704345703125,343.1625061035156,-103.44375610351562,28.70625114440918
1779999121965890800,3.142890869140625,343.125,-103.4625015258789,28.725000381469727
1779999121985751000,3.1627509765625,343.0875244140625,-103.4625015258789,28.725000381469727
1779999122005618200,3.1826181640625,343.21875,-103.44375610351562,28.725000381469727
1779999122025302300,3.20230224609375,343.3500061035156,-103.4625015258789,28.725000381469727
1779999122045131300,3.22213134765625,343.4437561035156,-103.4625015258789,28.743751525878906
1779999122065322000,3.242322021484375,343.7062683105469,-103.48125457763672,28.762500762939453
1779999122085194000,3.262194091796875,343.66876220703125,-103.48125457763672,28.781251907348633
1779999122105388500,3.282388427734375,343.78125,-103.50000762939453,28.80000114440918
1779999122125252400,3.30225244140625,343.8000183105469,-103.48125457763672,28.837501525878906
1779999122145172200,3.322172119140625,343.78125,-103.50000762939453,28.837501525878906
1779999122165602300,3.342602294921875,343.59375,-103.50000762939453,28.818750381469727
1779999122185378000,3.3623779296875,343.4437561035156,-103.48125457763672,28.837501525878906
1779999122205252900,3.3822529296875,343.5187683105469,-103.4625015258789,28.837501525878906
1779999122225160000,3.402159912109375,343.66876220703125,-103.4625015258789,28.856250762939453
1779999122245123800,3.422123779296875,343.59375,-103.42500305175781,28.875001907348633
1779999122265396500,3.442396484375,343.6125183105469,-103.42500305175781,28.875001907348633
1779999122285266700,3.4622666015625,343.5375061035156,-103.42500305175781,28.875001907348633
1779999122305457700,3.482457763671875,343.5375061035156,-103.40625762939453,28.875001907348633
1779999122325419800,3.502419677734375,343.5562744140625,-103.40625762939453,28.856250762939453
1779999122345266200,3.52226611328125,343.6125183105469,-103.38750457763672,28.856250762939453
1779999122365492500,3.542492431640625,343.5187683105469,-103.3687515258789,28.837501525878906
1779999122385301000,3.562301025390625,343.6312561035156,-103.3687515258789,28.818750381469727
1779999122405196300,3.5821962890625,343.5,-103.35000610351562,28.80000114440918
1779999122425126700,3.602126708984375,343.4437561035156,-103.35000610351562,28.781251907348633
1779999122445311500,3.6223115234375,343.5562744140625,-103.31250762939453,28.762500762939453
1779999122465446000,3.64244580078125,343.7062683105469,-103.33125305175781,28.762500762939453
1779999122485536000,3.662535888671875,343.7437744140625,-103.33125305175781,28.762500762939453
1779999122505687800,3.682687744140625,343.6125183105469,-103.35000610351562,28.781251907348633
1779999122525356500,3.7023564453125,343.40625,-103.35000610351562,28.781251907348633
1779999122545197600,3.722197509765625,343.29376220703125,-103.35000610351562,28.781251907348633
1779999122565379600,3.742379638671875,343.2375183105469,-103.3687515258789,28.762500762939453
1779999122585506000,3.762506103515625,343.3500061035156,-103.38750457763672,28.743751525878906
1779999122605305000,3.78230517578125,343.59375,-103.40625762939453,28.725000381469727
1779999122625387300,3.80238720703125,343.57501220703125,-103.42500305175781,28.725000381469727
1779999122645231600,3.822231689453125,343.4250183105469,-103.40625762939453,28.743751525878906
1779999122665344000,3.842343994140625,343.29376220703125,-103.40625762939453,28.743751525878906
1779999122685219300,3.86221923828125,343.1625061035156,-103.38750457763672,28.781251907348633
1779999122705286400,3.882286376953125,343.2375183105469,-103.40625762939453,28.80000114440918
1779999122725179100,3.90217919921875,343.3125,-103.42500305175781,28.80000114440918
1779999122745137700,3.9221376953125,343.4437561035156,-103.40625762939453,28.80000114440918
1779999122765322000,3.942322021484375,343.48126220703125,-103.40625762939453,28.80000114440918
1779999122785220600,3.962220703125,343.5,-103.40625762939453,28.818750381469727
1779999122805165800,3.982165771484375,343.4437561035156,-103.42500305175781,28.818750381469727
1779999122825336000,4.002336181640625,343.5187683105469,-103.42500305175781,28.856250762939453
1779999122845489200,4.0224892578125,343.5562744140625,-103.42500305175781,28.875001907348633
1779999122865778400,4.0427783203125,343.7437744140625,-103.42500305175781,28.856250762939453
1779999122885649700,4.062649658203125,343.9125061035156,-103.40625762939453,28.837501525878906
1779999122905624800,4.082624755859375,343.7437744140625,-103.38750457763672,28.818750381469727
1779999122925537500,4.10253759765625,343.7250061035156,-103.38750457763672,28.818750381469727
1779999122945286400,4.122286376953125,343.6875,-103.38750457763672,28.818750381469727
1779999122965130000,4.1421298828125,343.7250061035156,-103.38750457763672,28.818750381469727
1779999122985078800,4.162078857421875,343.78125,-103.40625762939453,28.818750381469727
1779999123005131000,4.182131103515625,343.76251220703125,-103.40625762939453,28.781251907348633
1779999123025168100,4.202168212890625,343.76251220703125,-103.38750457763672,28.762500762939453
1779999123045410300,4.222410400390625,343.4437561035156,-103.38750457763672,28.725000381469727
1779999123065550000,4.242550048828125,343.2750244140625,-103.38750457763672,28.743751525878906
1779999123085353000,4.26235302734375,343.1812744140625,-103.38750457763672,28.725000381469727
1779999123105216300,4.28221630859375,342.9937744140625,-103.35000610351562,28.725000381469727
1779999123125610200,4.3026103515625,342.82501220703125,-103.35000610351562,28.725000381469727
1779999123145602000,4.32260205078125,342.8062744140625,-103.33125305175781,28.687501907348633
1779999123165793500,4.34279345703125,342.7687683105469,-103.29375457763672,28.687501907348633
1779999123185432600,4.3624326171875,342.6000061035156,-103.31250762939453,28.687501907348633
1779999123205272600,4.3822724609375,342.54376220703125,-103.31250762939453,28.725000381469727
1779999123225488000,4.40248779296875,342.54376220703125,-103.31250762939453,28.762500762939453
1779999123245290200,4.422290283203125,342.54376220703125,-103.33125305175781,28.781251907348633
1779999123265624800,4.442624755859375,342.4875183105469,-103.35000610351562,28.781251907348633
1779999123285359600,4.462359619140625,342.4312744140625,-103.3687515258789,28.781251907348633
1779999123305467400,4.48246728515625,342.375,-103.3687515258789,28.762500762939453
1779999123325279000,4.502279052734375,342.2062683105469,-103.38750457763672,28.762500762939453
1779999123345192700,4.522192626953125,342.1875,-103.40625762939453,28.781251907348633
1779999123365441300,4.542441162109375,342.1875,-103.40625762939453,28.781251907348633
1779999123385542000,4.5625419921875,342.1125183105469,-103.42500305175781,28.80000114440918
1779999123405443600,4.582443603515625,342.3187561035156,-103.44375610351562,28.781251907348633
1779999123425257000,4.602257080078125,342.54376220703125,-103.44375610351562,28.781251907348633
1779999123445156400,4.62215625,342.6937561035156,-103.44375610351562,28.781251907348633
1779999123465313300,4.642313232421875,342.8812561035156,-103.4625015258789,28.781251907348633
1779999123485203500,4.662203369140625,342.8812561035156,-103.44375610351562,28.80000114440918
1779999123505146000,4.68214599609375,342.9000244140625,-103.44375610351562,28.80000114440918
1779999123525341700,4.702341796875,342.9562683105469,-103.48125457763672,28.781251907348633
1779999123545440800,4.722440673828125,343.01251220703125,-103.4625015258789,28.781251907348633
1779999123565736000,4.74273583984375,343.03125,-103.44375610351562,28.762500762939453
1779999123585424400,4.76242431640625,343.0500183105469,-103.42500305175781,28.762500762939453
1779999123605425400,4.78242529296875,343.125,-103.44375610351562,28.781251907348633
1779999123625224400,4.802224365234375,343.1812744140625,-103.42500305175781,28.818750381469727
1779999123645593900,4.82259375,343.2375183105469,-103.42500305175781,28.837501525878906
1779999123665345800,4.842345703125,343.4250183105469,-103.40625762939453,28.837501525878906
1779999123685453300,4.862453369140625,343.5375061035156,-103.38750457763672,28.818750381469727
1779999123705744000,4.882743896484375,343.5187683105469,-103.40625762939453,28.818750381469727
1779999123725462800,4.902462890625,343.5187683105469,-103.40625762939453,28.80000114440918
1779999123745246000,4.922245849609375,343.38751220703125,-103.42500305175781,28.80000114440918
1779999123765394200,4.942394287109375,343.0875244140625,-103.40625762939453,28.80000114440918
1779999123785326800,4.962326904296875,343.1437683105469,-103.40625762939453,28.80000114440918
1779999123805666000,4.982666015625,343.0500183105469,-103.42500305175781,28.80000114440918
1779999123825379000,5.002379150390625,342.91876220703125,-103.40625762939453,28.80000114440918
1779999123845227000,5.02222705078125,342.9375,-103.40625762939453,28.781251907348633
1779999123865400800,5.04240087890625,343.03125,-103.42500305175781,28.781251907348633
1779999123885244700,5.06224462890625,343.125,-103.42500305175781,28.781251907348633
1779999123905157400,5.082157470703125,343.0875244140625,-103.42500305175781,28.781251907348633
1779999123925122600,5.10212255859375,342.9750061035156,-103.44375610351562,28.743751525878906
1779999123945127000,5.122126953125,342.9375,-103.44375610351562,28.725000381469727
1779999123965547000,5.142547119140625,342.7687683105469,-103.48125457763672,28.725000381469727
1779999123985347800,5.162347900390625,342.82501220703125,-103.4625015258789,28.743751525878906
1779999124005218600,5.182218505859375,342.91876220703125,-103.4625015258789,28.725000381469727
1779999124025416700,5.202416748046875,342.9375,-103.44375610351562,28.70625114440918
1779999124045277000,5.22227685546875,342.9937744140625,-103.44375610351562,28.743751525878906
1779999124065446700,5.24244677734375,343.10626220703125,-103.44375610351562,28.743751525878906
1779999124085551400,5.26255126953125,343.1437683105469,-103.44375610351562,28.762500762939453
1779999124105627600,5.282627685546875,343.2375183105469,-103.40625762939453,28.781251907348633
1779999124125564700,5.302564697265625,343.38751220703125,-103.42500305175781,28.781251907348633
1779999124145305000,5.32230517578125,343.5187683105469,-103.40625762939453,28.781251907348633
1779999124165272000,5.34227197265625,343.4625244140625,-103.40625762939453,28.781251907348633
1779999124185415200,5.362415283203125,343.3312683105469,-103.38750457763672,28.80000114440918
1779999124205527800,5.38252783203125,343.29376220703125,-103.3687515258789,28.818750381469727
1779999124225510100,5.40251025390625,343.40625,-103.3687515258789,28.818750381469727
1779999124245290200,5.422290283203125,343.3687744140625,-103.35000610351562,28.837501525878906
1779999124265425200,5.442425048828125,343.48126220703125,-103.31250762939453,28.837501525878906
1779999124285246000,5.462245849609375,343.4625244140625,-103.31250762939453,28.818750381469727
1779999124305159200,5.4821591796875,343.38751220703125,-103.31250762939453,28.818750381469727
1779999124325318700,5.502318603515625,343.20001220703125,-103.31250762939453,28.856250762939453
1779999124345576400,5.522576416015625,343.0500183105469,-103.29375457763672,28.875001907348633
1779999124365610000,5.54260986328125,343.1437683105469,-103.31250762939453,28.856250762939453
1779999124385344500,5.562344482421875,343.21875,-103.35000610351562,28.837501525878906
1779999124405454800,5.582454833984375,343.3312683105469,-103.35000610351562,28.818750381469727
1779999124425268000,5.60226806640625,343.29376220703125,-103.33125305175781,28.818750381469727
1779999124445164000,5.6221640625,343.10626220703125,-103.35000610351562,28.818750381469727
1779999124465122800,5.642122802734375,343.0875244140625,-103.35000610351562,28.818750381469727
1779999124485473000,5.66247314453125,343.03125,-103.35000610351562,28.818750381469727
1779999124505572400,5.682572265625,343.0875244140625,-103.35000610351562,28.80000114440918
1779999124525623000,5.702623046875,343.0687561035156,-103.3687515258789,28.781251907348633
1779999124545462000,5.7224619140625,343.29376220703125,-103.3687515258789,28.781251907348633
1779999124565718300,5.74271826171875,343.2375183105469,-103.38750457763672,28.781251907348633
1779999124585393700,5.7623935546875,343.29376220703125,-103.38750457763672,28.781251907348633
1779999124605197300,5.782197265625,343.3500061035156,-103.38750457763672,28.781251907348633
1779999124625105200,5.802105224609375,343.4250183105469,-103.38750457763672,28.762500762939453
1779999124645081900,5.822081787109375,343.57501220703125,-103.38750457763672,28.743751525878906
1779999124665132300,5.84213232421875,343.4437561035156,-103.3687515258789,28.743751525878906
1779999124685124900,5.862124755859375,343.4437561035156,-103.35000610351562,28.743751525878906
1779999124705130200,5.882130126953125,343.3500061035156,-103.35000610351562,28.725000381469727
1779999124725340000,5.90233984375,343.29376220703125,-103.35000610351562,28.725000381469727
1779999124745247700,5.922247802734375,343.2562561035156,-103.33125305175781,28.762500762939453
1779999124765180700,5.9421806640625,343.2375183105469,-103.31250762939453,28.762500762939453
1779999124785534000,5.962533935546875,343.3500061035156,-103.31250762939453,28.743751525878906
1779999124805618000,5.982617919921875,343.5,-103.31250762939453,28.743751525878906
1779999124825573600,6.00257373046875,343.57501220703125,-103.29375457763672,28.762500762939453
1779999124845317600,6.022317626953125,343.40625,-103.29375457763672,28.762500762939453
1779999124865205200,6.042205322265625,343.48126220703125,-103.29375457763672,28.80000114440918
1779999124885384400,6.062384521484375,343.4250183105469,-103.2750015258789,28.818750381469727
1779999124905819100,6.082819091796875,343.4625244140625,-103.25625610351562,28.837501525878906
1779999124925693400,6.102693359375,343.5,-103.25625610351562,28.856250762939453
1779999124945376500,6.12237646484375,343.48126220703125,-103.23750305175781,28.856250762939453
1779999124965190100,6.142190185546875,343.5562744140625,-103.2750015258789,28.837501525878906
1779999124985100500,6.1621005859375,343.57501220703125,-103.2750015258789,28.837501525878906
1779999125005077800,6.182077880859375,343.5,-103.25625610351562,28.837501525878906
1779999125025292000,6.2022919921875,343.5187683105469,-103.25625610351562,28.856250762939453
1779999125045407700,6.22240771484375,343.4437561035156,-103.25625610351562,28.837501525878906
1779999125065257700,6.2422578125,343.5187683105469,-103.2750015258789,28.818750381469727
1779999125085173000,6.262173095703125,343.59375,-103.31250762939453,28.818750381469727
1779999125105356300,6.282356201171875,343.5375061035156,-103.31250762939453,28.80000114440918
1779999125125234000,6.30223388671875,343.5,-103.33125305175781,28.80000114440918
1779999125145373000,6.322373046875,343.5,-103.35000610351562,28.781251907348633
1779999125165506600,6.342506591796875,343.4250183105469,-103.35000610351562,28.781251907348633
1779999125185319400,6.3623193359375,343.48126220703125,-103.35000610351562,28.781251907348633
1779999125205460500,6.38246044921875,343.40625,-103.3687515258789,28.743751525878906
1779999125225478000,6.402477783203125,343.38751220703125,-103.38750457763672,28.725000381469727
1779999125245544200,6.422544189453125,343.40625,-103.38750457763672,28.725000381469727
1779999125265513200,6.44251318359375,343.4437561035156,-103.40625762939453,28.743751525878906
1779999125285278200,6.4622783203125,343.125,-103.40625762939453,28.743751525878906
1779999125305154600,6.482154541015625,343.1812744140625,-103.40625762939453,28.762500762939453
1779999125325098000,6.502097900390625,343.10626220703125,-103.40625762939453,28.725000381469727
1779999125345098800,6.5220986328125,343.10626220703125,-103.40625762939453,28.743751525878906
1779999125365345000,6.542344970703125,343.0687561035156,-103.38750457763672,28.743751525878906
1779999125385235700,6.562235595703125,342.9562683105469,-103.38750457763672,28.725000381469727
1779999125405372200,6.5823720703125,342.9000244140625,-103.38750457763672,28.725000381469727
1779999125425443800,6.60244384765625,342.9750061035156,-103.3687515258789,28.725000381469727
1779999125445259500,6.622259521484375,342.9937744140625,-103.35000610351562,28.743751525878906
1779999125465156600,6.642156494140625,342.9375,-103.35000610351562,28.725000381469727
1779999125485491500,6.662491455078125,342.9000244140625,-103.35000610351562,28.725000381469727
1779999125505310500,6.682310546875,342.84375,-103.33125305175781,28.743751525878906
1779999125525194200,6.7021943359375,342.8062744140625,-103.31250762939453,28.743751525878906
1779999125545323500,6.722323486328125,342.7875061035156,-103.31250762939453,28.743751525878906
1779999125565219600,6.742219482421875,342.73126220703125,-103.29375457763672,28.781251907348633
1779999125585163000,6.7621630859375,342.84375,-103.29375457763672,28.781251907348633
1779999125605394400,6.78239453125,342.8062744140625,-103.31250762939453,28.80000114440918
1779999125625343500,6.802343505859375,342.8062744140625,-103.31250762939453,28.818750381469727
1779999125645492200,6.8224921875,342.8625183105469,-103.31250762939453,28.818750381469727
1779999125665769500,6.84276953125,342.82501220703125,-103.31250762939453,28.818750381469727
1779999125685629700,6.862629638671875,342.7687683105469,-103.2750015258789,28.818750381469727
1779999125705330000,6.882329833984375,342.6937561035156,-103.25625610351562,28.837501525878906
1779999125725158100,6.902158203125,342.63751220703125,-103.2750015258789,28.837501525878906
1779999125745164000,6.9221640625,342.63751220703125,-103.29375457763672,28.818750381469727
1779999125765117400,6.942117431640625,342.6750183105469,-103.29375457763672,28.837501525878906
1779999125785106700,6.962106689453125,342.6750183105469,-103.33125305175781,28.837501525878906
1779999125805234000,6.98223388671875,342.7687683105469,-103.35000610351562,28.818750381469727
1779999125825188000,7.00218798828125,342.6937561035156,-103.3687515258789,28.837501525878906
1779999125845159700,7.02215966796875,342.6187744140625,-103.38750457763672,28.837501525878906
1779999125865411600,7.04241162109375,342.65625,-103.38750457763672,28.837501525878906
1779999125885293600,7.06229345703125,342.7687683105469,-103.38750457763672,28.837501525878906
1779999125905214000,7.0822138671875,342.7125244140625,-103.38750457763672,28.818750381469727
1779999125925364000,7.102364013671875,342.6937561035156,-103.40625762939453,28.818750381469727
1779999125945250300,7.122250244140625,342.7125244140625,-103.40625762939453,28.80000114440918
1779999125965395000,7.14239501953125,342.75,-103.42500305175781,28.837501525878906
1779999125985243600,7.16224365234375,342.8812561035156,-103.44375610351562,28.837501525878906
1779999126005259300,7.18225927734375,342.9562683105469,-103.44375610351562,28.837501525878906
1779999126025379600,7.202379638671875,342.9375,-103.42500305175781,28.837501525878906
1779999126045233700,7.222233642578125,343.125,-103.42500305175781,28.856250762939453
1779999126065357000,7.242357177734375,343.1625061035156,-103.42500305175781,28.837501525878906
1779999126085225000,7.262224853515625,343.03125,-103.38750457763672,28.837501525878906
1779999126105146600,7.282146728515625,342.9375,-103.35000610351562,28.837501525878906
1779999126125337900,7.302337890625,343.0687561035156,-103.35000610351562,28.837501525878906
1779999126145225500,7.3222255859375,343.125,-103.35000610351562,28.837501525878906
1779999126165629400,7.34262939453125,343.0687561035156,-103.33125305175781,28.818750381469727
1779999126185387500,7.362387451171875,343.0875244140625,-103.33125305175781,28.80000114440918
1779999126205490000,7.382489990234375,343.2750244140625,-103.35000610351562,28.781251907348633
1779999126225282000,7.402281982421875,343.38751220703125,-103.35000610351562,28.781251907348633
1779999126245483800,7.42248388671875,343.4437561035156,-103.35000610351562,28.762500762939453
1779999126265557200,7.44255712890625,343.3687744140625,-103.35000610351562,28.762500762939453
1779999126285584100,7.462584228515625,343.1812744140625,-103.33125305175781,28.781251907348633
1779999126305602800,7.482602783203125,343.20001220703125,-103.35000610351562,28.781251907348633
1779999126325337300,7.50233740234375,343.1812744140625,-103.35000610351562,28.762500762939453
1779999126345192400,7.5221923828125,343.0875244140625,-103.35000610351562,28.743751525878906
1779999126365383700,7.5423837890625,343.03125,-103.35000610351562,28.743751525878906
1779999126385239300,7.5622392578125,343.01251220703125,-103.35000610351562,28.743751525878906
1779999126405169200,7.582169189453125,343.0500183105469,-103.38750457763672,28.762500762939453
1779999126425131500,7.602131591796875,343.01251220703125,-103.40625762939453,28.762500762939453
1779999126445123300,7.622123291015625,342.9937744140625,-103.40625762939453,28.762500762939453
1779999126465118700,7.64211865234375,343.03125,-103.38750457763672,28.743751525878906
1779999126485125600,7.662125732421875,342.91876220703125,-103.3687515258789,28.762500762939453
1779999126505151200,7.682151123046875,342.7875061035156,-103.3687515258789,28.762500762939453
1779999126525406500,7.702406494140625,342.6937561035156,-103.3687515258789,28.781251907348633
1779999126545284600,7.72228466796875,342.6750183105469,-103.33125305175781,28.80000114440918
1779999126565515500,7.742515625,342.8062744140625,-103.33125305175781,28.80000114440918
1779999126585330400,7.762330322265625,342.9375,-103.33125305175781,28.781251907348633
1779999126605203700,7.78220361328125,342.9562683105469,-103.35000610351562,28.781251907348633
1779999126625341200,7.802341064453125,342.9937744140625,-103.3687515258789,28.781251907348633
1779999126645218800,7.82221875,342.9750061035156,-103.35000610351562,28.80000114440918
1779999126665154000,7.842154052734375,343.0500183105469,-103.3687515258789,28.818750381469727
1779999126685375000,7.862375,343.2375183105469,-103.3687515258789,28.818750381469727
1779999126705280000,7.882280029296875,343.2562561035156,-103.35000610351562,28.837501525878906
1779999126725398500,7.9023984375,343.2562561035156,-103.35000610351562,28.837501525878906
1779999126745456000,7.9224560546875,343.2562561035156,-103.33125305175781,28.818750381469727
1779999126765426700,7.9424267578125,343.3687744140625,-103.3687515258789,28.818750381469727
1779999126785248500,7.96224853515625,343.6125183105469,-103.3687515258789,28.837501525878906
1779999126805520600,7.982520751953125,343.6125183105469,-103.3687515258789,28.837501525878906
1779999126825517300,8.002517333984375,343.6312561035156,-103.3687515258789,28.837501525878906
1779999126845291500,8.02229150390625,343.6125183105469,-103.3687515258789,28.837501525878906
1779999126865432000,8.04243212890625,343.59375,-103.3687515258789,28.856250762939453
1779999126885417000,8.0624169921875,343.5375061035156,-103.3687515258789,28.856250762939453
1779999126905527800,8.08252783203125,343.59375,-103.35000610351562,28.856250762939453
1779999126925286400,8.102286376953124,343.57501220703125,-103.35000610351562,28.837501525878906
1779999126945599000,8.122598876953125,343.5,-103.35000610351562,28.837501525878906
1779999126965600800,8.142600830078125,343.5,-103.35000610351562,28.837501525878906
1779999126985815000,8.16281494140625,343.3687744140625,-103.33125305175781,28.837501525878906
1779999127005903600,8.182903564453126,343.20001220703125,-103.35000610351562,28.837501525878906
1779999127025476600,8.2024765625,343.2750244140625,-103.35000610351562,28.818750381469727
1779999127045677300,8.22267724609375,343.4437561035156,-103.3687515258789,28.837501525878906
1779999127065602300,8.242602294921875,343.4437561035156,-103.3687515258789,28.837501525878906
1779999127085694000,8.26269384765625,343.2562561035156,-103.3687515258789,28.837501525878906
1779999127105825000,8.282824951171875,343.2562561035156,-103.38750457763672,28.856250762939453
1779999127125622500,8.30262255859375,343.4250183105469,-103.40625762939453,28.837501525878906
1779999127145470700,8.322470703125,343.6312561035156,-103.40625762939453,28.818750381469727
1779999127165208300,8.342208251953124,343.6875,-103.40625762939453,28.80000114440918
1779999127185098200,8.36209814453125,343.78125,-103.40625762939453,28.781251907348633
1779999127205098000,8.382097900390624,343.78125,-103.42500305175781,28.80000114440918
1779999127225592800,8.4025927734375,343.7062683105469,-103.42500305175781,28.80000114440918
1779999127245639400,8.422639404296875,343.66876220703125,-103.42500305175781,28.80000114440918
1779999127265772500,8.4427724609375,343.6500244140625,-103.42500305175781,28.781251907348633
1779999127285687000,8.46268701171875,343.85626220703125,-103.42500305175781,28.781251907348633
1779999127305831400,8.48283154296875,343.9125061035156,-103.42500305175781,28.781251907348633
1779999127325627100,8.502627197265625,343.8187561035156,-103.40625762939453,28.781251907348633
1779999127345304600,8.5223046875,343.6312561035156,-103.40625762939453,28.781251907348633
1779999127365132500,8.542132568359374,343.5562744140625,-103.40625762939453,28.781251907348633
1779999127385062000,8.562061767578125,343.48126220703125,-103.40625762939453,28.781251907348633
1779999127405065700,8.582065673828126,343.3687744140625,-103.40625762939453,28.781251907348633
1779999127425083600,8.602083740234375,343.1625061035156,-103.40625762939453,28.781251907348633
1779999127445108500,8.6221083984375,343.0687561035156,-103.38750457763672,28.80000114440918
1779999127465132800,8.6421328125,343.03125,-103.38750457763672,28.781251907348633
1779999127485483800,8.66248388671875,343.01251220703125,-103.38750457763672,28.80000114440918
1779999127505805000,8.68280517578125,342.9750061035156,-103.40625762939453,28.80000114440918
1779999127525705500,8.70270556640625,342.91876220703125,-103.40625762939453,28.818750381469727
1779999127545387800,8.7223876953125,342.9000244140625,-103.40625762939453,28.818750381469727
1779999127565492000,8.742491943359376,342.8625183105469,-103.42500305175781,28.818750381469727
1779999127585543700,8.762543701171875,342.8062744140625,-103.40625762939453,28.80000114440918
1779999127605754600,8.782754638671875,342.8625183105469,-103.38750457763672,28.781251907348633
1779999127625399000,8.80239892578125,342.84375,-103.38750457763672,28.80000114440918
1779999127645593900,8.82259375,342.82501220703125,-103.38750457763672,28.80000114440918
1779999127665307600,8.8423076171875,342.82501220703125,-103.3687515258789,28.818750381469727
1779999127685163000,8.8621630859375,342.8625183105469,-103.35000610351562,28.818750381469727
1779999127705360400,8.8823603515625,342.9562683105469,-103.3687515258789,28.818750381469727
1779999127725224000,8.902223876953125,343.0500183105469,-103.35000610351562,28.818750381469727
1779999127745292300,8.922292236328126,343.03125,-103.38750457763672,28.80000114440918
1779999127765463800,8.9424638671875,343.01251220703125,-103.38750457763672,28.781251907348633
1779999127785274000,8.962274169921875,343.01251220703125,-103.3687515258789,28.781251907348633
1779999127805185500,8.982185546875,342.82501220703125,-103.3687515258789,28.781251907348633
1779999127825134600,9.002134521484376,342.7875061035156,-103.3687515258789,28.762500762939453
1779999127845118000,9.022117919921875,342.84375,-103.3687515258789,28.762500762939453
1779999127865121800,9.042121826171876,342.8062744140625,-103.38750457763672,28.743751525878906
1779999127885123000,9.062123046875,342.84375,-103.40625762939453,28.743751525878906
1779999127905358600,9.082358642578125,342.9562683105469,-103.40625762939453,28.781251907348633
1779999127925445000,9.102445068359375,343.125,-103.42500305175781,28.781251907348633
1779999127945283600,9.12228369140625,343.1437683105469,-103.40625762939453,28.80000114440918
1779999127965391000,9.14239111328125,343.0875244140625,-103.40625762939453,28.762500762939453
1779999127985236700,9.16223681640625,343.1437683105469,-103.42500305175781,28.762500762939453
1779999128005153500,9.182153564453126,343.2375183105469,-103.40625762939453,28.762500762939453
1779999128025133300,9.20213330078125,343.2750244140625,-103.40625762939453,28.762500762939453
1779999128045116400,9.222116455078124,343.3500061035156,-103.38750457763672,28.781251907348633
1779999128065425400,9.24242529296875,343.21875,-103.40625762939453,28.781251907348633
1779999128085547300,9.26254736328125,343.0500183105469,-103.40625762939453,28.781251907348633
1779999128105335000,9.2823349609375,343.0687561035156,-103.40625762939453,28.762500762939453
1779999128125202000,9.302201904296876,343.125,-103.38750457763672,28.762500762939453
1779999128145137400,9.322137451171875,343.2750244140625,-103.38750457763672,28.743751525878906
1779999128165116700,9.34211669921875,343.29376220703125,-103.38750457763672,28.743751525878906
1779999128185120800,9.362120849609376,343.1625061035156,-103.38750457763672,28.725000381469727
1779999128205124400,9.382124267578124,343.125,-103.3687515258789,28.725000381469727
1779999128225136000,9.40213623046875,343.0875244140625,-103.38750457763672,28.687501907348633
1779999128245337300,9.42233740234375,343.21875,-103.42500305175781,28.650001525878906
1779999128265549000,9.442549072265624,343.29376220703125,-103.44375610351562,28.650001525878906
1779999128285352700,9.462352783203125,343.3125,-103.44375610351562,28.631250381469727
1779999128305225200,9.48222509765625,343.2750244140625,-103.4625015258789,28.61250114440918
1779999128325149200,9.502149169921875,343.2562561035156,-103.44375610351562,28.61250114440918
1779999128345239600,9.522239501953125,343.20001220703125,-103.44375610351562,28.631250381469727
1779999128365184500,9.5421845703125,343.4437561035156,-103.42500305175781,28.668750762939453
1779999128385146600,9.562146728515625,343.59375,-103.42500305175781,28.668750762939453
1779999128405305300,9.582305419921875,343.9312744140625,-103.42500305175781,28.668750762939453
1779999128425196500,9.602196533203125,344.1750183105469,-103.42500305175781,28.668750762939453
1779999128445418500,9.62241845703125,344.04376220703125,-103.40625762939453,28.668750762939453
1779999128465547300,9.64254736328125,344.0812683105469,-103.38750457763672,28.70625114440918
1779999128485311200,9.662311279296874,344.1187744140625,-103.38750457763672,28.725000381469727
1779999128505197600,9.682197509765626,344.0625,-103.40625762939453,28.725000381469727
1779999128525334300,9.702334228515625,344.04376220703125,-103.38750457763672,28.743751525878906
1779999128545235700,9.722235595703125,343.9875183105469,-103.3687515258789,28.762500762939453
1779999128565362700,9.74236279296875,343.96875,-103.35000610351562,28.781251907348633
1779999128585232400,9.762232421875,343.96875,-103.35000610351562,28.781251907348633
1779999128605281300,9.78228125,343.875,-103.35000610351562,28.80000114440918
1779999128625384000,9.802384033203126,343.7250061035156,-103.3687515258789,28.80000114440918
1779999128645237000,9.822237060546875,343.6875,-103.3687515258789,28.781251907348633
1779999128665369300,9.842369384765625,343.6312561035156,-103.3687515258789,28.781251907348633
1779999128685233700,9.862233642578126,343.7250061035156,-103.3687515258789,28.743751525878906
1779999128705153300,9.8821533203125,343.5375061035156,-103.3687515258789,28.743751525878906
1779999128725350000,9.902349853515625,343.38751220703125,-103.38750457763672,28.743751525878906
1779999128745366500,9.922366455078125,343.5375061035156,-103.38750457763672,28.762500762939453
1779999128765234700,9.942234619140624,343.5562744140625,-103.38750457763672,28.743751525878906
1779999128785570800,9.96257080078125,343.57501220703125,-103.38750457763672,28.743751525878906
1779999128805342700,9.9823427734375,343.5562744140625,-103.3687515258789,28.725000381469727
1779999128825201200,10.002201171875,343.57501220703125,-103.3687515258789,28.725000381469727
1779999128845394700,10.022394775390625,343.6500244140625,-103.35000610351562,28.725000381469727
1779999128865522200,10.042522216796876,343.57501220703125,-103.33125305175781,28.725000381469727
1779999128885580300,10.062580322265624,343.59375,-103.31250762939453,28.743751525878906
1779999128905602800,10.082602783203125,343.6875,-103.31250762939453,28.743751525878906
1779999128925344500,10.102344482421875,343.78125,-103.31250762939453,28.743751525878906
1779999128945203700,10.12220361328125,343.8375244140625,-103.33125305175781,28.743751525878906
1779999128965131800,10.1421318359375,343.8000183105469,-103.33125305175781,28.743751525878906
1779999128985101800,10.162101806640624,343.8187561035156,-103.33125305175781,28.781251907348633
1779999129005366300,10.1823662109375,343.875,-103.33125305175781,28.781251907348633
1779999129025266000,10.202265869140625,343.8187561035156,-103.33125305175781,28.781251907348633
1779999129045214200,10.222214111328125,343.875,-103.35000610351562,28.781251907348633
1779999129065427000,10.242427001953125,343.7062683105469,-103.33125305175781,28.80000114440918
1779999129085290800,10.262290771484375,343.59375,-103.35000610351562,28.80000114440918
1779999129105255000,10.2822548828125,343.6125183105469,-103.35000610351562,28.80000114440918
1779999129125176800,10.3021767578125,343.5375061035156,-103.35000610351562,28.80000114440918
1779999129145140700,10.322140625,343.38751220703125,-103.3687515258789,28.781251907348633
1779999129165563000,10.34256298828125,343.38751220703125,-103.3687515258789,28.762500762939453
1779999129185365200,10.362365234375,343.3500061035156,-103.3687515258789,28.762500762939453
1779999129205226800,10.382226806640626,343.3125,-103.38750457763672,28.743751525878906
1779999129225144300,10.402144287109374,343.3312683105469,-103.38750457763672,28.743751525878906
1779999129245398500,10.4223984375,343.3312683105469,-103.40625762939453,28.725000381469727
1779999129265533200,10.442533203125,343.2750244140625,-103.38750457763672,28.725000381469727
1779999129285334300,10.462334228515624,343.125,-103.38750457763672,28.725000381469727
1779999129305345300,10.48234521484375,343.10626220703125,-103.40625762939453,28.725000381469727
1779999129325410000,10.50241015625,342.9937744140625,-103.40625762939453,28.725000381469727
1779999129345472800,10.52247265625,342.75,-103.40625762939453,28.725000381469727
1779999129365476000,10.54247607421875,342.7687683105469,-103.42500305175781,28.743751525878906
1779999129385262300,10.562262451171875,342.9937744140625,-103.42500305175781,28.743751525878906
1779999129405174800,10.5821748046875,343.1437683105469,-103.42500305175781,28.743751525878906
1779999129425333500,10.60233349609375,343.20001220703125,-103.44375610351562,28.743751525878906
1779999129445213400,10.62221337890625,343.29376220703125,-103.42500305175781,28.762500762939453
1779999129465153800,10.64215380859375,343.21875,-103.44375610351562,28.762500762939453
1779999129485218800,10.66221875,343.21875,-103.42500305175781,28.762500762939453
1779999129505172500,10.68217236328125,343.0687561035156,-103.40625762939453,28.80000114440918
1779999129525150700,10.702150634765625,343.10626220703125,-103.38750457763672,28.80000114440918
1779999129545638400,10.722638427734376,343.0875244140625,-103.38750457763672,28.80000114440918
1779999129565403400,10.7424033203125,343.0875244140625,-103.40625762939453,28.781251907348633
1779999129585511400,10.762511474609376,343.0500183105469,-103.38750457763672,28.80000114440918
1779999129605768200,10.782768310546874,343.0687561035156,-103.3687515258789,28.80000114440918
1779999129625480200,10.802480224609376,343.1625061035156,-103.3687515258789,28.80000114440918
1779999129645250000,10.82225,343.1812744140625,-103.35000610351562,28.781251907348633
1779999129665524500,10.8425244140625,343.2562561035156,-103.35000610351562,28.762500762939453
1779999129685304300,10.86230419921875,343.1625061035156,-103.35000610351562,28.743751525878906
1779999129705179000,10.882178955078125,343.01251220703125,-103.35000610351562,28.743751525878906
1779999129725114000,10.902114013671875,343.01251220703125,-103.33125305175781,28.781251907348633
1779999129745127700,10.922127685546876,342.9375,-103.33125305175781,28.762500762939453
1779999129765120000,10.9421201171875,342.9937744140625,-103.31250762939453,28.781251907348633
1779999129785378300,10.96237841796875,342.91876220703125,-103.33125305175781,28.781251907348633
1779999129805480400,10.98248046875,343.01251220703125,-103.33125305175781,28.762500762939453
1779999129825300500,11.002300537109376,342.9750061035156,-103.35000610351562,28.762500762939453
1779999129845393000,11.022392822265624,342.9375,-103.35000610351562,28.781251907348633
1779999129865661000,11.042660888671875,343.03125,-103.35000610351562,28.781251907348633
1779999129885372400,11.062372314453125,343.0875244140625,-103.3687515258789,28.762500762939453
1779999129905211100,11.082211181640625,343.01251220703125,-103.3687515258789,28.781251907348633
1779999129925329200,11.1023291015625,343.10626220703125,-103.35000610351562,28.80000114440918
1779999129945211600,11.122211669921874,343.3312683105469,-103.35000610351562,28.781251907348633
1779999129965146600,11.142146728515625,343.4437561035156,-103.35000610351562,28.781251907348633
1779999129985380400,11.16238037109375,343.48126220703125,-103.33125305175781,28.80000114440918
1779999130005558300,11.182558349609375,343.5375061035156,-103.31250762939453,28.80000114440918
1779999130025354800,11.202354736328125,343.3500061035156,-103.31250762939453,28.781251907348633
1779999130045215700,11.2222158203125,343.2562561035156,-103.31250762939453,28.781251907348633
1779999130065251600,11.24225146484375,343.2562561035156,-103.31250762939453,28.762500762939453
1779999130085173000,11.262173095703124,343.3125,-103.33125305175781,28.743751525878906
1779999130105128700,11.282128662109375,343.4250183105469,-103.33125305175781,28.743751525878906
1779999130125318400,11.302318359375,343.4437561035156,-103.31250762939453,28.743751525878906
1779999130145222700,11.32222265625,343.48126220703125,-103.29375457763672,28.743751525878906
1779999130165361400,11.342361328125,343.3312683105469,-103.29375457763672,28.743751525878906
1779999130185433900,11.362433837890626,343.3125,-103.29375457763672,28.762500762939453
1779999130205262000,11.382261962890626,343.5187683105469,-103.29375457763672,28.762500762939453
1779999130225157000,11.4021572265625,343.6125183105469,-103.33125305175781,28.762500762939453
1779999130245476400,11.422476318359376,343.6125183105469,-103.35000610351562,28.781251907348633
1779999130265568800,11.44256884765625,343.59375,-103.35000610351562,28.80000114440918
1779999130285339100,11.462339111328125,343.5562744140625,-103.35000610351562,28.781251907348633
1779999130305466600,11.482466552734374,343.3500061035156,-103.3687515258789,28.80000114440918
1779999130325288400,11.502288330078125,343.3687744140625,-103.38750457763672,28.818750381469727
1779999130345184500,11.5221845703125,343.3125,-103.38750457763672,28.837501525878906
1779999130365395000,11.54239501953125,343.20001220703125,-103.3687515258789,28.856250762939453
1779999130385608000,11.56260791015625,343.1812744140625,-103.3687515258789,28.89375114440918
1779999130405835300,11.582835205078124,343.20001220703125,-103.3687515258789,28.89375114440918
1779999130425671200,11.602671142578124,343.20001220703125,-103.3687515258789,28.875001907348633
1779999130445608000,11.62260791015625,343.1812744140625,-103.40625762939453,28.89375114440918
1779999130465316600,11.642316650390624,343.21875,-103.38750457763672,28.875001907348633
1779999130485152300,11.66215234375,343.2375183105469,-103.3687515258789,28.875001907348633
1779999130505359000,11.682359130859375,343.1625061035156,-103.3687515258789,28.856250762939453
1779999130525216300,11.70221630859375,343.01251220703125,-103.3687515258789,28.837501525878906
1779999130545147100,11.722147216796875,342.8062744140625,-103.35000610351562,28.837501525878906
1779999130565332200,11.742332275390625,342.75,-103.35000610351562,28.818750381469727
1779999130585222400,11.762222412109375,342.7687683105469,-103.3687515258789,28.818750381469727
1779999130605153500,11.782153564453125,342.9750061035156,-103.3687515258789,28.818750381469727
1779999130625181200,11.80218115234375,343.0875244140625,-103.35000610351562,28.80000114440918
1779999130645153300,11.8221533203125,343.29376220703125,-103.3687515258789,28.781251907348633
1779999130665600300,11.842600341796874,343.5187683105469,-103.38750457763672,28.743751525878906
1779999130685632300,11.86263232421875,343.66876220703125,-103.38750457763672,28.725000381469727
1779999130705640200,11.88264013671875,343.40625,-103.38750457763672,28.725000381469727
1779999130725559000,11.90255908203125,343.3500061035156,-103.3687515258789,28.743751525878906
1779999130745434400,11.922434326171874,343.40625,-103.35000610351562,28.762500762939453
1779999130765259300,11.94225927734375,343.5187683105469,-103.35000610351562,28.781251907348633
1779999130785133800,11.9621337890625,343.59375,-103.3687515258789,28.781251907348633
1779999130805563000,11.98256298828125,343.5375061035156,-103.3687515258789,28.781251907348633
1779999130825496800,12.002496826171875,343.5187683105469,-103.3687515258789,28.80000114440918
1779999130845279700,12.02227978515625,343.5562744140625,-103.3687515258789,28.80000114440918
1779999130865516500,12.0425166015625,343.5375061035156,-103.35000610351562,28.818750381469727
1779999130885303800,12.0623037109375,343.5375061035156,-103.35000610351562,28.818750381469727
1779999130905190000,12.08218994140625,343.4437561035156,-103.35000610351562,28.80000114440918
1779999130925117700,12.10211767578125,343.48126220703125,-103.3687515258789,28.80000114440918
1779999130945310200,12.122310302734375,343.5187683105469,-103.3687515258789,28.818750381469727
1779999130965207800,12.142207763671875,343.57501220703125,-103.3687515258789,28.837501525878906
1779999130985153500,12.162153564453124,343.5187683105469,-103.35000610351562,28.856250762939453
1779999131005552400,12.182552490234375,343.5,-103.35000610351562,28.837501525878906
1779999131025355000,12.20235498046875,343.38751220703125,-103.3687515258789,28.818750381469727
1779999131045420300,12.222420166015626,343.2750244140625,-103.38750457763672,28.80000114440918
1779999131065527300,12.24252734375,343.2562561035156,-103.38750457763672,28.80000114440918
1779999131085311500,12.2623115234375,343.10626220703125,-103.3687515258789,28.80000114440918
1779999131105177900,12.282177734375,343.125,-103.3687515258789,28.818750381469727
1779999131125116400,12.302116455078124,343.1625061035156,-103.35000610351562,28.837501525878906
1779999131145211000,12.3222109375,343.2375183105469,-103.35000610351562,28.818750381469727
1779999131165358800,12.34235888671875,343.1812744140625,-103.3687515258789,28.80000114440918
1779999131185243400,12.362243408203126,343.21875,-103.3687515258789,28.818750381469727
1779999131205415700,12.382415771484375,343.2750244140625,-103.3687515258789,28.818750381469727
1779999131225461000,12.4024609375,343.0687561035156,-103.35000610351562,28.80000114440918
1779999131245272800,12.42227294921875,342.9000244140625,-103.35000610351562,28.80000114440918
1779999131265467400,12.44246728515625,342.84375,-103.33125305175781,28.80000114440918
1779999131285268700,12.462268798828125,342.73126220703125,-103.35000610351562,28.781251907348633
1779999131305365200,12.482365234375,342.84375,-103.35000610351562,28.781251907348633
1779999131325414400,12.502414306640626,342.9750061035156,-103.33125305175781,28.781251907348633
1779999131345246700,12.522246826171875,343.01251220703125,-103.31250762939453,28.781251907348633
1779999131365151500,12.5421513671875,342.9937744140625,-103.31250762939453,28.762500762939453
1779999131385358300,12.5623583984375,342.91876220703125,-103.31250762939453,28.762500762939453
1779999131405239800,12.58223974609375,342.84375,-103.31250762939453,28.743751525878906
1779999131425170700,12.602170654296875,342.7125244140625,-103.33125305175781,28.725000381469727
1779999131445597000,12.622596923828125,342.63751220703125,-103.33125305175781,28.743751525878906
1779999131465411000,12.6424111328125,342.63751220703125,-103.33125305175781,28.743751525878906
1779999131485243600,12.66224365234375,342.5812683105469,-103.33125305175781,28.743751525878906
1779999131505417200,12.682417236328124,342.5062561035156,-103.35000610351562,28.743751525878906
1779999131525366500,12.702366455078124,342.54376220703125,-103.35000610351562,28.781251907348633
1779999131545232100,12.722232177734375,342.6187744140625,-103.35000610351562,28.781251907348633
1779999131565151200,12.742151123046876,342.54376220703125,-103.33125305175781,28.781251907348633
1779999131585121300,12.762121337890624,342.6000061035156,-103.31250762939453,28.781251907348633
1779999131605312800,12.782312744140626,342.5250244140625,-103.33125305175781,28.781251907348633
1779999131625216300,12.80221630859375,342.5062561035156,-103.33125305175781,28.781251907348633
1779999131645162800,12.822162841796874,342.5250244140625,-103.35000610351562,28.80000114440918
1779999131665606000,12.84260595703125,342.5062561035156,-103.33125305175781,28.80000114440918
1779999131685386200,12.86238623046875,342.6000061035156,-103.33125305175781,28.818750381469727
1779999131705340000,12.88233984375,342.5625,-103.33125305175781,28.818750381469727
1779999131725203200,12.902203125,342.65625,-103.35000610351562,28.80000114440918
1779999131745143800,12.922143798828126,342.5812683105469,-103.35000610351562,28.80000114440918
1779999131765380000,12.942380126953125,342.6187744140625,-103.33125305175781,28.781251907348633
1779999131785525200,12.962525146484374,342.6187744140625,-103.33125305175781,28.762500762939453
1779999131805337000,12.982337158203125,342.8062744140625,-103.33125305175781,28.781251907348633
1779999131825410800,13.002410888671875,342.84375,-103.31250762939453,28.762500762939453
1779999131845243000,13.022242919921876,342.84375,-103.31250762939453,28.781251907348633
1779999131865155300,13.0421552734375,342.91876220703125,-103.31250762939453,28.781251907348633
1779999131885375000,13.062375,342.91876220703125,-103.31250762939453,28.781251907348633
1779999131905410000,13.08241015625,343.125,-103.31250762939453,28.781251907348633
1779999131925245200,13.1022451171875,343.0875244140625,-103.33125305175781,28.762500762939453
1779999131945368600,13.12236865234375,343.0500183105469,-103.31250762939453,28.743751525878906
1779999131965426200,13.14242626953125,343.10626220703125,-103.33125305175781,28.762500762939453
1779999131985250600,13.16225048828125,343.125,-103.31250762939453,28.762500762939453
1779999132005349000,13.18234912109375,343.2562561035156,-103.31250762939453,28.762500762939453
1779999132025407000,13.202406982421875,343.29376220703125,-103.31250762939453,28.781251907348633
1779999132045235200,13.222235107421875,343.40625,-103.31250762939453,28.80000114440918
1779999132065610800,13.24261083984375,343.48126220703125,-103.33125305175781,28.80000114440918
1779999132085883000,13.2628828125,343.4625244140625,-103.33125305175781,28.818750381469727
1779999132105477600,13.2824775390625,343.40625,-103.33125305175781,28.80000114440918
1779999132125231600,13.302231689453125,343.48126220703125,-103.33125305175781,28.781251907348633
1779999132145352400,13.3223525390625,343.4625244140625,-103.33125305175781,28.762500762939453
1779999132165190400,13.3421904296875,343.4625244140625,-103.35000610351562,28.743751525878906
1779999132185368000,13.3623681640625,343.5562744140625,-103.3687515258789,28.743751525878906
1779999132205500200,13.382500244140624,343.4437561035156,-103.35000610351562,28.762500762939453
1779999132225301800,13.4023017578125,343.4625244140625,-103.33125305175781,28.781251907348633
1779999132245193200,13.422193115234375,343.4437561035156,-103.35000610351562,28.762500762939453
1779999132265147600,13.442147705078124,343.48126220703125,-103.3687515258789,28.762500762939453
1779999132285151200,13.462151123046874,343.5562744140625,-103.3687515258789,28.762500762939453
1779999132305137400,13.482137451171875,343.4437561035156,-103.3687515258789,28.762500762939453
1779999132325128700,13.502128662109374,343.3500061035156,-103.33125305175781,28.762500762939453
1779999132345140500,13.522140380859375,343.3687744140625,-103.33125305175781,28.762500762939453
1779999132365346600,13.5423466796875,343.3687744140625,-103.33125305175781,28.743751525878906
1779999132385241000,13.562240966796875,343.3312683105469,-103.33125305175781,28.725000381469727
1779999132405180000,13.582179931640624,343.1625061035156,-103.31250762939453,28.725000381469727
1779999132425146400,13.602146484375,343.20001220703125,-103.33125305175781,28.743751525878906
1779999132445135000,13.622135009765625,343.2375183105469,-103.35000610351562,28.725000381469727
1779999132465311500,13.6423115234375,343.1437683105469,-103.35000610351562,28.743751525878906
1779999132485235200,13.662235107421875,342.9937744140625,-103.35000610351562,28.743751525878906
1779999132505385200,13.68238525390625,342.9750061035156,-103.35000610351562,28.743751525878906
1779999132525517600,13.702517578125,343.125,-103.35000610351562,28.762500762939453
1779999132545303000,13.722302978515625,343.20001220703125,-103.3687515258789,28.762500762939453
1779999132565644800,13.742644775390625,343.0500183105469,-103.35000610351562,28.762500762939453
1779999132585637400,13.762637451171875,342.91876220703125,-103.35000610351562,28.743751525878906
1779999132605735700,13.782735595703125,343.01251220703125,-103.35000610351562,28.743751525878906
1779999132625602300,13.802602294921876,343.03125,-103.3687515258789,28.725000381469727
1779999132645305000,13.82230517578125,343.0687561035156,-103.38750457763672,28.725000381469727
1779999132665271600,13.842271484375,343.1812744140625,-103.38750457763672,28.743751525878906
1779999132685151200,13.862151123046875,343.3687744140625,-103.38750457763672,28.762500762939453
1779999132705097500,13.882097412109376,343.5,-103.38750457763672,28.762500762939453
1779999132725292800,13.902292724609374,343.40625,-103.40625762939453,28.781251907348633
1779999132745542100,13.922542236328125,343.5187683105469,-103.38750457763672,28.80000114440918
1779999132765592300,13.94259228515625,343.6125183105469,-103.38750457763672,28.781251907348633
1779999132785345500,13.962345458984375,343.59375,-103.40625762939453,28.781251907348633
1779999132805403400,13.9824033203125,343.59375,-103.38750457763672,28.762500762939453
1779999132825225500,14.0022255859375,343.4437561035156,-103.38750457763672,28.762500762939453
1779999132845544400,14.02254443359375,343.38751220703125,-103.3687515258789,28.781251907348633
1779999132865324000,14.042323974609374,343.5562744140625,-103.3687515258789,28.781251907348633
1779999132885183700,14.062183837890625,343.57501220703125,-103.38750457763672,28.781251907348633
1779999132905584600,14.082584716796875,343.48126220703125,-103.38750457763672,28.80000114440918
1779999132925359900,14.10235986328125,343.5187683105469,-103.38750457763672,28.80000114440918
1779999132945223200,14.12222314453125,343.5187683105469,-103.40625762939453,28.80000114440918
1779999132965602600,14.1426025390625,343.5562744140625,-103.40625762939453,28.80000114440918
1779999132985355800,14.162355712890625,343.5187683105469,-103.40625762939453,28.80000114440918
1779999133005205800,14.182205810546876,343.6312561035156,-103.38750457763672,28.80000114440918
1779999133025325600,14.20232568359375,343.8000183105469,-103.35000610351562,28.781251907348633
1779999133045376500,14.22237646484375,343.7062683105469,-103.35000610351562,28.781251907348633
1779999133065225000,14.242224853515625,343.7250061035156,-103.3687515258789,28.781251907348633
1779999133085148000,14.26214794921875,343.8375244140625,-103.3687515258789,28.80000114440918
1779999133105138400,14.282138427734376,343.875,-103.38750457763672,28.80000114440918
1779999133125120500,14.30212060546875,343.9312744140625,-103.38750457763672,28.80000114440918
1779999133145122300,14.322122314453125,344.0062561035156,-103.3687515258789,28.781251907348633
1779999133165441000,14.34244091796875,343.9312744140625,-103.3687515258789,28.781251907348633
1779999133185303300,14.36230322265625,343.8375244140625,-103.35000610351562,28.762500762939453
1779999133205204000,14.382203857421874,343.9312744140625,-103.35000610351562,28.781251907348633
1779999133225151500,14.4021513671875,343.8000183105469,-103.3687515258789,28.781251907348633
1779999133245133800,14.4221337890625,343.7437744140625,-103.33125305175781,28.781251907348633
1779999133265389000,14.44238916015625,343.6312561035156,-103.33125305175781,28.762500762939453
1779999133285275400,14.462275390625,343.57501220703125,-103.33125305175781,28.743751525878906
1779999133305500700,14.482500732421874,343.4625244140625,-103.35000610351562,28.743751525878906
1779999133325520100,14.50252001953125,343.38751220703125,-103.35000610351562,28.743751525878906
1779999133345313500,14.5223134765625,343.38751220703125,-103.33125305175781,28.743751525878906
1779999133365250600,14.54225048828125,343.2375183105469,-103.29375457763672,28.743751525878906
1779999133385415200,14.562415283203125,343.0875244140625,-103.29375457763672,28.743751525878906
1779999133405544200,14.582544189453126,343.0875244140625,-103.29375457763672,28.725000381469727
1779999133425532200,14.6025322265625,342.9937744140625,-103.29375457763672,28.687501907348633
1779999133445556500,14.622556396484375,343.1812744140625,-103.29375457763672,28.687501907348633
1779999133465350100,14.64235009765625,343.10626220703125,-103.29375457763672,28.687501907348633
1779999133485250000,14.66225,343.20001220703125,-103.31250762939453,28.687501907348633
1779999133505415700,14.682415771484376,343.10626220703125,-103.31250762939453,28.668750762939453
1779999133525262800,14.702262939453124,343.125,-103.29375457763672,28.650001525878906
1779999133545367000,14.722366943359376,343.10626220703125,-103.31250762939453,28.668750762939453
1779999133565236500,14.742236572265625,343.01251220703125,-103.33125305175781,28.668750762939453
1779999133585429200,14.76242919921875,342.9750061035156,-103.33125305175781,28.687501907348633
1779999133605762600,14.782762451171875,343.01251220703125,-103.33125305175781,28.687501907348633
1779999133625441800,14.80244189453125,342.8812561035156,-103.33125305175781,28.687501907348633
1779999133645241300,14.822241455078125,342.82501220703125,-103.35000610351562,28.725000381469727
1779999133665415000,14.842414794921876,342.82501220703125,-103.35000610351562,28.725000381469727
1779999133685225000,14.862224853515626,342.9750061035156,-103.35000610351562,28.725000381469727
1779999133705147100,14.882147216796875,343.03125,-103.3687515258789,28.743751525878906
1779999133725109000,14.90210888671875,343.1625061035156,-103.38750457763672,28.762500762939453
1779999133745202700,14.92220263671875,342.7875061035156,-103.38750457763672,28.781251907348633
1779999133765163500,14.94216357421875,342.84375,-103.38750457763672,28.781251907348633
1779999133785421600,14.962421630859374,342.8062744140625,-103.40625762939453,28.781251907348633
1779999133805500200,14.982500244140626,342.8625183105469,-103.38750457763672,28.781251907348633
1779999133825507600,15.002507568359375,342.91876220703125,-103.38750457763672,28.781251907348633
1779999133845288700,15.022288818359375,342.9375,-103.38750457763672,28.762500762939453
1779999133865431800,15.042431884765625,343.03125,-103.38750457763672,28.762500762939453
1779999133885240800,15.06224072265625,342.9937744140625,-103.38750457763672,28.762500762939453
1779999133905151200,15.082151123046875,342.8812561035156,-103.40625762939453,28.762500762939453
1779999133925416200,15.102416259765626,342.9562683105469,-103.40625762939453,28.743751525878906
1779999133945260500,15.122260498046876,343.0500183105469,-103.40625762939453,28.743751525878906
1779999133965376500,15.14237646484375,343.0687561035156,-103.38750457763672,28.743751525878906
1779999133985230000,15.16222998046875,342.9562683105469,-103.38750457763672,28.743751525878906
1779999134005152000,15.182152099609375,342.9562683105469,-103.38750457763672,28.781251907348633
1779999134025122800,15.202122802734374,342.8625183105469,-103.3687515258789,28.781251907348633
1779999134045600800,15.222600830078125,343.0500183105469,-103.3687515258789,28.80000114440918
1779999134065379000,15.242379150390626,342.9750061035156,-103.35000610351562,28.80000114440918
1779999134085499000,15.262498779296875,343.0687561035156,-103.35000610351562,28.80000114440918
1779999134105842200,15.28284228515625,343.0687561035156,-103.35000610351562,28.781251907348633
1779999134125640200,15.30264013671875,343.1437683105469,-103.35000610351562,28.781251907348633
1779999134145675000,15.322675048828126,343.1437683105469,-103.3687515258789,28.781251907348633
1779999134165597700,15.34259765625,343.0500183105469,-103.3687515258789,28.80000114440918
1779999134185308700,15.36230859375,342.9562683105469,-103.35000610351562,28.818750381469727
1779999134205148200,15.382148193359376,343.0687561035156,-103.35000610351562,28.837501525878906
1779999134225287700,15.40228759765625,343.125,-103.35000610351562,28.856250762939453
1779999134245181700,15.422181640625,342.9000244140625,-103.33125305175781,28.837501525878906
1779999134265380000,15.442380126953125,342.9375,-103.3687515258789,28.818750381469727
1779999134285236700,15.46223681640625,343.01251220703125,-103.33125305175781,28.80000114440918
1779999134305323000,15.482322998046875,342.9375,-103.31250762939453,28.781251907348633
1779999134325180000,15.502179931640624,343.0687561035156,-103.31250762939453,28.781251907348633
1779999134345146000,15.52214599609375,343.01251220703125,-103.31250762939453,28.781251907348633
1779999134365629700,15.542629638671874,343.0500183105469,-103.31250762939453,28.781251907348633
1779999134385398300,15.562398193359375,342.9937744140625,-103.33125305175781,28.80000114440918
1779999134405236500,15.582236572265625,343.03125,-103.33125305175781,28.80000114440918
1779999134425415700,15.602415771484376,343.01251220703125,-103.33125305175781,28.818750381469727
1779999134445270500,15.6222705078125,342.8812561035156,-103.33125305175781,28.80000114440918
1779999134465172500,15.64217236328125,342.8625183105469,-103.35000610351562,28.781251907348633
1779999134485392600,15.662392578125,342.9375,-103.35000610351562,28.781251907348633
1779999134505367300,15.6823671875,342.9750061035156,-103.35000610351562,28.725000381469727
1779999134525440000,15.70243994140625,343.03125,-103.35000610351562,28.70625114440918
1779999134545269200,15.722269287109375,343.2750244140625,-103.35000610351562,28.725000381469727
1779999134565379300,15.74237939453125,343.2375183105469,-103.31250762939453,28.725000381469727
1779999134585230800,15.76223095703125,343.1625061035156,-103.33125305175781,28.743751525878906
1779999134605346600,15.7823466796875,343.1812744140625,-103.3687515258789,28.743751525878906
1779999134625414000,15.802413818359375,343.10626220703125,-103.38750457763672,28.743751525878906
1779999134645246500,15.82224658203125,343.21875,-103.40625762939453,28.743751525878906
1779999134665665300,15.842665283203125,343.29376220703125,-103.40625762939453,28.725000381469727
1779999134685593300,15.86259326171875,343.3687744140625,-103.40625762939453,28.725000381469727
1779999134705586400,15.88258642578125,343.3125,-103.40625762939453,28.725000381469727
1779999134725517000,15.90251708984375,343.3125,-103.40625762939453,28.743751525878906
1779999134745275600,15.922275634765626,343.40625,-103.38750457763672,28.762500762939453
1779999134765142800,15.942142822265625,343.3312683105469,-103.3687515258789,28.743751525878906
1779999134785557000,15.962556884765625,343.3125,-103.35000610351562,28.743751525878906
1779999134805803300,15.98280322265625,343.2562561035156,-103.35000610351562,28.80000114440918
1779999134825475300,16.002475341796874,343.20001220703125,-103.33125305175781,28.781251907348633
1779999134845505800,16.022505859375,343.1437683105469,-103.33125305175781,28.781251907348633
1779999134865539600,16.04253955078125,343.2375183105469,-103.35000610351562,28.818750381469727
1779999134885292800,16.062292724609375,343.3500061035156,-103.35000610351562,28.818750381469727
1779999134905168000,16.08216796875,343.3125,-103.33125305175781,28.818750381469727
1779999134925108500,16.1021083984375,343.3687744140625,-103.33125305175781,28.80000114440918
1779999134981967400,16.15896728515625,343.2750244140625,-103.33125305175781,28.80000114440918
1779999135084842800,16.2618427734375,343.3312683105469,-103.35000610351562,28.837501525878906
1779999135128994600,16.30599462890625,343.4437561035156,-103.33125305175781,28.856250762939453
1779999135305558800,16.482558837890625,344.0062561035156,-103.33125305175781,28.818750381469727
1779999135349663000,16.5266630859375,344.13751220703125,-103.33125305175781,28.80000114440918
1779999135393734000,16.57073388671875,344.13751220703125,-103.33125305175781,28.818750381469727
1779999135437757000,16.6147568359375,343.9875183105469,-103.35000610351562,28.80000114440918
1779999135481713700,16.658713623046875,343.95001220703125,-103.35000610351562,28.781251907348633
1779999135525581600,16.70258154296875,343.85626220703125,-103.35000610351562,28.781251907348633
1779999135569334000,16.746333984375,343.8187561035156,-103.3687515258789,28.781251907348633
1779999135612939000,16.78993896484375,343.7437744140625,-103.3687515258789,28.80000114440918
1779999135656360700,16.833360595703127,343.76251220703125,-103.3687515258789,28.781251907348633
1779999135699556600,16.876556640625,343.7250061035156,-103.33125305175781,28.781251907348633
1779999135742478600,16.919478515625,343.6875,-103.33125305175781,28.762500762939453
1779999135785074400,16.962074462890627,343.7062683105469,-103.33125305175781,28.762500762939453
1779999135827286500,17.00428662109375,343.7062683105469,-103.35000610351562,28.762500762939453
1779999135869050400,17.04605029296875,343.59375,-103.3687515258789,28.762500762939453
1779999135910296300,17.08729638671875,343.6125183105469,-103.35000610351562,28.781251907348633
1779999135950951200,17.127951171875,343.48126220703125,-103.35000610351562,28.781251907348633
1779999135990935600,17.167935546875,343.2562561035156,-103.33125305175781,28.80000114440918
1779999136030167600,17.20716748046875,343.29376220703125,-103.35000610351562,28.818750381469727
1779999136068564500,17.245564453125,343.4250183105469,-103.35000610351562,28.818750381469727
1779999136106031000,17.283031005859375,343.3687744140625,-103.35000610351562,28.818750381469727
1779999136142483700,17.319483642578124,343.5,-103.3687515258789,28.80000114440918
1779999136177834500,17.35483447265625,343.59375,-103.35000610351562,28.80000114440918
1779999136211997400,17.38899755859375,343.6312561035156,-103.35000610351562,28.781251907348633
1779999136244887300,17.42188720703125,343.66876220703125,-103.3687515258789,28.781251907348633
1779999136276431600,17.453431640625,343.6125183105469,-103.3687515258789,28.781251907348633
1779999136306545200,17.483545166015624,343.5375061035156,-103.3687515258789,28.781251907348633
1779999136335167500,17.51216748046875,343.38751220703125,-103.3687515258789,28.80000114440918
1779999136362241800,17.53924169921875,343.21875,-103.3687515258789,28.80000114440918
1779999136387722000,17.564721923828124,343.1625061035156,-103.3687515258789,28.80000114440918
1779999136411576000,17.588576171875,342.9750061035156,-103.35000610351562,28.80000114440918
1779999136433769000,17.61076904296875,342.9937744140625,-103.35000610351562,28.80000114440918
1779999136454295000,17.631294921875,343.0875244140625,-103.3687515258789,28.80000114440918
1779999136473156900,17.650156982421876,342.9000244140625,-103.38750457763672,28.781251907348633
1779999136490369800,17.667369873046876,342.9000244140625,-103.38750457763672,28.781251907348633
1779999136505979400,17.6829794921875,342.9375,-103.3687515258789,28.781251907348633
1779999136519992600,17.69699267578125,342.9375,-103.35000610351562,28.781251907348633
1779999136532480000,17.70947998046875,342.91876220703125,-103.3687515258789,28.80000114440918
1779999136543505200,17.720505126953125,342.9000244140625,-103.33125305175781,28.80000114440918
1779999136553142800,17.730142822265623,342.82501220703125,-103.31250762939453,28.80000114440918
1779999136568628200,17.745628173828123,343.0875244140625,-103.33125305175781,28.781251907348633
1779999136579622400,17.756622314453125,343.2562561035156,-103.35000610351562,28.743751525878906
1779999136589485000,17.766485107421875,343.4437561035156,-103.3687515258789,28.762500762939453
1779999136599285200,17.77628515625,343.5187683105469,-103.33125305175781,28.837501525878906
1779999136610017000,17.78701708984375,343.66876220703125,-103.35000610351562,28.818750381469727
1779999136621363000,17.798363037109375,343.5375061035156,-103.35000610351562,28.818750381469727
1779999136631185000,17.808184814453124,343.66876220703125,-103.35000610351562,28.818750381469727
1779999136642840800,17.8198408203125,343.6500244140625,-103.33125305175781,28.875001907348633
1779999136656350700,17.833350830078125,343.40625,-103.31250762939453,28.856250762939453
1779999136671704600,17.84870458984375,343.29376220703125,-103.33125305175781,28.856250762939453
1779999136688837600,17.865837646484376,343.2750244140625,-103.33125305175781,28.856250762939453
1779999136707735300,17.8847353515625,343.20001220703125,-103.33125305175781,28.875001907348633
1779999136717838600,17.894838623046876,343.1812744140625,-103.35000610351562,28.912500381469727
1779999136728329700,17.905329833984375,343.20001220703125,-103.35000610351562,28.89375114440918
1779999136739227000,17.916226806640626,343.20001220703125,-103.35000610351562,28.912500381469727
1779999136750534700,17.92753466796875,343.20001220703125,-103.35000610351562,28.912500381469727
1779999136762236000,17.93923583984375,343.20001220703125,-103.35000610351562,28.89375114440918
1779999136774334500,17.95133447265625,343.2562561035156,-103.35000610351562,28.856250762939453
1779999136786769200,17.96376904296875,343.0687561035156,-103.35000610351562,28.818750381469727
1779999136799563800,17.976563720703126,342.9562683105469,-103.35000610351562,28.818750381469727
1779999136814910500,17.991910400390626,343.0875244140625,-103.33125305175781,28.818750381469727
1779999136836588000,18.013588134765627,343.1437683105469,-103.33125305175781,28.818750381469727
1779999136860822500,18.037822509765626,343.1812744140625,-103.33125305175781,28.818750381469727
1779999136884131000,18.061131103515624,343.21875,-103.31250762939453,28.818750381469727
1779999136905810200,18.08281005859375,343.125,-103.31250762939453,28.80000114440918
1779999136926186000,18.10318603515625,343.125,-103.31250762939453,28.80000114440918
1779999136946085400,18.12308544921875,343.2562561035156,-103.29375457763672,28.781251907348633
1779999136966057200,18.14305712890625,343.2562561035156,-103.2750015258789,28.781251907348633
1779999136985671400,18.16267138671875,343.29376220703125,-103.2750015258789,28.781251907348633
1779999137005644000,18.18264404296875,343.4250183105469,-103.29375457763672,28.781251907348633
1779999137025547500,18.202547607421874,343.3312683105469,-103.2750015258789,28.781251907348633
1779999137045279000,18.222279052734375,343.2750244140625,-103.2750015258789,28.781251907348633
1779999137065403000,18.24240283203125,343.1437683105469,-103.2750015258789,28.80000114440918
1779999137085235700,18.262235595703125,343.1625061035156,-103.2750015258789,28.80000114440918
1779999137105361700,18.282361572265625,343.20001220703125,-103.29375457763672,28.80000114440918
1779999137125215200,18.30221533203125,343.2562561035156,-103.31250762939453,28.80000114440918
1779999137145141500,18.3221416015625,343.1625061035156,-103.31250762939453,28.818750381469727
1779999137165353500,18.342353515625,343.03125,-103.2750015258789,28.80000114440918
1779999137185228000,18.36222802734375,342.8625183105469,-103.29375457763672,28.80000114440918
1779999137205159700,18.38215966796875,342.8812561035156,-103.25625610351562,28.818750381469727
1779999137225437200,18.402437255859375,343.03125,-103.25625610351562,28.837501525878906
1779999137245280800,18.42228076171875,342.9375,-103.2750015258789,28.837501525878906
1779999137265179600,18.4421796875,342.9750061035156,-103.29375457763672,28.856250762939453
1779999137285375500,18.46237548828125,342.9375,-103.25625610351562,28.875001907348633
1779999137305521700,18.482521728515625,342.7687683105469,-103.23750305175781,28.89375114440918
1779999137325324800,18.50232470703125,342.84375,-103.23750305175781,28.89375114440918
1779999137345378600,18.522378662109375,342.9000244140625,-103.21875762939453,28.89375114440918
1779999137365277700,18.542277587890624,342.8812561035156,-103.21875762939453,28.856250762939453
1779999137385481200,18.562481201171874,342.9375,-103.20000457763672,28.875001907348633
1779999137405560600,18.582560546875,342.9750061035156,-103.20000457763672,28.875001907348633
1779999137425408300,18.602408203125,342.9375,-103.1812515258789,28.856250762939453
1779999137445236200,18.622236328125,342.91876220703125,-103.20000457763672,28.856250762939453
1779999137465413400,18.642413330078124,342.9937744140625,-103.21875762939453,28.856250762939453
1779999137485257000,18.662257080078124,343.125,-103.21875762939453,28.837501525878906
1779999137505168000,18.68216796875,343.20001220703125,-103.21875762939453,28.837501525878906
1779999137525119500,18.702119384765624,343.21875,-103.21875762939453,28.818750381469727
1779999137545311000,18.72231103515625,343.3312683105469,-103.23750305175781,28.80000114440918
1779999137565216000,18.742216064453125,343.3500061035156,-103.23750305175781,28.781251907348633
1779999137585164300,18.762164306640624,343.3312683105469,-103.2750015258789,28.743751525878906
1779999137605520600,18.782520751953125,343.48126220703125,-103.2750015258789,28.70625114440918
1779999137625328600,18.80232861328125,343.4250183105469,-103.29375457763672,28.687501907348633
1779999137645208800,18.822208740234377,343.3500061035156,-103.31250762939453,28.687501907348633
1779999137665411300,18.842411376953127,343.3500061035156,-103.35000610351562,28.650001525878906
1779999137685275400,18.862275390625,343.4250183105469,-103.35000610351562,28.631250381469727
1779999137705184500,18.8821845703125,343.40625,-103.3687515258789,28.61250114440918
1779999137725395700,18.902395751953126,343.40625,-103.3687515258789,28.593751907348633
1779999137745583900,18.922583984375,343.4437561035156,-103.35000610351562,28.556251525878906
1779999137765563100,18.942563232421875,343.48126220703125,-103.33125305175781,28.51875114440918
1779999137785319400,18.9623193359375,343.5375061035156,-103.33125305175781,28.500001907348633
1779999137805281500,18.982281494140626,343.6125183105469,-103.3687515258789,28.443750381469727
1779999137825365500,19.002365478515625,343.6125183105469,-103.40625762939453,28.406251907348633
1779999137845214200,19.022214111328125,343.6312561035156,-103.38750457763672,28.387500762939453
1779999137865343000,19.042343017578126,343.7437744140625,-103.38750457763672,28.368751525878906
1779999137885207000,19.06220703125,343.95001220703125,-103.38750457763672,28.350000381469727
1779999137905137200,19.08213720703125,343.96875,-103.3687515258789,28.312501907348633
1779999137925333200,19.102333251953127,344.1000061035156,-103.3687515258789,28.293750762939453
1779999137945226000,19.12222607421875,344.32501220703125,-103.33125305175781,28.256250381469727
1779999137965419800,19.142419677734374,344.4937744140625,-103.31250762939453,28.256250381469727
1779999137985430000,19.162429931640624,344.51251220703125,-103.31250762939453,28.218751907348633
1779999138005272600,19.1822724609375,344.60626220703125,-103.31250762939453,28.181251525878906
1779999138025372400,19.202372314453125,344.7750244140625,-103.31250762939453,28.14375114440918
1779999138045692400,19.2226923828125,345.0187683105469,-103.35000610351562,28.125001907348633
1779999138065398300,19.242398193359374,345.0562744140625,-103.35000610351562,28.106250762939453
1779999138085484300,19.262484375,345.2250061035156,-103.35000610351562,28.068750381469727
1779999138105772500,19.2827724609375,345.4125061035156,-103.33125305175781,28.031251907348633
1779999138125425200,19.302425048828123,345.46875,-103.29375457763672,27.993751525878906
1779999138145218000,19.322218017578123,345.6750183105469,-103.29375457763672,27.95625114440918
1779999138165140700,19.342140625,345.84375,-103.29375457763672,27.918750762939453
1779999138185110800,19.36211083984375,345.8625183105469,-103.31250762939453,27.881250381469727
1779999138205098200,19.38209814453125,345.9937744140625,-103.33125305175781,27.843751907348633
1779999138225301000,19.402301025390624,346.1625061035156,-103.35000610351562,27.806251525878906
1779999138245222100,19.42222216796875,346.3312683105469,-103.3687515258789,27.787500381469727
1779999138265167000,19.4421669921875,346.48126220703125,-103.38750457763672,27.750001907348633
1779999138285140500,19.462140380859374,346.7062683105469,-103.38750457763672,27.731250762939453
1779999138305135900,19.482135986328124,346.8937683105469,-103.38750457763672,27.712501525878906
1779999138325131300,19.50213134765625,346.95001220703125,-103.38750457763672,27.693750381469727
1779999138345143800,19.522143798828125,346.9312744140625,-103.40625762939453,27.67500114440918
1779999138365615000,19.542614990234377,347.13751220703125,-103.42500305175781,27.656251907348633
1779999138385385500,19.562385498046876,347.1187744140625,-103.42500305175781,27.637500762939453
1779999138405244200,19.582244140625,347.1750183105469,-103.44375610351562,27.618751525878906
1779999138425362000,19.60236181640625,347.32501220703125,-103.4625015258789,27.600000381469727
1779999138445225500,19.6222255859375,347.3812561035156,-103.4625015258789,27.58125114440918
1779999138465155800,19.64215576171875,347.3625183105469,-103.44375610351562,27.562501907348633
1779999138485121000,19.66212109375,347.4937744140625,-103.44375610351562,27.543750762939453
1779999138505136000,19.68213623046875,347.5875244140625,-103.42500305175781,27.525001525878906
1779999138525326000,19.702326171875,347.5687561035156,-103.44375610351562,27.506250381469727
1779999138545371400,19.722371337890625,347.4375,-103.44375610351562,27.48750114440918
1779999138565371400,19.742371337890624,347.4000244140625,-103.42500305175781,27.450000762939453
1779999138585237800,19.76223779296875,347.5500183105469,-103.44375610351562,27.450000762939453
1779999138605155300,19.7821552734375,347.60626220703125,-103.44375610351562,27.412500381469727
1779999138625323000,19.802322998046876,347.625,-103.44375610351562,27.39375114440918
1779999138645481500,19.8224814453125,347.71875,-103.4625015258789,27.39375114440918
1779999138665764900,19.842764892578124,347.79376220703125,-103.44375610351562,27.375001907348633
1779999138722306000,19.89930615234375,347.9250183105469,-103.44375610351562,27.375001907348633
1779999138824901600,20.001901611328126,348.1500244140625,-103.42500305175781,27.337501525878906
1779999138868988200,20.04598828125,348.2437744140625,-103.42500305175781,27.318750381469727
1779999139045290500,20.22229052734375,348.46875,-103.44375610351562,27.262500762939453
1779999139089329400,20.266329345703124,348.4125061035156,-103.44375610351562,27.243751525878906
1779999139133335000,20.3103349609375,348.4875183105469,-103.4625015258789,27.262500762939453
1779999139177292500,20.35429248046875,348.4125061035156,-103.48125457763672,27.243751525878906
1779999139221184300,20.398184326171876,348.4125061035156,-103.50000762939453,27.243751525878906
1779999139264987400,20.4419873046875,348.5062561035156,-103.48125457763672,27.225000381469727
1779999139308675000,20.485675048828124,348.5062561035156,-103.48125457763672,27.225000381469727
1779999139352216000,20.529216064453124,348.6187744140625,-103.50000762939453,27.20625114440918
1779999139395573000,20.572572998046876,348.6000061035156,-103.51875305175781,27.20625114440918
1779999139438704600,20.61570458984375,348.45001220703125,-103.53750610351562,27.20625114440918
1779999139481563600,20.658563720703125,348.3000183105469,-103.51875305175781,27.20625114440918
1779999139524097000,20.701096923828125,348.2437744140625,-103.53750610351562,27.187501907348633
1779999139566246700,20.74324658203125,348.1875,-103.57500457763672,27.187501907348633
1779999139607948500,20.784948486328126,348.1125183105469,-103.59375762939453,27.187501907348633
1779999139649133600,20.826133544921873,348.07501220703125,-103.61250305175781,27.187501907348633
1779999139689727700,20.866727783203125,348.07501220703125,-103.59375762939453,27.187501907348633
1779999139729654300,20.906654296875,348.2062683105469,-103.61250305175781,27.187501907348633
1779999139768830700,20.945830810546877,348.2250061035156,-103.61250305175781,27.187501907348633
1779999139807171300,20.98417138671875,348.1875,-103.61250305175781,27.187501907348633
1779999139844586800,21.021586669921874,348.1500244140625,-103.61250305175781,27.20625114440918
1779999139880993300,21.0579931640625,348.1312561035156,-103.63125610351562,27.187501907348633
1779999139916301000,21.093301025390623,348.1500244140625,-103.6500015258789,27.187501907348633
1779999139950422500,21.127422607421874,348.1312561035156,-103.6500015258789,27.225000381469727
1779999139983272200,21.160272216796876,348.1500244140625,-103.63125610351562,27.243751525878906
1779999140014773200,21.191773193359374,348.2062683105469,-103.63125610351562,27.243751525878906
1779999140044857600,21.221857666015627,348.2250061035156,-103.6500015258789,27.243751525878906
1779999140073450500,21.250450439453125,348.2250061035156,-103.6500015258789,27.243751525878906
1779999140100504800,21.2775048828125,348.3187561035156,-103.6500015258789,27.243751525878906
1779999140125969200,21.30296923828125,348.3375244140625,-103.6500015258789,27.262500762939453
1779999140149799000,21.326798828125,348.3187561035156,-103.66875457763672,27.262500762939453
1779999140171977700,21.348977783203125,348.375,-103.68750762939453,27.262500762939453
1779999140192499500,21.36949951171875,348.46875,-103.68750762939453,27.281251907348633
1779999140211356000,21.38835595703125,348.35626220703125,-103.66875457763672,27.281251907348633
1779999140228567300,21.4055673828125,348.3187561035156,-103.66875457763672,27.281251907348633
1779999140244171500,21.421171630859376,348.2250061035156,-103.61250305175781,27.30000114440918
1779999140258192000,21.43519189453125,348.09375,-103.59375762939453,27.318750381469727
1779999140270689500,21.447689453125,348.0187683105469,-103.59375762939453,27.318750381469727
1779999140281750000,21.45875,347.90625,-103.61250305175781,27.318750381469727
1779999140291404800,21.46840478515625,347.90625,-103.61250305175781,27.30000114440918
1779999140306925600,21.483925537109375,347.9625244140625,-103.61250305175781,27.318750381469727
1779999140317998800,21.494998779296875,348,-103.59375762939453,27.318750381469727
1779999140327999000,21.5049990234375,347.9437561035156,-103.59375762939453,27.356250762939453
1779999140338339300,21.51533935546875,347.88751220703125,-103.61250305175781,27.318750381469727
1779999140349313300,21.526313232421874,347.70001220703125,-103.63125610351562,27.281251907348633
1779999140360771800,21.537771728515626,346.85626220703125,-103.5562515258789,27.450000762939453
1779999140370665700,21.547665771484375,345.9375,-103.53750610351562,27.712501525878906
1779999140382396200,21.559396240234374,345.1500244140625,-103.50000762939453,27.937501907348633
1779999140396019000,21.57301904296875,344.6812744140625,-103.4625015258789,28.106250762939453
1779999140411411500,21.588411376953125,343.875,-103.38750457763672,28.350000381469727
1779999140428598800,21.605598876953124,343.20001220703125,-103.3687515258789,28.575000762939453
1779999140447528700,21.62452880859375,342.8812561035156,-103.33125305175781,28.725000381469727
1779999140457638000,21.634637939453125,342.91876220703125,-103.35000610351562,28.762500762939453
1779999140468151300,21.6451513671875,342.9000244140625,-103.3687515258789,28.781251907348633
1779999140479092200,21.65609228515625,342.65625,-103.3687515258789,28.818750381469727
1779999140490426000,21.667426025390625,342.73126220703125,-103.3687515258789,28.818750381469727
1779999140502130000,21.6791298828125,342.82501220703125,-103.33125305175781,28.818750381469727
1779999140514213600,21.691213623046874,342.8812561035156,-103.33125305175781,28.781251907348633
1779999140526687200,21.703687255859375,342.9750061035156,-103.35000610351562,28.762500762939453
1779999140539499000,21.7164990234375,342.9000244140625,-103.33125305175781,28.781251907348633
1779999140554976500,21.7319765625,342.6750183105469,-103.33125305175781,28.80000114440918
1779999140576633300,21.75363330078125,342.6750183105469,-103.31250762939453,28.80000114440918
1779999140600852000,21.77785205078125,342.6750183105469,-103.33125305175781,28.80000114440918
1779999140624090600,21.801090576171877,342.82501220703125,-103.29375457763672,28.781251907348633
1779999140646008800,21.8230087890625,343.03125,-103.31250762939453,28.762500762939453
1779999140666546000,21.8435458984375,343.20001220703125,-103.33125305175781,28.762500762939453
1779999140686449200,21.86344921875,343.10626220703125,-103.31250762939453,28.781251907348633
1779999140706215200,21.883215087890626,342.8812561035156,-103.2750015258789,28.818750381469727
1779999140725719000,21.902718994140624,342.8062744140625,-103.25625610351562,28.837501525878906
1779999140745367300,21.9223671875,343.0687561035156,-103.25625610351562,28.837501525878906
1779999140765165800,21.942165771484376,343.1625061035156,-103.23750305175781,28.837501525878906
1779999140785054000,21.962053955078126,343.3125,-103.23750305175781,28.818750381469727
1779999140805519600,21.98251953125,343.38751220703125,-103.25625610351562,28.80000114440918
1779999140825522200,22.002522216796876,343.48126220703125,-103.23750305175781,28.837501525878906
1779999140845310500,22.022310546875,343.6875,-103.20000457763672,28.856250762939453
1779999140865646800,22.042646728515624,343.7437744140625,-103.21875762939453,28.875001907348633
1779999140885362700,22.06236279296875,343.7062683105469,-103.21875762939453,28.912500381469727
1779999140905244400,22.082244384765627,343.875,-103.21875762939453,28.912500381469727
1779999140925443600,22.102443603515624,343.96875,-103.23750305175781,28.89375114440918
1779999140985819400,22.1628193359375,343.9125061035156,-103.23750305175781,28.875001907348633
1779999141096262100,22.27326220703125,343.9875183105469,-103.23750305175781,28.875001907348633
1779999141190122800,22.367122802734375,344.4750061035156,-103.25625610351562,28.818750381469727
1779999141330869000,22.507868896484375,344.71875,-103.2750015258789,28.725000381469727
1779999141377747000,22.554746826171876,344.8312683105469,-103.2750015258789,28.743751525878906
1779999141424587500,22.60158740234375,344.7750244140625,-103.2750015258789,28.762500762939453
1779999141471374600,22.64837451171875,344.60626220703125,-103.33125305175781,28.762500762939453
1779999141518088000,22.695087890625,344.4750061035156,-103.33125305175781,28.743751525878906
1779999141564702200,22.7417021484375,344.53125,-103.33125305175781,28.70625114440918
1779999141611187700,22.788187744140625,344.4750061035156,-103.31250762939453,28.687501907348633
1779999141657508900,22.8345087890625,344.41876220703125,-103.33125305175781,28.687501907348633
1779999141703625200,22.880625244140624,344.23126220703125,-103.33125305175781,28.70625114440918
1779999141749489400,22.926489501953125,344.13751220703125,-103.33125305175781,28.725000381469727
1779999141795049000,22.972049072265627,343.875,-103.33125305175781,28.743751525878906
1779999141840245000,23.017244873046874,343.57501220703125,-103.31250762939453,28.781251907348633
1779999141885011700,23.06201171875,343.3500061035156,-103.31250762939453,28.80000114440918
1779999141929278500,23.106278564453124,343.21875,-103.29375457763672,28.80000114440918
1779999141972967400,23.149967529296877,343.1812744140625,-103.31250762939453,28.781251907348633
1779999142015996700,23.19299658203125,343.125,-103.29375457763672,28.80000114440918
1779999142058278100,23.235278076171873,342.82501220703125,-103.31250762939453,28.818750381469727
1779999142099720200,23.27672021484375,342.6937561035156,-103.31250762939453,28.818750381469727
1779999142140228000,23.31722802734375,342.4875183105469,-103.31250762939453,28.818750381469727
1779999142179703800,23.356703857421873,342.5812683105469,-103.29375457763672,28.80000114440918
1779999142218049500,23.395049560546877,342.7875061035156,-103.33125305175781,28.818750381469727
1779999142255169500,23.43216943359375,342.9000244140625,-103.33125305175781,28.818750381469727
1779999142290961200,23.467961181640625,342.84375,-103.33125305175781,28.837501525878906
1779999142325334800,23.502334716796874,342.9375,-103.33125305175781,28.837501525878906
1779999142358200600,23.53520068359375,342.84375,-103.33125305175781,28.875001907348633
1779999142389479000,23.56647900390625,342.8625183105469,-103.31250762939453,28.875001907348633
1779999142419100400,23.596100341796873,342.9562683105469,-103.33125305175781,28.856250762939453
1779999142446997000,23.6239970703125,343.0687561035156,-103.35000610351562,28.818750381469727
1779999142473113600,23.650113525390626,343.1437683105469,-103.3687515258789,28.837501525878906
1779999142497414700,23.67441455078125,343.0687561035156,-103.3687515258789,28.856250762939453
1779999142519860700,23.69686083984375,343.0687561035156,-103.38750457763672,28.837501525878906
1779999142540463900,23.7174638671875,343.10626220703125,-103.38750457763672,28.837501525878906
1779999142559204000,23.7362041015625,343.1812744140625,-103.3687515258789,28.837501525878906
1779999142576098300,23.753098388671877,343.38751220703125,-103.35000610351562,28.837501525878906
1779999142591194000,23.768194091796875,343.4625244140625,-103.3687515258789,28.856250762939453
1779999142604520400,23.7815205078125,343.3312683105469,-103.35000610351562,28.837501525878906
1779999142616145000,23.793144775390626,343.2375183105469,-103.35000610351562,28.837501525878906
1779999142626149400,23.8031494140625,343.38751220703125,-103.33125305175781,28.837501525878906
1779999142641605000,23.818605224609374,343.29376220703125,-103.31250762939453,28.80000114440918
1779999142651632600,23.828632568359374,343.2750244140625,-103.33125305175781,28.781251907348633
1779999142661151200,23.838151123046874,343.1437683105469,-103.3687515258789,28.931251525878906
1779999142671600400,23.848600341796875,342.9562683105469,-103.38750457763672,28.912500381469727
1779999142684094500,23.861094482421876,342.8062744140625,-103.42500305175781,28.912500381469727
1779999142698590000,23.87558984375,342.6000061035156,-103.38750457763672,28.856250762939453
1779999142715062300,23.892062255859376,343.01251220703125,-103.38750457763672,28.837501525878906
1779999142733421800,23.910421875,342.9562683105469,-103.40625762939453,28.837501525878906
1779999142743285000,23.920284912109373,343.01251220703125,-103.38750457763672,28.818750381469727
1779999142753573600,23.93057373046875,343.125,-103.38750457763672,28.80000114440918
1779999142764301300,23.94130126953125,343.0875244140625,-103.40625762939453,28.762500762939453
1779999142775448800,23.95244873046875,343.125,-103.40625762939453,28.743751525878906
1779999142787010800,23.9640107421875,343.125,-103.40625762939453,28.762500762939453
1779999142798974500,23.975974365234375,343.20001220703125,-103.40625762939453,28.781251907348633
1779999142813776600,23.990776611328126,343.29376220703125,-103.40625762939453,28.80000114440918
1779999142835774500,24.0127744140625,343.5562744140625,-103.38750457763672,28.80000114440918
1779999142860865000,24.037864990234375,343.78125,-103.38750457763672,28.80000114440918
1779999142884012300,24.06101220703125,343.875,-103.38750457763672,28.781251907348633
1779999142906037200,24.083037353515625,343.9125061035156,-103.40625762939453,28.781251907348633
1779999142927356000,24.10435595703125,343.875,-103.40625762939453,28.781251907348633
1779999142948984300,24.125984375,343.7062683105469,-103.3687515258789,28.80000114440918
1779999142970612500,24.147612548828125,343.6312561035156,-103.3687515258789,28.818750381469727
1779999142992241000,24.169240966796874,343.8187561035156,-103.3687515258789,28.837501525878906
1779999143013868800,24.190868896484375,343.95001220703125,-103.38750457763672,28.818750381469727
1779999143035496200,24.21249609375,343.95001220703125,-103.38750457763672,28.818750381469727
1779999143057122800,24.234122802734376,344.0250244140625,-103.3687515258789,28.837501525878906
1779999143078748000,24.255747802734376,343.9875183105469,-103.3687515258789,28.837501525878906
1779999143100370700,24.27737060546875,343.78125,-103.38750457763672,28.837501525878906
1779999143121990400,24.298990478515623,343.6312561035156,-103.38750457763672,28.837501525878906
1779999143143606000,24.32060595703125,343.59375,-103.40625762939453,28.856250762939453
1779999143165215500,24.342215576171874,343.4250183105469,-103.40625762939453,28.818750381469727
1779999143186817500,24.363817626953125,343.3500061035156,-103.42500305175781,28.80000114440918
1779999143208409900,24.385409912109374,343.2562561035156,-103.42500305175781,28.818750381469727
1779999143229990000,24.406989990234376,343.2562561035156,-103.40625762939453,28.837501525878906
1779999143251554600,24.428554443359374,343.125,-103.42500305175781,28.837501525878906
1779999143273101300,24.450101318359376,343.10626220703125,-103.44375610351562,28.818750381469727
1779999143294626600,24.47162646484375,343.1437683105469,-103.44375610351562,28.818750381469727
1779999143316126200,24.493126220703125,343.0875244140625,-103.40625762939453,28.781251907348633
1779999143337598700,24.5145986328125,343.0687561035156,-103.40625762939453,28.781251907348633
1779999143359035000,24.536034912109375,343.0687561035156,-103.40625762939453,28.781251907348633
1779999143380431600,24.557431640625,343.01251220703125,-103.40625762939453,28.762500762939453
1779999143401783800,24.57878369140625,342.9375,-103.40625762939453,28.781251907348633
1779999143423086000,24.600086181640624,343.01251220703125,-103.40625762939453,28.80000114440918
1779999143444335600,24.621335693359374,342.9937744140625,-103.40625762939453,28.80000114440918
1779999143465521400,24.642521484375,342.9000244140625,-103.42500305175781,28.80000114440918
1779999143486644200,24.663644287109374,343.03125,-103.42500305175781,28.818750381469727
1779999143507694300,24.6846943359375,342.84375,-103.42500305175781,28.818750381469727
1779999143528662800,24.705662841796876,342.84375,-103.40625762939453,28.837501525878906
1779999143549549000,24.726549072265627,342.9000244140625,-103.40625762939453,28.818750381469727
1779999143570345200,24.74734521484375,342.9375,-103.40625762939453,28.837501525878906
1779999143591047400,24.76804736328125,342.9375,-103.40625762939453,28.837501525878906
1779999143611657700,24.78865771484375,342.9937744140625,-103.40625762939453,28.875001907348633
1779999143632167000,24.8091669921875,343.10626220703125,-103.42500305175781,28.875001907348633
1779999143652572200,24.829572265625,343.03125,-103.38750457763672,28.912500381469727
1779999143672864800,24.84986474609375,342.9562683105469,-103.3687515258789,28.912500381469727
1779999143693049000,24.870049072265626,342.84375,-103.35000610351562,28.912500381469727
1779999143713124900,24.890124755859375,342.6937561035156,-103.35000610351562,28.912500381469727
1779999143733092400,24.91009228515625,342.7125244140625,-103.33125305175781,28.912500381469727
1779999143752952300,24.929952392578127,342.8062744140625,-103.31250762939453,28.89375114440918
1779999143772716300,24.94971630859375,342.9000244140625,-103.29375457763672,28.875001907348633
1779999143792373800,24.969373779296873,342.82501220703125,-103.2750015258789,28.856250762939453
1779999143811937000,24.98893701171875,342.8625183105469,-103.2750015258789,28.837501525878906
1779999143831395600,25.0083955078125,342.8625183105469,-103.2750015258789,28.856250762939453
1779999143850764300,25.027764404296875,342.9562683105469,-103.29375457763672,28.856250762939453
1779999143870058800,25.047058837890624,342.9750061035156,-103.33125305175781,28.837501525878906
1779999143889264000,25.06626416015625,343.10626220703125,-103.35000610351562,28.818750381469727
1779999143908397000,25.08539697265625,343.10626220703125,-103.35000610351562,28.781251907348633
1779999143927469600,25.104469482421877,343.0500183105469,-103.35000610351562,28.781251907348633
1779999143946489900,25.12348974609375,343.10626220703125,-103.3687515258789,28.781251907348633
1779999143965444400,25.1424443359375,343.10626220703125,-103.38750457763672,28.80000114440918
1779999143984381200,25.161381103515627,342.9937744140625,-103.40625762939453,28.80000114440918
1779999144003249400,25.18024951171875,343.0875244140625,-103.38750457763672,28.80000114440918
1779999144022084000,25.199083984375,343.1625061035156,-103.38750457763672,28.762500762939453
1779999144040892000,25.217891845703125,343.40625,-103.38750457763672,28.781251907348633
1779999144059678700,25.2366787109375,343.4625244140625,-103.40625762939453,28.781251907348633
1779999144078449200,25.25544921875,343.4250183105469,-103.38750457763672,28.818750381469727
1779999144097209300,25.274209228515623,343.5375061035156,-103.3687515258789,28.837501525878906
1779999144115964000,25.2929638671875,343.5,-103.3687515258789,28.837501525878906
1779999144134717200,25.31171728515625,343.40625,-103.35000610351562,28.837501525878906
1779999144153473500,25.3304736328125,343.5,-103.31250762939453,28.837501525878906
1779999144172237000,25.349237060546876,343.4437561035156,-103.29375457763672,28.837501525878906
1779999144191027000,25.36802685546875,343.38751220703125,-103.29375457763672,28.837501525878906
1779999144209813800,25.386813720703124,343.29376220703125,-103.29375457763672,28.837501525878906
1779999144228616200,25.4056162109375,343.2562561035156,-103.29375457763672,28.837501525878906
1779999144247456800,25.424456787109374,343.29376220703125,-103.31250762939453,28.818750381469727
1779999144266314500,25.443314453125,343.5187683105469,-103.33125305175781,28.818750381469727
1779999144285203700,25.46220361328125,343.6312561035156,-103.35000610351562,28.80000114440918
1779999144304089300,25.48108935546875,343.6312561035156,-103.35000610351562,28.80000114440918
1779999144323017000,25.500016845703126,343.48126220703125,-103.35000610351562,28.781251907348633
1779999144341969700,25.5189697265625,343.48126220703125,-103.35000610351562,28.781251907348633
1779999144360932600,25.5379326171875,343.38751220703125,-103.3687515258789,28.781251907348633
1779999144379922700,25.556922607421875,343.20001220703125,-103.40625762939453,28.781251907348633
1779999144398940400,25.5759404296875,343.2750244140625,-103.42500305175781,28.762500762939453
1779999144417995000,25.5949951171875,343.2562561035156,-103.42500305175781,28.762500762939453
1779999144437068800,25.61406884765625,343.1812744140625,-103.42500305175781,28.762500762939453
1779999144456189400,25.633189453125,343.1625061035156,-103.40625762939453,28.781251907348633
1779999144475334000,25.652333984375,343.10626220703125,-103.40625762939453,28.80000114440918
1779999144494494000,25.671493896484375,343.10626220703125,-103.42500305175781,28.818750381469727
1779999144513683000,25.690682861328124,343.03125,-103.40625762939453,28.818750381469727
1779999144532917800,25.709917724609376,343.125,-103.38750457763672,28.837501525878906
1779999144552162800,25.729162841796875,343.125,-103.38750457763672,28.818750381469727
1779999144571435500,25.748435546875,343.1625061035156,-103.38750457763672,28.818750381469727
1779999144590753500,25.76775341796875,343.2750244140625,-103.38750457763672,28.818750381469727
1779999144610120000,25.787119873046876,343.1625061035156,-103.38750457763672,28.818750381469727
1779999144629489000,25.806489013671875,343.0500183105469,-103.38750457763672,28.837501525878906
1779999144648896500,25.825896484375,343.03125,-103.40625762939453,28.837501525878906
1779999144668297000,25.845296875,343.1625061035156,-103.40625762939453,28.856250762939453
1779999144687768800,25.864768798828123,343.0875244140625,-103.38750457763672,28.875001907348633
1779999144707164000,25.884163818359376,343.1812744140625,-103.38750457763672,28.875001907348633
1779999144726031400,25.90303125,342.9750061035156,-103.38750457763672,28.912500381469727
1779999144745347000,25.92234716796875,342.8062744140625,-103.38750457763672,28.912500381469727
1779999144765279700,25.94227978515625,342.8625183105469,-103.38750457763672,28.912500381469727
1779999144784939000,25.96193896484375,343.0500183105469,-103.38750457763672,28.912500381469727
1779999144805124600,25.98212451171875,343.1625061035156,-103.38750457763672,28.89375114440918
1779999144825247000,26.0022470703125,343.0875244140625,-103.40625762939453,28.89375114440918
1779999144845291500,26.02229150390625,342.91876220703125,-103.38750457763672,28.89375114440918
1779999144865380400,26.04238037109375,342.6937561035156,-103.40625762939453,28.912500381469727
1779999144885219600,26.062219482421874,342.4312744140625,-103.40625762939453,28.912500381469727
1779999144905362700,26.08236279296875,342.3187561035156,-103.38750457763672,28.931251525878906
1779999144925426000,26.102426025390624,342.3937683105469,-103.3687515258789,28.931251525878906
1779999144945262000,26.122261962890626,342.5625,-103.3687515258789,28.912500381469727
1779999144965357600,26.142357666015624,342.6187744140625,-103.35000610351562,28.89375114440918
1779999144985213700,26.162213623046874,342.6750183105469,-103.35000610351562,28.875001907348633
1779999145005140500,26.182140380859376,342.63751220703125,-103.35000610351562,28.856250762939453
1779999145025391900,26.202391845703126,342.7125244140625,-103.33125305175781,28.837501525878906
1779999145045528000,26.222528076171876,342.6937561035156,-103.33125305175781,28.818750381469727
1779999145065332000,26.24233203125,342.6937561035156,-103.33125305175781,28.80000114440918
1779999145085474000,26.26247412109375,342.6000061035156,-103.33125305175781,28.781251907348633
1779999145105314300,26.282314208984374,342.46875,-103.33125305175781,28.80000114440918
1779999145125190700,26.302190673828125,342.4875183105469,-103.35000610351562,28.80000114440918
1779999145145336000,26.322336181640626,342.54376220703125,-103.33125305175781,28.80000114440918
1779999145165265400,26.342265380859374,342.6937561035156,-103.33125305175781,28.818750381469727
1779999145185181200,26.36218115234375,342.7875061035156,-103.35000610351562,28.818750381469727
1779999145205134300,26.38213427734375,342.8812561035156,-103.3687515258789,28.80000114440918
1779999145225305600,26.4023056640625,342.8625183105469,-103.3687515258789,28.80000114440918
1779999145245421300,26.42242138671875,342.9562683105469,-103.3687515258789,28.781251907348633
1779999145265476400,26.442476318359375,342.9750061035156,-103.38750457763672,28.781251907348633
1779999145285278200,26.4622783203125,343.0500183105469,-103.40625762939453,28.781251907348633
1779999145305433300,26.482433349609376,342.9000244140625,-103.42500305175781,28.80000114440918
1779999145325262600,26.5022626953125,342.9375,-103.44375610351562,28.818750381469727
1779999145345320200,26.5223203125,343.0500183105469,-103.44375610351562,28.837501525878906
1779999145365475800,26.542475830078125,343.01251220703125,-103.44375610351562,28.818750381469727
1779999145385557200,26.56255712890625,343.0687561035156,-103.44375610351562,28.837501525878906
1779999145405797400,26.58279736328125,343.1812744140625,-103.42500305175781,28.818750381469727
1779999145425446700,26.60244677734375,343.2562561035156,-103.44375610351562,28.818750381469727
1779999145445223400,26.622223388671873,343.40625,-103.44375610351562,28.818750381469727
1779999145465378800,26.64237890625,343.5,-103.42500305175781,28.837501525878906
1779999145485196500,26.662196533203126,343.5562744140625,-103.40625762939453,28.856250762939453
1779999145505591000,26.682591064453124,343.6500244140625,-103.40625762939453,28.875001907348633
1779999145525563000,26.70256298828125,343.6875,-103.40625762939453,28.856250762939453
1779999145545309700,26.722309814453126,343.76251220703125,-103.38750457763672,28.875001907348633
1779999145565168400,26.74216845703125,343.78125,-103.3687515258789,28.875001907348633
1779999145585419000,26.7624189453125,343.7437744140625,-103.38750457763672,28.89375114440918
1779999145605466600,26.782466552734373,343.875,-103.38750457763672,28.875001907348633
1779999145625273000,26.802273193359376,343.8187561035156,-103.38750457763672,28.856250762939453
1779999145645167600,26.822167724609375,343.95001220703125,-103.3687515258789,28.837501525878906
1779999145665376500,26.84237646484375,343.9875183105469,-103.3687515258789,28.856250762939453
1779999145685231900,26.86223193359375,343.96875,-103.38750457763672,28.856250762939453
1779999145705620700,26.882620849609374,343.96875,-103.3687515258789,28.856250762939453
1779999145725807000,26.90280712890625,343.8000183105469,-103.35000610351562,28.856250762939453
1779999145745584600,26.922584716796877,343.66876220703125,-103.33125305175781,28.856250762939453
1779999145765566500,26.94256640625,343.59375,-103.33125305175781,28.818750381469727
1779999145785554000,26.962553955078125,343.6125183105469,-103.33125305175781,28.80000114440918
1779999145805565400,26.9825654296875,343.57501220703125,-103.31250762939453,28.781251907348633
1779999145825505300,27.00250537109375,343.38751220703125,-103.31250762939453,28.762500762939453
1779999145845749200,27.022749267578124,343.0687561035156,-103.33125305175781,28.762500762939453
1779999145865399600,27.042399658203124,342.82501220703125,-103.35000610351562,28.743751525878906
1779999145885461200,27.062461181640625,342.75,-103.35000610351562,28.743751525878906
1779999145905494500,27.08249462890625,342.84375,-103.33125305175781,28.781251907348633
1779999145925375200,27.102375244140624,342.8812561035156,-103.29375457763672,28.762500762939453
1779999145945213000,27.122212890625,342.84375,-103.29375457763672,28.80000114440918
1779999145965129700,27.142129638671875,342.91876220703125,-103.31250762939453,28.781251907348633
1779999145985097200,27.16209716796875,342.9000244140625,-103.31250762939453,28.781251907348633
1779999146005097500,27.182097412109375,342.91876220703125,-103.31250762939453,28.781251907348633
1779999146025102600,27.2021025390625,343.125,-103.31250762939453,28.781251907348633
1779999146045319700,27.222319580078125,343.1437683105469,-103.33125305175781,28.781251907348633
1779999146065233200,27.242233154296876,343.1625061035156,-103.3687515258789,28.80000114440918
1779999146085180200,27.26218017578125,343.1625061035156,-103.3687515258789,28.818750381469727
1779999146105543400,27.28254345703125,343.0687561035156,-103.38750457763672,28.818750381469727
1779999146125342000,27.302342041015624,343.21875,-103.38750457763672,28.837501525878906
1779999146145214500,27.32221435546875,343.2750244140625,-103.3687515258789,28.856250762939453
1779999146165615400,27.342615478515626,343.3687744140625,-103.3687515258789,28.875001907348633
1779999146185369000,27.362369140625,343.4250183105469,-103.35000610351562,28.856250762939453
1779999146205215000,27.382215087890625,343.3687744140625,-103.35000610351562,28.818750381469727
1779999146225409000,27.402408935546877,343.3500061035156,-103.38750457763672,28.818750381469727
1779999146245249800,27.422249755859376,343.2562561035156,-103.38750457763672,28.818750381469727
1779999146265418800,27.442418701171874,343.2375183105469,-103.3687515258789,28.80000114440918
1779999146285263600,27.462263671875,343.21875,-103.3687515258789,28.818750381469727
1779999146305319200,27.482319091796874,343.0687561035156,-103.3687515258789,28.818750381469727
1779999146325400000,27.502400146484376,343.0875244140625,-103.38750457763672,28.80000114440918
1779999146345450800,27.52245068359375,343.1437683105469,-103.3687515258789,28.818750381469727
1779999146365452500,27.54245263671875,343.20001220703125,-103.38750457763672,28.80000114440918
1779999146385245400,27.562245361328124,343.10626220703125,-103.38750457763672,28.781251907348633
1779999146405340000,27.58233984375,343.03125,-103.38750457763672,28.781251907348633
1779999146425403100,27.602403076171875,342.8812561035156,-103.40625762939453,28.743751525878906
1779999146445234200,27.622234130859376,342.8812561035156,-103.42500305175781,28.725000381469727
1779999146465413400,27.642413330078124,342.8625183105469,-103.40625762939453,28.725000381469727
1779999146485655000,27.662655029296875,343.0687561035156,-103.40625762939453,28.70625114440918
1779999146505356000,27.68235595703125,343.10626220703125,-103.40625762939453,28.70625114440918
1779999146525203000,27.702202880859375,343.20001220703125,-103.38750457763672,28.725000381469727
1779999146545133000,27.722133056640626,343.21875,-103.38750457763672,28.70625114440918
1779999146565103000,27.74210302734375,343.125,-103.3687515258789,28.725000381469727
1779999146585572000,27.762572021484374,343.1437683105469,-103.38750457763672,28.70625114440918
1779999146605624000,27.7826240234375,343.3687744140625,-103.40625762939453,28.70625114440918
1779999146625391600,27.8023916015625,343.3687744140625,-103.38750457763672,28.687501907348633
1779999146645428500,27.822428466796875,343.3687744140625,-103.40625762939453,28.668750762939453
1779999146665498400,27.842498291015627,343.2562561035156,-103.38750457763672,28.668750762939453
1779999146685265000,27.862264892578125,343.20001220703125,-103.38750457763672,28.668750762939453
1779999146705357300,27.882357421875,343.40625,-103.35000610351562,28.668750762939453
1779999146725405200,27.9024052734375,343.6125183105469,-103.33125305175781,28.687501907348633
1779999146745240600,27.922240478515626,343.7062683105469,-103.31250762939453,28.70625114440918
1779999146765611000,27.942611083984374,343.8187561035156,-103.29375457763672,28.687501907348633
1779999146785348000,27.96234814453125,343.7250061035156,-103.29375457763672,28.687501907348633
1779999146805443000,27.982443115234375,343.7250061035156,-103.2750015258789,28.70625114440918
1779999146825526800,28.00252685546875,343.6312561035156,-103.29375457763672,28.70625114440918
1779999146845284400,28.022284423828125,343.5187683105469,-103.31250762939453,28.70625114440918
1779999146865374700,28.042374755859374,343.5562744140625,-103.31250762939453,28.70625114440918
1779999146885482200,28.062482177734374,343.66876220703125,-103.31250762939453,28.70625114440918
1779999146905285400,28.082285400390624,343.6500244140625,-103.31250762939453,28.743751525878906
1779999146925735400,28.1027353515625,343.6125183105469,-103.31250762939453,28.762500762939453
1779999146945432600,28.1224326171875,343.59375,-103.29375457763672,28.762500762939453
1779999146965226500,28.1422265625,343.5562744140625,-103.29375457763672,28.80000114440918
1779999146985127000,28.162126953125,343.48126220703125,-103.29375457763672,28.837501525878906
1779999147005073400,28.182073486328125,343.3312683105469,-103.29375457763672,28.837501525878906
1779999147025288000,28.202287841796874,343.10626220703125,-103.29375457763672,28.856250762939453
1779999147045465900,28.2224658203125,342.9750061035156,-103.31250762939453,28.875001907348633
1779999147065491000,28.242490966796876,342.8625183105469,-103.33125305175781,28.89375114440918
1779999147085560600,28.262560546875,342.6187744140625,-103.33125305175781,28.950000762939453
1779999147105789200,28.2827890625,342.375,-103.33125305175781,29.006250381469727
1779999147125635600,28.302635498046875,342.3000183105469,-103.33125305175781,29.043750762939453
1779999147145668600,28.322668701171875,342.4125061035156,-103.33125305175781,29.062501907348633
1779999147165794800,28.342794921875,342.28125,-103.33125305175781,29.062501907348633
1779999147185470000,28.362469970703124,342,-103.35000610351562,29.08125114440918
1779999147205482000,28.38248193359375,341.8500061035156,-103.35000610351562,29.100000381469727
1779999147225442800,28.40244287109375,341.70001220703125,-103.35000610351562,29.100000381469727
1779999147245675000,28.422675048828125,341.5687561035156,-103.3687515258789,29.137500762939453
1779999147265621800,28.442621826171877,341.4937744140625,-103.3687515258789,29.156251907348633
1779999147285581600,28.46258154296875,341.5687561035156,-103.38750457763672,29.156251907348633
1779999147305776600,28.482776611328124,341.5687561035156,-103.40625762939453,29.17500114440918
1779999147325439500,28.502439453125,341.51251220703125,-103.44375610351562,29.17500114440918
1779999147345555000,28.522554931640624,341.6625061035156,-103.44375610351562,29.17500114440918
1779999147365488600,28.542488525390624,341.6437683105469,-103.4625015258789,29.17500114440918
1779999147385415400,28.56241552734375,341.7375183105469,-103.50000762939453,29.17500114440918
1779999147405670400,28.58267041015625,341.8687744140625,-103.51875305175781,29.17500114440918
1779999147425547300,28.60254736328125,341.9250183105469,-103.53750610351562,29.17500114440918
1779999147445469700,28.6224697265625,341.9625244140625,-103.53750610351562,29.193750381469727
1779999147465702700,28.64270263671875,341.98126220703125,-103.5562515258789,29.212501525878906
1779999147485629000,28.66262890625,341.98126220703125,-103.5562515258789,29.212501525878906
1779999147505575200,28.6825751953125,341.79376220703125,-103.57500457763672,29.231250762939453
1779999147525799400,28.70279931640625,341.79376220703125,-103.57500457763672,29.26875114440918
1779999147545754000,28.722754150390625,341.79376220703125,-103.5562515258789,29.287500381469727
1779999147565688300,28.742688232421877,341.625,-103.5562515258789,29.306251525878906
1779999147585594000,28.762593994140627,341.5687561035156,-103.53750610351562,29.325000762939453
1779999147605546000,28.7825458984375,341.51251220703125,-103.51875305175781,29.325000762939453
1779999147625473000,28.80247314453125,341.70001220703125,-103.50000762939453,29.343751907348633
1779999147645234000,28.82223388671875,341.5875244140625,-103.50000762939453,29.325000762939453
1779999147665382700,28.842382568359376,341.60626220703125,-103.48125457763672,29.325000762939453
1779999147685476000,28.86247607421875,341.4937744140625,-103.4625015258789,29.306251525878906
1779999147705284400,28.882284423828125,341.2125244140625,-103.4625015258789,29.26875114440918
1779999147725367800,28.902367919921875,341.25,-103.4625015258789,29.250001907348633
1779999147745223700,28.9222236328125,341.32501220703125,-103.44375610351562,29.250001907348633
1779999147765241300,28.942241455078126,341.51251220703125,-103.44375610351562,29.250001907348633
1779999147785161500,28.962161376953127,341.6625061035156,-103.44375610351562,29.212501525878906
1779999147805393400,28.982393310546875,341.8500061035156,-103.44375610351562,29.193750381469727
1779999147825465600,29.002465576171875,341.79376220703125,-103.4625015258789,29.17500114440918
