time,seconds_elapsed,z,y,x
1779996508482256100,0.239256103515625,-0.09264999628067017,0.06190900132060051,-0.6731629967689514
1779996508499532500,0.256532470703125,0.21170899271965027,0.02355399914085865,-0.4667370021343231
1779996508516809000,0.27380908203125,0.18303200602531433,0.025908999145030975,-0.30973801016807556
1779996508534085000,0.291085205078125,0.10405799746513367,0.019058000296354294,-0.1987680047750473
1779996508551361500,0.308361572265625,0.045065999031066895,0.011725000105798244,-0.12610100209712982
1779996508568637700,0.3256376953125,0.009469999931752682,0.0058570001274347305,-0.077845998108387
1779996508585914000,0.3429140625,-0.008678999729454517,0.0032889998983591795,-0.04746000096201897
1779996508603190300,0.360190185546875,-0.02559100091457367,0.004222999792546034,-0.02824299968779087
1779996508620466700,0.377466796875,-0.03987300023436546,0.0022430000826716423,-0.01573999971151352
1779996508637742800,0.394742919921875,-0.053939998149871826,0.0014230000087991357,-0.007317000068724155
1779996508655019300,0.412019287109375,-0.05242700129747391,-0.00007100000220816582,-0.0012240000069141388
1779996508672295700,0.429295654296875,-0.04549799859523773,-0.001538999960757792,0.0015770000172778964
1779996508689571800,0.44657177734375,-0.041829001158475876,-0.00033400001120753586,0.0015579999890178442
1779996508706848300,0.46384814453125,-0.040414001792669296,-0.0005450000171549618,0.0014690000098198652
1779996508732762600,0.4897626953125,-0.042403001338243484,-0.0021909999195486307,0.0019509999547153711
1779996508750039000,0.5070390625,-0.04708399996161461,-0.003226999891921878,0.0027799999807029963
1779996508767315200,0.524315185546875,-0.04142799973487854,-0.0016060000052675605,0.00279999990016222
1779996508784591600,0.541591552734375,-0.034171998500823975,0.000299000006634742,0.0038590000476688147
1779996508801867800,0.55886767578125,-0.02072099968791008,-0.0006500000017695129,0.003911999985575676
1779996508819144200,0.576144287109375,-0.009816999547183514,-0.003976999782025814,0.004265000112354755
1779996508836420400,0.59342041015625,-0.0071390001103281975,-0.0016639999812468886,0.003763000015169382
1779996508853696800,0.61069677734375,-0.0030360000673681498,-0.0011289999820291996,0.004131000023335218
1779996508870973000,0.627972900390625,-0.0037930000107735395,-0.0019729998894035816,0.0031030001118779182
1779996508888249300,0.645249267578125,0.006849000230431557,-0.002245000097900629,0.001908999984152615
1779996508905525800,0.66252587890625,0.009844999760389328,-0.001883000019006431,0.0009790000040084124
1779996508922802000,0.679802001953125,0.0020129999611526728,0.00015900000289548188,0.00048600000445730984
1779996508940078300,0.697078369140625,-0.005807000212371349,-0.00045900000259280205,0.001996000064536929
1779996508957354500,0.7143544921875,-0.010226000100374222,-0.002386000007390976,0.003229999914765358
1779996508974631000,0.731630859375,-0.012516999617218971,-0.0003150000120513141,0.003329999977722764
1779996508991907000,0.748906982421875,-0.0058280001394450665,0.00011700000322889537,0.00266700005158782
1779996509009183500,0.76618359375,0.006632999982684851,0.0007769999792799354,0.0011070000473409891
1779996509026460000,0.7834599609375,0.002919000107795,-0.0026289999950677156,0.0010779999429360032
1779996509043736000,0.800736083984375,-0.0035669999197125435,-0.005090000107884407,0.0018390000332146883
1779996509061012500,0.818012451171875,-0.0010710000060498714,-0.0031300000846385956,0.0013170000165700912
1779996509078288400,0.835288330078125,0.0013810000382363796,0.0017740000039339066,-0.0022070000413805246
1779996509095564800,0.852564697265625,0.0012280000373721123,-0.0026539999525994062,-0.0042329998686909676
1779996509112841000,0.869841064453125,0.002251999918371439,-0.0030640000477433205,-0.004265999887138605
1779996509130117400,0.887117431640625,0.0033549999352544546,-0.0031220000237226486,-0.0011980000417679548
1779996509147393800,0.904393798828125,-0.0039900001138448715,-0.0026740001048892736,-0.00018000000272877514
1779996509164670000,0.921669921875,0.0038139999378472567,-0.0014819999923929572,-0.0019529999699443579
1779996509181946400,0.9389462890625,0.008566999807953835,-0.0009350000182166696,-0.0030739998910576105
1779996509207860700,0.96486083984375,-0.017835000529885292,-0.0007130000158213079,-0.00016999999934341758
1779996509225137200,0.98213720703125,0.011404000222682953,-0.0006099999882280827,-0.0005039999959990382
1779996509242413600,0.99941357421875,0.015836000442504883,-0.0009510000236332417,-0.0014459999511018395
1779996509259689700,1.016689697265625,0.022374000400304794,-0.0007110000005923212,-0.00291600008495152
1779996509276966100,1.033966064453125,0.016284000128507614,0.003194000106304884,-0.004674000199884176
1779996509294242300,1.0512421875,-0.0076870000921189785,0.0014440000522881746,-0.002964999992400408
1779996509311518700,1.068518798828125,-0.020820999518036842,-0.000645000021904707,-0.0005450000171549618
1779996509328795100,1.085795166015625,-0.010223999619483948,-0.00019500000053085387,-0.0003229999856557697
1779996509346071300,1.1030712890625,0.0017000000225380063,0.003140999935567379,-0.0001939999929163605
1779996509363347500,1.120347412109375,0.003703000023961067,0.0033760000951588154,-0.00040499999886378646
1779996509380624000,1.137623779296875,0.0028550000861287117,-0.0005310000269673765,0.0008759999764151871
1779996509397900300,1.154900390625,0.0062420000322163105,-0.0009399999980814755,0.0023350000847131014
1779996509415176400,1.172176513671875,0.00045900000259280205,-0.00011600000289035961,0.00367600005120039
1779996509441091000,1.198091064453125,-0.011857000179588795,-0.0011419999646022916,0.004666999913752079
1779996509458367200,1.2153671875,0.021815000101923943,-0.004226999823004007,-0.00030499999411404133
1779996509475643600,1.2326435546875,-0.003765000030398369,-0.0012379999971017241,-0.0033730000723153353
1779996509492919800,1.249919921875,-0.008038000203669071,0.00035600000410340726,-0.0039450000040233135
1779996509510196200,1.2671962890625,-0.018710000440478325,0.00003600000127335079,-0.0027290000580251217
1779996509527472400,1.284472412109375,-0.030350999906659126,-0.004647000227123499,-0.00029200001154094934
1779996509544748800,1.301748779296875,-0.004315000027418137,-0.0034719998948276043,-0.002177000045776367
1779996509562025000,1.31902490234375,0.030956000089645386,-0.002859999891370535,-0.007404000032693148
1779996509579301400,1.33630126953125,0.028975000604987144,-0.0036810000892728567,-0.009957999922335148
1779996509596577800,1.353577880859375,0.009801000356674194,-0.003823000006377697,-0.008019999600946903
1779996509613854000,1.37085400390625,-0.011885999701917171,-0.0033400000538676977,-0.005795999895781279
1779996509631130400,1.38813037109375,-0.01980699971318245,-0.0032730000093579292,-0.005406999960541725
1779996509648406500,1.405406494140625,-0.014104999601840973,0.0022819999139755964,-0.008194999769330025
1779996509665683000,1.422682861328125,-0.0014609999489039183,0.004650999791920185,-0.01071999967098236
1779996509682959400,1.43995947265625,0.00773000018671155,0.003129000077024102,-0.010587000288069248
1779996509700235500,1.457235595703125,0.013000999577343464,0.0004579999949783087,-0.007911000400781631
1779996509717511700,1.47451171875,0.01722799986600876,0.0048489999026060104,-0.003722999943420291
1779996509734788000,1.4917880859375,0.010490000247955322,0.005617999937385321,-0.00018699999782256782
1779996509752064500,1.509064453125,-0.0042489999905228615,0.005138999782502651,0.0013470000121742487
1779996509769340700,1.526340576171875,-0.005437000188976526,0.0054709999822080135,0.0013719999697059393
1779996509786616800,1.543616943359375,0.007302999962121248,0.006909000221639872,0.0014400000218302011
1779996509803893200,1.560893310546875,-0.003889000043272972,0.005481000058352947,0.003103999886661768
1779996509821169700,1.578169677734375,-0.01169000007212162,0.006289999932050705,0.005100000184029341
1779996509838446000,1.595446044921875,-0.006370000075548887,0.0056329998187720776,0.0049230000004172325
1779996509855722200,1.61272216796875,0.0006949999951757491,0.004945000167936087,0.0017849999712780118
1779996509872998400,1.629998291015625,-0.0011500000255182385,0.004414999857544899,-0.0008219999726861715
1779996509890274800,1.64727490234375,0.009103000164031982,0.0048039997927844524,-0.003155000042170286
1779996509907551000,1.664551025390625,0.003949999809265137,0.00228299992159009,-0.004149999935179949
1779996509924827400,1.681827392578125,-0.0028570001013576984,-0.00008199999865610152,-0.0037789999041706324
1779996509942103800,1.699103759765625,-0.011769999749958515,0.0019249999895691872,-0.003324999939650297
1779996509959380000,1.7163798828125,-0.005733999889343977,0.003286000108346343,-0.0050760000012815
1779996509976656400,1.733656494140625,-0.002061000093817711,0.001120000029914081,-0.006796000059694052
1779996509993932800,1.750932861328125,-0.0025569999124854803,0.0021210000850260258,-0.007323000114411116
1779996510011208700,1.768208740234375,0.00041700000292621553,0.00015700000221841037,-0.004891000222414732
1779996510028485000,1.785485107421875,0.010413000360131264,0.0005859999801032245,-0.0017010000301524997
1779996510045761500,1.802761474609375,0.009522000327706337,0.004036999773234129,0.0005440000095404685
1779996510063037700,1.82003759765625,0.007842999882996082,0.0042039998807013035,0.0017389999702572823
1779996510080314000,1.837314208984375,-0.00686099985614419,0.0033160001039505005,0.0021210000850260258
1779996510097590300,1.85459033203125,-0.018748000264167786,0.005644000135362148,0.0020979999098926783
1779996510114866700,1.87186669921875,-0.02394299954175949,0.004798999987542629,0.00406099995598197
1779996510132143000,1.88914306640625,-0.014059999957680702,0.004118000157177448,0.005917000118643045
1779996510149419300,1.906419189453125,-0.006291999947279692,0.0039369999431073666,0.006122000049799681
1779996510166695400,1.9236953125,0.004395000170916319,0.0027749999426305294,0.005078999791294336
1779996510183971800,1.940971923828125,0.015088999643921852,0.0014690000098198652,0.0009280000231228769
1779996510201248300,1.958248291015625,0.02550799958407879,-0.0001049999991664663,-0.0032079999800771475
1779996510227163000,1.984162841796875,0.0139979999512434,-0.0014860000228509307,-0.0037299999967217445
1779996510244439300,2.001439208984375,0.022753000259399414,-0.002329000039026141,-0.003292999928817153
1779996510261715200,2.018715087890625,0.024095000699162483,-0.004693999886512756,-0.0015460000140592456
1779996510287629800,2.0446298828125,0.008336000144481659,-0.006136999931186438,0.005516999866813421
1779996510304906000,2.061906005859375,0.2255209982395172,0.0007680000271648169,-0.02935599908232689
1779996510322182400,2.079182373046875,1.3280370235443115,-0.0894559994339943,0.017659999430179596
1779996510348097000,2.105096923828125,0.4201050102710724,-0.018383000046014786,-0.08373600244522095
1779996510365373000,2.122373046875,-0.4963270127773285,-0.0036230001132935286,0.01596199907362461
1779996510382649600,2.139649658203125,-1.2049269676208496,-0.01769700087606907,0.12679800391197205
1779996510399925800,2.15692578125,-1.4787379503250122,-0.0017160000279545784,0.16575099527835846
1779996510417202000,2.174201904296875,-1.1908520460128784,0.060593001544475555,0.08096399903297424
1779996510434478300,2.191478271484375,-0.07569299638271332,-0.0048790001310408115,-0.028392000123858452
1779996510451754800,2.208754638671875,1.7099790573120117,-0.12937800586223602,-0.07566499710083008
1779996510469031000,2.226031005859375,1.2065019607543945,-0.0462380014359951,-0.09713800251483917
1779996510486307000,2.24330712890625,0.6133610010147095,-0.0119420001283288,-0.04560299962759018
1779996510503583700,2.260583740234375,0.014177000150084496,-0.06865900009870529,0.04594400152564049
1779996510520860200,2.277860107421875,-0.8516330122947693,-0.0481019988656044,0.14083099365234375
1779996510538136300,2.29513623046875,-1.289639949798584,-0.015533999539911747,0.18963800370693207
1779996510555412700,2.312412841796875,-1.2529809474945068,0.07317700237035751,0.11950500309467316
1779996510572689000,2.32968896484375,-1.2338939905166626,0.11396200209856033,0.03718800097703934
1779996510607241700,2.36424169921875,1.069923996925354,-0.09721300005912781,-0.023127000778913498
1779996510624518000,2.381517822265625,1.245635986328125,-0.039409998804330826,-0.08820900321006775
1779996510641794300,2.398794189453125,1.078497052192688,-0.01640399917960167,-0.10364899784326553
1779996510659070500,2.416070556640625,0.6462090015411377,-0.033674001693725586,-0.04314599931240082
1779996510676347000,2.433346923828125,0.008782999590039253,-0.08549000322818756,0.08230599761009216
1779996510693623000,2.450623046875,-0.9610869884490967,0.016995999962091446,0.1442060023546219
1779996510710899500,2.4678994140625,-1.6959880590438843,0.10168000310659409,0.1099419966340065
1779996510728175600,2.485175537109375,-0.2630369961261749,-0.0045289997942745686,0.09439399838447571
1779996510745452000,2.5024521484375,0.5505110025405884,-0.007160999812185764,0.0142000000923872
1779996510762728400,2.519728515625,1.0707099437713623,0.019255999475717545,-0.07815299928188324
1779996510788642800,2.545642822265625,0.7719050049781799,0.021091999486088753,-0.10243900120258331
1779996510805919200,2.562919189453125,0.3368769884109497,-0.04244999960064888,-0.016937000676989555
1779996510823195400,2.5801953125,-0.29868701100349426,-0.10114999860525131,0.09239300340414047
1779996510840471800,2.597471923828125,-1.3721599578857422,0.03474399819970131,0.130280002951622
1779996510857748200,2.614748291015625,-1.6980750560760498,0.12193399667739868,0.10323700308799744
1779996510875024400,2.6320244140625,0.23000699281692505,0.030933000147342682,0.06060900166630745
1779996510892300500,2.649300537109375,0.6552789807319641,0.04983900114893913,-0.03410699963569641
1779996510909577000,2.666576904296875,0.9963939785957336,0.0437530018389225,-0.09605299681425095
1779996510926853400,2.683853271484375,1.1161969900131226,-0.028584999963641167,-0.09496200084686279
1779996510944129500,2.701129638671875,0.48370298743247986,-0.017413999885320663,-0.010951999574899673
1779996510961406000,2.718406005859375,-0.32144299149513245,0.008802000433206558,0.09798499941825867
1779996510978682400,2.735682373046875,-1.6023269891738892,0.13624100387096405,0.0984949991106987
1779996510995958500,2.75295849609375,-1.2855579853057861,0.057815998792648315,0.0611100010573864
1779996511021873000,2.778872802734375,0.0853710025548935,-0.09137000143527985,0.06021999940276146
1779996511047787500,2.80478759765625,0.6968809962272644,0.06790599972009659,-0.06476099789142609
1779996511065063700,2.822063720703125,0.693323016166687,0.04856500029563904,-0.07929900288581848
1779996511082340000,2.839340087890625,0.6502299904823303,-0.032308001071214676,-0.026745999231934547
1779996511108254500,2.86525439453125,-0.24347800016403198,-0.0409649983048439,0.08430600166320801
1779996511125531100,2.88253125,-1.756801962852478,0.09244400262832642,0.10046099871397018
1779996511142807300,2.899807373046875,-0.36708399653434753,-0.028025999665260315,0.08850499987602234
1779996511160083700,2.917083740234375,0.1892549991607666,-0.052101001143455505,0.03765299916267395
1779996511177360100,2.934360107421875,0.38680499792099,0.032175999134778976,-0.0005319999763742089
1779996511194636300,2.95163623046875,0.8041009902954102,-0.004420999903231859,-0.01809299923479557
1779996511211912700,2.96891259765625,0.5410810112953186,-0.02798300050199032,-0.04097000136971474
1779996511229188900,2.98618896484375,0.17829200625419617,-0.05453699827194214,0.02404800057411194
1779996511246465300,3.00346533203125,-0.2932110130786896,-0.07535900175571442,0.07418599724769592
1779996511272379600,3.029379638671875,-1.3914860486984253,0.14660200476646423,0.07387299835681915
1779996511289656000,3.046656005859375,-0.06725099682807922,-0.03331099823117256,0.08315300196409225
1779996511306932500,3.063932373046875,0.28432199358940125,-0.021229000762104988,0.009916000068187714
1779996511332846800,3.089846923828125,1.0313769578933716,-0.05095500126481056,-0.05458800122141838
1779996511350123300,3.107123291015625,0.5403199791908264,-0.007840000092983246,-0.035638000816106796
1779996511367399400,3.1243994140625,0.1368129998445511,-0.007174000144004822,0.02271299995481968
1779996511393313800,3.150313720703125,-0.9530770182609558,0.059769000858068466,0.08790600299835205
1779996511410590200,3.167590087890625,-1.1430959701538086,0.05803399905562401,0.06671199947595596
1779996511427866400,3.184866455078125,0.1426900029182434,-0.07164199650287628,0.04776199907064438
1779996511453781000,3.210781005859375,0.06163899973034859,0.063120998442173,-0.01686899922788143
1779996511471057400,3.228057373046875,1.023501992225647,-0.0023040000814944506,-0.06239299848675728
1779996511488333600,3.24533349609375,0.7922340035438538,-0.03207800164818764,-0.08900199830532074
1779996511514248400,3.27124853515625,0.13661299645900726,-0.05111600086092949,0.020387999713420868
1779996511531524600,3.288524658203125,-0.7975460290908813,0.03133799880743027,0.06267999857664108
1779996511548801000,3.305801025390625,-1.1344109773635864,0.049702998250722885,0.051791999489068985
1779996511566077400,3.323077392578125,0.0671830028295517,-0.09512200206518173,0.06239800155162811
1779996511583353600,3.340353515625,-0.26713401079177856,0.024908000603318214,0.013491000048816204
1779996511600630000,3.357630126953125,0.4368320107460022,0.011334000155329704,-0.013086000457406044
1779996511626544400,3.38354443359375,0.7141140103340149,-0.032308999449014664,-0.07552900165319443
1779996511643820800,3.40082080078125,0.38033199310302734,-0.03666900098323822,-0.02619599923491478
1779996511661097000,3.418096923828125,-0.06327500194311142,-0.03566800057888031,0.036605000495910645
1779996511687011600,3.444011474609375,-0.966234028339386,0.037668999284505844,0.05597899854183197
1779996511704287700,3.461287841796875,-0.2716270089149475,-0.03921699896454811,0.055991001427173615
1779996511721564400,3.478564453125,-0.09738299995660782,-0.0030330000445246696,0.007935999892652035
1779996511747478800,3.504478759765625,0.5535140037536621,0.0033390000462532043,-0.011579999700188637
1779996511764755200,3.521755126953125,0.5117849707603455,0.016404999420046806,-0.041218001395463943
1779996511782031400,3.53903125,0.35300201177597046,-0.013863000087440014,-0.015544000081717968
1779996511807946000,3.564946044921875,-0.3198600113391876,-0.0010000000474974513,0.05585699900984764
1779996511825222400,3.582222412109375,-0.9977260231971741,0.06947500258684158,0.051688000559806824
1779996511842498600,3.59949853515625,-0.15649199485778809,-0.021834999322891235,0.03781500086188316
1779996511868413200,3.6254130859375,-0.0541669987142086,0.03556999936699867,-0.0003659999929368496
1779996511885689300,3.642689453125,0.5102260112762451,0.0008650000090710819,-0.020589999854564667
1779996511902965800,3.6599658203125,0.5062609910964966,-0.006413999944925308,-0.038203999400138855
1779996511928880400,3.68588037109375,0.22505100071430206,-0.03449999913573265,0.00482999999076128
1779996511946156500,3.703156494140625,-0.5057010054588318,0.03397100046277046,0.04165799915790558
1779996511963433000,3.720432861328125,-0.5398780107498169,0.03151699900627136,0.03198299929499626
1779996511997985500,3.754985595703125,-0.223361998796463,0.0340379998087883,0.010657000355422497
1779996512015262000,3.772261962890625,0.3958669900894165,-0.005475000012665987,-0.015869999304413795
1779996512032538400,3.789538330078125,0.5528960227966309,-0.01437699981033802,-0.04044099897146225
1779996512049814500,3.806814453125,0.34087398648262024,0.0015559999737888575,-0.030757000669836998
1779996512067091000,3.824091064453125,0.025464000180363655,0.005960000213235617,-0.003871999913826585
1779996512084367400,3.841367431640625,-0.2730349898338318,0.0017089999746531248,0.0280349999666214
1779996512110281700,3.86728173828125,-0.460658997297287,0.010259999893605709,0.031842999160289764
1779996512127558400,3.884558349609375,-0.2101449966430664,0.0030950000509619713,0.017481999471783638
1779996512144834300,3.901834228515625,0.12574000656604767,0.0009210000280290842,-0.004443999845534563
1779996512162111000,3.919111083984375,0.45026999711990356,-0.010091999545693398,-0.029160000383853912
1779996512179387100,3.93638720703125,0.4481079876422882,-0.007160000037401915,-0.03678400069475174
1779996512205301800,3.9623017578125,0.06426800042390823,-0.0011950000189244747,-0.0018390000332146883
1779996512222578000,3.979577880859375,-0.3106189966201782,0.006686999928206205,0.02652899920940399
1779996512239854300,3.996854248046875,-0.4660100042819977,0.007151000201702118,0.0346670001745224
1779996512265768700,4.022768798828125,-0.2433129996061325,0.005557999946177006,0.019706999883055687
1779996512283045400,4.04004541015625,0.15169300138950348,-0.003066000062972307,-0.002139999996870756
1779996512300321500,4.057321533203125,0.40775299072265625,-0.005944000091403723,-0.02828500047326088
1779996512326236200,4.083236083984375,0.36248600482940674,-0.004701999947428703,-0.030673999339342117
1779996512343512300,4.10051220703125,0.06849399954080582,-0.00240899994969368,-0.001088000019080937
1779996512360788700,4.117788818359375,-0.30017998814582825,0.007199000101536512,0.025095000863075256
1779996512386703000,4.143703125,-0.4456149935722351,0.005733000114560127,0.03152500092983246
1779996512403979500,4.1609794921875,-0.23551000654697418,0.005111000034958124,0.01878499984741211
1779996512421256000,4.178255859375,0.14166800677776337,-0.00419399980455637,-0.0032019999343901873
1779996512438532000,4.195531982421875,0.38049599528312683,-0.005402000155299902,-0.028389999642968178
1779996512455808500,4.21280859375,0.436379998922348,-0.008422000333666801,-0.036024000495672226
1779996512473085000,4.2300849609375,0.2389809936285019,-0.005696000065654516,-0.017962999641895294
1779996512490361300,4.247361328125,-0.125573992729187,0.004635999910533428,0.011346999555826187
1779996512507637500,4.264637451171875,-0.3754810094833374,0.005456000100821257,0.030897999182343483
1779996512524914000,4.281913818359375,-0.44525599479675293,0.008059999905526638,0.031860001385211945
1779996512542190300,4.2991904296875,-0.2279299944639206,0.0034990001004189253,0.019778000190854073
1779996512559466500,4.316466552734375,0.12117300182580948,-0.0038469999562948942,-0.0010100000072270632
1779996512576743000,4.333742919921875,0.36963900923728943,-0.006149999797344208,-0.025239000096917152
1779996512594019300,4.351019287109375,0.4284609854221344,-0.008045000024139881,-0.03473399952054024
1779996512611295500,4.36829541015625,0.23047800362110138,-0.004077000077813864,-0.01819700002670288
1779996512628572200,4.385572265625,-0.10805600136518478,0.002827000105753541,0.01192499976605177
1779996512645848600,4.4028486328125,-0.36449798941612244,0.005675999913364649,0.03130599856376648
1779996512671763000,4.428762939453125,-0.3650040030479431,0.007058999966830015,0.026861000806093216
1779996512689039400,4.446039306640625,-0.06082899868488312,0.0008929999894462526,0.009929000400006771
1779996512706315500,4.4633154296875,0.24842099845409393,-0.002707999898120761,-0.014089999720454216
1779996512723592000,4.480592041015625,0.4209969937801361,-0.007015999872237444,-0.032026998698711395
1779996512740868000,4.4978681640625,0.34782299399375916,-0.005727999843657017,-0.028077999129891396
1779996512758144500,4.51514453125,0.07503700256347656,-0.0006409999914467335,-0.0035490000154823065
1779996512775421000,4.5324208984375,-0.24430599808692932,0.004298000130802393,0.020610999315977097
1779996512792697300,4.549697265625,-0.41088300943374634,0.0063749998807907104,0.02965399995446205
1779996512809973500,4.566973388671875,-0.3560650050640106,0.006020000204443932,0.02417300082743168
1779996512827250000,4.58425,-0.06630100309848785,0.0004830000107176602,0.008705999702215195
1779996512853164500,4.61016455078125,0.3482219874858856,-0.006198999937623739,-0.023197000846266747
1779996512870440700,4.627440673828125,0.4059099853038788,-0.0071319998241961,-0.03139900043606758
1779996512887717000,4.644717041015625,0.22934399545192719,-0.0033390000462532043,-0.017503999173641205
1779996512913631700,4.6706318359375,-0.23568899929523468,0.005125000141561031,0.019788000732660294
1779996512930908200,4.687908203125,-0.40031498670578003,0.005117999855428934,0.029982000589370728
1779996512948184600,4.7051845703125,-0.34834399819374084,0.004513000138103962,0.027139000594615936
1779996512965460700,4.722460693359375,-0.0690779983997345,-0.0002500000118743628,0.011230000294744968
1779996512982737200,4.739737060546875,0.22879600524902344,-0.003823000006377697,-0.013244000263512135
1779996513000013300,4.757013427734375,0.3939779996871948,-0.006006999872624874,-0.03280099853873253
1779996513017290000,4.7742900390625,0.33572399616241455,-0.006550000049173832,-0.029517000541090965
1779996513034566100,4.791566162109375,0.08242999762296677,-0.0024820000398904085,-0.003512999974191189
1779996513051842600,4.808842529296875,-0.22200199961662292,0.004089999943971634,0.021042000502347946
1779996513077757000,4.8347568359375,-0.40169599652290344,0.0076049999333918095,0.027688000351190567
1779996513095033300,4.852033447265625,-0.22983700037002563,0.004304999951273203,0.01779700070619583
1779996513112309800,4.869309814453125,0.08019799739122391,-0.0022720000706613064,0.00023600000713486224
1779996513138224000,4.89522412109375,0.3850550055503845,-0.005317999981343746,-0.029774999246001244
1779996513155500800,4.912500732421875,0.3328849971294403,-0.004513999912887812,-0.02779800072312355
1779996513172776700,4.929776611328125,0.08857700228691101,-0.001970000099390745,-0.003930999897420406
1779996513190053400,4.947053466796875,-0.2098979949951172,0.004621999803930521,0.01977900043129921
1779996513207329800,4.964329833984375,-0.38051700592041016,0.005816999822854996,0.02817700058221817
1779996513233244200,4.990244140625,-0.2316250056028366,0.0047240001149475574,0.018577000126242638
1779996513250520600,5.0075205078125,0.07055400311946869,-0.0029490001033991575,0.0014750000555068254
1779996513267797000,5.024796875,0.3131600022315979,-0.006252000108361244,-0.01905299909412861
1779996513293711600,5.050711669921875,0.32765400409698486,-0.004027999937534332,-0.027785999700427055
1779996513310987800,5.06798779296875,0.09330800175666809,-0.0013650000328198075,-0.006666999775916338
1779996513328264200,5.08526416015625,-0.19772100448608398,0.0033499998971819878,0.018679000437259674
1779996513345540600,5.10254052734375,-0.3668909966945648,0.0032919999212026596,0.030345000326633453
1779996513362816800,5.119816650390625,-0.3330410122871399,0.005373999942094088,0.02493399940431118
1779996513380093400,5.137093505859375,-0.08886799961328506,0.0016400000313296914,0.008720999583601952
1779996513397369600,5.15436962890625,0.19576400518417358,-0.0033909999765455723,-0.0122079998254776
1779996513414646000,5.17164599609375,0.3631120026111603,-0.004887999966740608,-0.02950900048017502
1779996513431922400,5.18892236328125,0.3241249918937683,-0.0050940001383423805,-0.02723200060427189
1779996513449198600,5.206198486328125,0.09871900081634521,-0.002979000099003315,-0.004883000161498785
1779996513466475000,5.22347509765625,-0.18704700469970703,0.00292899995110929,0.01885100081562996
1779996513483751200,5.240751220703125,-0.3602389991283417,0.005179999861866236,0.028297999873757362
1779996513509666000,5.266666015625,-0.2338310033082962,0.005890999920666218,0.017645999789237976
1779996513526942200,5.283942138671875,0.0517209991812706,-0.0002749999985098839,0.0004070000140927732
1779996513544218600,5.301218505859375,0.29135701060295105,-0.005268000066280365,-0.019009999930858612
1779996513570133000,5.327133056640625,0.3219650089740753,-0.005446000024676323,-0.025867000222206116
1779996513587409400,5.344409423828125,0.1041639968752861,-0.0012130000395700336,-0.0073910001665353775
1779996513604685600,5.361685546875,-0.17687399685382843,0.004647000227123499,0.014577999711036682
1779996513621962200,5.378962158203125,-0.3497459888458252,0.005563999991863966,0.025627000257372856
1779996513639238700,5.39623876953125,-0.3253229856491089,0.0052200001664459705,0.024403000250458717
1779996513665153000,5.422153076171875,0.043198999017477036,-0.0023040000814944506,0.0042570000514388084
1779996513682429400,5.439429443359375,0.2774659991264343,-0.005673000123351812,-0.017986999824643135
1779996513699705600,5.45670556640625,0.35450100898742676,-0.0055069997906684875,-0.030515000224113464
1779996513725620200,5.4826201171875,0.10713300108909607,-0.0007389999809674919,-0.009758000262081623
1779996513742896600,5.499896728515625,-0.16161300241947174,0.0032019999343901873,0.013675999827682972
1779996513760172800,5.5171728515625,-0.3343130052089691,0.004805999808013439,0.026057999581098557
1779996513786087400,5.54308740234375,-0.22960400581359863,0.003091000020503998,0.01902100071310997
1779996513803364000,5.560364013671875,0.0333699993789196,-0.0004079999926034361,0.002830999903380871
1779996513820640300,5.57764013671875,0.26275399327278137,-0.004586999770253897,-0.016181999817490578
1779996513837916700,5.594916748046875,0.3413200080394745,-0.005896000191569328,-0.026614999398589134
1779996513855192800,5.61219287109375,0.22340799868106842,-0.0027910000644624233,-0.01773500069975853
1779996513872469200,5.62946923828125,-0.025134000927209854,0.0014039999805390835,0.003898999886587262
1779996513889745700,5.64674560546875,-0.256307989358902,0.0042420001700520515,0.02047700062394142
1779996513907021800,5.664021728515625,-0.34363898634910583,0.005636999849230051,0.023812999948859215
1779996513924298200,5.68129833984375,-0.22680799663066864,0.0033650000113993883,0.016094999387860298
1779996513941574700,5.69857470703125,0.02978700026869774,-0.0007810000097379088,0.002171000000089407
1779996513967489300,5.7244892578125,0.31807100772857666,-0.005276999901980162,-0.022753000259399414
1779996513984765700,5.741765625,0.2990640103816986,-0.00457700015977025,-0.02493700012564659
1779996514002041900,5.759041748046875,0.10852299630641937,-0.00101500004529953,-0.009170000441372395
1779996514027956500,5.78495654296875,-0.2463430017232895,0.0032369999680668116,0.020409999415278435
1779996514045233000,5.80223291015625,-0.33506500720977783,0.0049430001527071,0.024893000721931458
1779996514062509300,5.81950927734375,-0.22456300258636475,0.0036100000143051147,0.016263000667095184
1779996514079785700,5.83678564453125,0.022787999361753464,-0.00013899999612476677,-0.000029999999242136255
1779996514097062000,5.854061767578125,0.24666400253772736,-0.004453999921679497,-0.01717199943959713
1779996514114338300,5.87133837890625,0.32851898670196533,-0.007317000068724155,-0.025129999965429306
1779996514131615000,5.888614990234375,0.22143299877643585,-0.0041589997708797455,-0.01713000051677227
1779996514148891100,5.90589111328125,-0.013993999920785427,0.0018289999570697546,0.0020540000405162573
1779996514166167600,5.92316748046875,-0.23924799263477325,0.004513999912887812,0.01786700077354908
1779996514192082000,5.94908203125,-0.2992680072784424,0.004360999912023544,0.02091200090944767
1779996514209358300,5.9663583984375,-0.10817000269889832,0.0000470000013592653,0.010077999904751778
1779996514226634800,5.983634765625,0.14082300662994385,-0.003160000080242753,-0.007600000128149986
1779996514252549400,6.00954931640625,0.3210729956626892,-0.0052089998498559,-0.02609499916434288
1779996514269825800,6.02682568359375,0.218516007065773,-0.0034229999873787165,-0.01783600077033043
1779996514287102000,6.04410205078125,-0.010831000283360481,0.0011520000407472253,0.002736999886110425
1779996514313016600,6.0700166015625,-0.2996140122413635,0.00545499986037612,0.024274000898003578
1779996514330293000,6.08729296875,-0.29829201102256775,0.0042570000514388084,0.02357500046491623
1779996514347569400,6.1045693359375,-0.11521299928426743,0.0006689999718219042,0.01310999970883131
1779996514373483800,6.13048388671875,0.2265309989452362,-0.0035669999197125435,-0.01451599970459938
1779996514390760200,6.14776025390625,0.3142069876194,-0.00443900004029274,-0.025880999863147736
1779996514408036900,6.165036865234375,0.22168999910354614,-0.00406600022688508,-0.018184000626206398
1779996514425313000,6.18231298828125,0.0017770000267773867,-0.00036899998667649925,0.003280000062659383
1779996514442589400,6.19958935546875,-0.21831999719142914,0.003120000008493662,0.01992800086736679
1779996514459865900,6.216865966796875,-0.31373700499534607,0.005212000105530024,0.02377999946475029
1779996514477142000,6.23414208984375,-0.2258940041065216,0.004585999995470047,0.015422999858856201
1779996514494418700,6.251418701171875,0.0002390000008745119,-0.0004970000009052455,0.0013200000394135714
1779996514511694800,6.26869482421875,0.21737800538539886,-0.005729000084102154,-0.014635000377893448
1779996514528971300,6.28597119140625,0.3096500039100647,-0.005708000157028437,-0.025906000286340714
1779996514546247700,6.30324755859375,0.22437800467014313,-0.00393400015309453,-0.01936200074851513
1779996514563523800,6.32052392578125,0.010517000220716,0.0003659999929368496,0.00011500000255182385
1779996514580800500,6.337800537109375,-0.20839999616146088,0.002658999990671873,0.016637999564409256
1779996514598076700,6.35507666015625,-0.3061879873275757,0.0042409999296069145,0.020948000252246857
1779996514615353000,6.37235302734375,-0.22448399662971497,0.003965000156313181,0.01576700061559677
1779996514632629500,6.38962939453125,-0.005226000212132931,-0.00009100000170292333,0.002753000007942319
1779996514649905700,6.40690576171875,0.20871099829673767,-0.004102999810129404,-0.013028999790549278
1779996514667182000,6.42418212890625,0.30189499258995056,-0.003992000129073858,-0.02410000003874302
1779996514693096700,6.4500966796875,0.1251640021800995,-0.003017999930307269,-0.00876300036907196
1779996514710373000,6.467373046875,-0.10494499653577805,0.002010999945923686,0.01130099967122078
1779996514727649500,6.4846494140625,-0.2752769887447357,0.00608500000089407,0.022355999797582626
1779996514753564200,6.510564208984375,-0.22717800736427307,0.005187999922782183,0.017263000831007957
1779996514770840600,6.527840576171875,-0.011927000246942043,0.0016479999758303165,0.005216000135987997
1779996514788116700,6.54511669921875,0.20024900138378143,-0.0035000001080334187,-0.009832000359892845
1779996514814031400,6.57103125,0.27741900086402893,-0.004724999889731407,-0.023693999275565147
1779996514831307800,6.588307861328125,0.12870599329471588,-0.002461999887600541,-0.011629000306129456
1779996514848584200,6.605584228515625,-0.09387200325727463,0.0016270000487565994,0.008918000385165215
1779996514865860400,6.6228603515625,-0.26182299852371216,0.0038999998942017555,0.020754000172019005
1779996514883136800,6.64013671875,-0.28134098649024963,0.004282000008970499,0.01949699968099594
1779996514900413200,6.6574130859375,-0.13135799765586853,0.0022430000826716423,0.008382000029087067
1779996514926327600,6.68332763671875,0.18938100337982178,-0.004612000193446875,-0.012873000465333462
1779996514943604000,6.70060400390625,0.2879540026187897,-0.004724999889731407,-0.022864000871777534
1779996514960880400,6.71788037109375,0.2213899940252304,-0.002730000065639615,-0.01966099999845028
1779996514978156800,6.73515673828125,0.0285279992967844,0.00024300000222865492,-0.001888000057078898
1779996514995433200,6.75243310546875,-0.1806029975414276,0.00303900009021163,0.017295999452471733
1779996515012709600,6.769709716796875,-0.28583401441574097,0.003949000034481287,0.02471200004220009
1779996515038624000,6.7956240234375,-0.1380690038204193,0.0030479999259114265,0.012004000134766102
1779996515055900400,6.812900390625,0.08181899785995483,0.00013800000306218863,-0.00432599987834692
1779996515073176800,6.8301767578125,0.24794399738311768,-0.005257999990135431,-0.01680699922144413
1779996515099091200,6.85609130859375,0.22112199664115906,-0.0038580000400543213,-0.01669600047171116
1779996515116368000,6.873367919921875,0.033562999218702316,0.0006949999951757491,-0.0031300000846385956
1779996515133644300,6.890644287109375,-0.17342199385166168,0.004184000194072723,0.011613000184297562
1779996515150920400,6.90792041015625,-0.2794390022754669,0.0053449999541044235,0.018650000914931297
1779996515168196900,6.92519677734375,-0.2203570008277893,0.003751999931409955,0.016441000625491142
1779996515185473300,6.942473388671875,-0.029704000800848007,-0.0006350000039674342,0.0058639999479055405
1779996515211388000,6.968387939453125,0.24093300104141235,-0.004255999810993671,-0.016798999160528183
1779996515228664000,6.9856640625,0.2618589997291565,-0.00355300004594028,-0.021100999787449837
1779996515245940700,7.002940673828125,0.13448500633239746,-0.0030010000336915255,-0.009879999794065952
1779996515271855000,7.028855224609375,-0.1655779927968979,0.002076999982818961,0.014875000342726707
1779996515289131500,7.046131591796875,-0.2708449959754944,0.003920000046491623,0.020291000604629517
1779996515306408000,7.063407958984375,-0.21790599822998047,0.002457000082358718,0.01592100039124489
1779996515323684000,7.08068408203125,-0.032972000539302826,0.00029600001289509237,0.0035280000884085894
1779996515340960800,7.097960693359375,0.16430500149726868,-0.0019660000689327717,-0.012137000449001789
1779996515358237000,7.11523681640625,0.26680099964141846,-0.0037849999498575926,-0.02216299995779991
1779996515375513300,7.132513427734375,0.21709200739860535,-0.0036989999935030937,-0.018293999135494232
1779996515392790000,7.1497900390625,0.043643999844789505,-0.0009379999828524888,-0.0011409999569877982
1779996515410066000,7.16706591796875,-0.15556100010871887,0.0015940000303089619,0.016906000673770905
1779996515427342600,7.184342529296875,-0.26601600646972656,0.004261999856680632,0.023339999839663506
1779996515444618800,7.20161865234375,-0.22197499871253967,0.005152000114321709,0.017489999532699585
1779996515470533400,7.227533447265625,0.0599059984087944,0.0003229999856557697,-0.0025969999842345715
1779996515487809800,7.244809814453125,0.2255609929561615,-0.0027149999514222145,-0.016669999808073044
1779996515505086200,7.262086181640625,0.2592320144176483,-0.004315999802201986,-0.021057000383734703
1779996515522362600,7.279362548828125,0.1452459990978241,-0.0021359999664127827,-0.012671999633312225
1779996515539639000,7.29663916015625,-0.052136000245809555,0.0009040000149980187,0.003745000110939145
1779996515556915500,7.31391552734375,-0.21670900285243988,0.004176999907940626,0.016116000711917877
1779996515574191600,7.331191650390625,-0.25960299372673035,0.004881000146269798,0.018061000853776932
1779996515591468000,7.348468017578125,-0.14681200683116913,0.0025369999930262566,0.01195400021970272
1779996515608744400,7.365744384765625,0.05071200057864189,-0.0005200000014156103,-0.0004400000034365803
1779996515634658800,7.391658935546875,0.25063300132751465,-0.00393400015309453,-0.017389999702572823
1779996515651935500,7.408935546875,0.21290700137615204,-0.0039079999551177025,-0.016426000744104385
1779996515669211600,7.426211669921875,0.052170999348163605,-0.0007910000276751816,-0.004360999912023544
1779996515686488000,7.443488037109375,-0.1388999968767166,0.002517000073567033,0.011080999858677387
1779996515703764500,7.460764404296875,-0.24918900430202484,0.004406000021845102,0.018347999081015587
1779996515721041000,7.478041015625,-0.21442200243473053,0.0041600000113248825,0.015482000075280666
1779996515738317300,7.4953173828125,-0.05100800096988678,-0.0006040000007487833,0.006436999887228012
1779996515755593500,7.512593505859375,0.13630099594593048,-0.004112999886274338,-0.007455000188201666
1779996515772870000,7.529869873046875,0.24322399497032166,-0.003754999954253435,-0.020161999389529228
1779996515790146600,7.547146484375,0.2114969938993454,-0.0025049999821931124,-0.01998700015246868
1779996515807423000,7.564423095703125,0.059411000460386276,-0.000977999996393919,-0.0062699997797608376
1779996515833337300,7.59033740234375,-0.19609400629997253,0.002819000044837594,0.015930000692605972
1779996515850613800,7.60761376953125,-0.24283599853515625,0.004114000126719475,0.018681999295949936
1779996515867890200,7.62489013671875,-0.14598199725151062,0.001509999972768128,0.012261999770998955
1779996515893804500,7.650804443359375,0.1253969967365265,-0.0015869999770075083,-0.007342999801039696
1779996515911081000,7.6680810546875,0.23359200358390808,-0.002776999957859516,-0.017449000850319862
1779996515928357400,7.685357421875,0.2070939987897873,-0.002211000071838498,-0.017331000417470932
1779996515945633800,7.7026337890625,0.06229500100016594,0.0005109999910928309,-0.005553000140935183
1779996515962910200,7.71991015625,-0.1191210001707077,0.0009139999747276306,0.009986000135540962
1779996515980186600,7.7371865234375,-0.23148900270462036,0.0019499999471008778,0.017890000715851784
1779996516006101000,7.76310107421875,-0.14507900178432465,0.0030759999062865973,0.009657000191509724
1779996516023377700,7.780377685546875,0.03205199912190437,0.0005259999888949096,-0.0011950000189244747
1779996516040653800,7.79765380859375,0.18806900084018707,-0.00266100000590086,-0.012416999787092209
1779996516057930200,7.81493017578125,0.2325190007686615,-0.004650999791920185,-0.016906000673770905
1779996516075206700,7.83220654296875,0.1428389996290207,-0.003575999988242984,-0.009339000098407269
1779996516092483000,7.849483154296875,-0.03046100027859211,-0.0006929999799467623,0.0044999998062849045
1779996516109759500,7.866759521484375,-0.18693499267101288,0.0023759999312460423,0.01362599991261959
1779996516127035600,7.88403564453125,-0.2351360023021698,0.0038429999258369207,0.014693000353872776
1779996516144312000,7.90131201171875,-0.14373500645160675,0.0016299999551847577,0.009327000007033348
1779996516161588500,7.91858837890625,0.032412998378276825,-0.0008960000122897327,-0.002326000016182661
1779996516187503000,7.944503173828125,0.22571299970149994,-0.00380200007930398,-0.016597000882029533
1779996516204779500,7.961779541015625,0.20265300571918488,-0.004807000048458576,-0.014488999731838703
1779996516222056000,7.979055908203125,0.06223699823021889,0.0004710000066552311,-0.0028019999153912067
1779996516247970600,8.004970458984374,-0.1843699961900711,0.0038240000139921904,0.016837000846862793
1779996516265247000,8.0222470703125,-0.2359970062971115,0.004654999822378159,0.01866300031542778
1779996516282523100,8.039523193359376,-0.14835700392723083,0.0024049999192357063,0.012517999857664108
1779996516299799600,8.056799560546875,0.024670999497175217,-0.0009360000258311629,0.0010560000082477927
1779996516317076000,8.074075927734375,0.1802159994840622,-0.0016199999954551458,-0.012864000163972378
1779996516334352400,8.091352294921874,0.22964799404144287,-0.0023640000727027655,-0.020459000021219254
1779996516351628800,8.10862890625,0.14758799970149994,-0.0021510000806301832,-0.013515000231564045
1779996516368905200,8.1259052734375,-0.01714799925684929,-0.0008909999742172658,0.003640000009909272
1779996516386181400,8.143181396484374,-0.17294000089168549,0.0023769999388605356,0.016253000125288963
1779996516403458000,8.1604580078125,-0.2301740050315857,0.0049669998697936535,0.017458999529480934
1779996516420734200,8.177734130859376,-0.15232600271701813,0.003000000026077032,0.011237000115215778
1779996516446648800,8.20364892578125,0.10219699889421463,-0.003364000003784895,-0.004856000188738108
1779996516463925200,8.22092529296875,0.21441799402236938,-0.003212000010535121,-0.016176000237464905
1779996516481201700,8.23820166015625,0.20306800305843353,-0.003613000037148595,-0.018302999436855316
1779996516507116000,8.264115966796876,-0.01119800005108118,0.000699999975040555,-0.0015610000118613243
1779996516524392400,8.281392333984375,-0.16407600045204163,0.0022849999368190765,0.012477000243961811
1779996516541668900,8.2986689453125,-0.22231799364089966,0.002879000036045909,0.01778700016438961
1779996516567583500,8.32458349609375,-0.07407499849796295,0.0008459999808110297,0.006831999868154526
1779996516584859600,8.341859619140624,0.092399001121521,-0.0017930000321939588,-0.005326000042259693
1779996516602136300,8.35913623046875,0.2051600068807602,-0.004197999835014343,-0.014677000232040882
1779996516619412500,8.37641259765625,0.19793500006198883,-0.0024309998843818903,-0.0168210007250309
1779996516636689000,8.39368896484375,0.0779770016670227,0.000893999997060746,-0.008213000372052193
1779996516653965300,8.41096533203125,-0.0862400010228157,0.0026519999373704195,0.005284999962896109
1779996516671241700,8.42824169921875,-0.2001579999923706,0.0035089999437332153,0.014790999703109264
1779996516688518100,8.44551806640625,-0.1984339952468872,0.0028200000524520874,0.01569399982690811
1779996516705794300,8.462794189453126,-0.07736500352621078,0.001230000052601099,0.008167999796569347
1779996516723070700,8.48007080078125,0.0851769968867302,-0.0019940000493079424,-0.0032969999592751265
1779996516740347100,8.49734716796875,0.19622400403022766,-0.003854000009596348,-0.013353000394999981
1779996516766261800,8.52326171875,0.14699700474739075,-0.0024759999942034483,-0.012288999743759632
1779996516783538200,8.5405380859375,-0.0004889999981969595,-0.0011500000255182385,-0.00041099998634308577
1779996516800814600,8.557814697265625,-0.14738300442695618,0.0013299999991431832,0.010737000033259392
1779996516826729200,8.583729248046875,-0.1935569941997528,0.0029170000925660133,0.014022000133991241
1779996516844005600,8.601005615234374,-0.07745999842882156,0.002044999971985817,0.006765999831259251
1779996516861282000,8.618281982421875,0.07914400100708008,0.0002880000101868063,-0.004015000071376562
1779996516887196400,8.644196533203125,0.20341700315475464,-0.003548000007867813,-0.0131029998883605
1779996516904472800,8.661472900390624,0.14347299933433533,-0.002053000032901764,-0.00903599988669157
1779996516921749200,8.678749267578125,0.0005970000056549907,0.00016500000492669642,0.0022559999488294125
1779996516947664000,8.704663818359375,-0.1877029985189438,0.0020729999523609877,0.014314999803900719
1779996516964940300,8.721940185546876,-0.1898369938135147,0.00380200007930398,0.012134999968111515
1779996516982216700,8.739216796875,-0.077504001557827,0.0022799998987466097,0.0029800001066178083
1779996517008131000,8.765131103515625,0.14456400275230408,-0.0025790000800043344,-0.011801999993622303
1779996517025407700,8.78240771484375,0.20385900139808655,-0.0047900001518428326,-0.01590000092983246
1779996517042684000,8.799683837890624,0.14592300355434418,-0.002644000109285116,-0.01182200014591217
1779996517068598500,8.8255986328125,-0.07396599650382996,0.0024949999060481787,0.005721000023186207
1779996517085875000,8.842875,-0.18511700630187988,0.002859999891370535,0.015313000418245792
1779996517103151400,8.8601513671875,-0.19063299894332886,0.0021359999664127827,0.01621999964118004
1779996517129066000,8.88606591796875,-0.004188999999314547,-0.0003809999907389283,0.002520000096410513
1779996517146342400,8.90334228515625,0.13772599399089813,-0.0014939999673515558,-0.010433999821543694
1779996517163618600,8.92061865234375,0.19920100271701813,-0.0038789999671280384,-0.016976000741124153
1779996517180895200,8.937895263671875,0.14612099528312683,-0.0038479999639093876,-0.012524000369012356
1779996517206809600,8.9638095703125,-0.06534100323915482,0.0018779999809339643,0.004786999896168709
1779996517224086000,8.9810859375,-0.17805300652980804,0.0032949999440461397,0.012481999583542347
1779996517241362700,8.99836279296875,-0.18756599724292755,0.0034360000863671303,0.01331000030040741
1779996517258638800,9.015638916015625,-0.08532900363206863,0.0014199999859556556,0.007319000083953142
1779996517284553500,9.041553466796875,0.13044799864292145,-0.002107999986037612,-0.007331999950110912
1779996517301830000,9.058829833984374,0.19314000010490417,-0.0020119999535381794,-0.013970999978482723
1779996517319106300,9.076106201171875,0.14452500641345978,-0.002346999943256378,-0.011250999756157398
1779996517345020700,9.102020751953125,-0.06129299849271774,0.0008500000112690032,0.004441000055521727
1779996517362297000,9.119297119140626,-0.17153300344944,0.002113000024110079,0.012988000176846981
1779996517379573500,9.136573486328125,-0.18343199789524078,0.0020290000829845667,0.01410599984228611
1779996517396850000,9.153849853515625,-0.08617900311946869,0.0011320000048726797,0.007495999801903963
1779996517414126000,9.1711259765625,0.058823999017477036,-0.000307999987853691,-0.004110000096261501
1779996517431402500,9.188402587890625,0.16823099553585052,-0.002213000087067485,-0.013643999584019184
1779996517448679200,9.20567919921875,0.1806419938802719,-0.0021440000273287296,-0.014589999802410603
1779996517465955300,9.222955322265625,0.08835099637508392,-0.0009379999828524888,-0.005967999808490276
1779996517483231700,9.240231689453125,-0.054882001131772995,-0.0002680000034160912,0.007602000143378973
1779996517500508200,9.257508056640624,-0.16671499609947205,0.0016139999497681856,0.01669600047171116
1779996517526422800,9.2834228515625,-0.1489659994840622,0.0030720001086592674,0.01217500027269125
1779996517543699200,9.30069921875,-0.02124200016260147,0.00035799999022856355,0.0034650000743567944
1779996517560975600,9.3179755859375,0.11665499955415726,-0.0017229999648407102,-0.007544000167399645
1779996517586890200,9.34389013671875,0.18091599643230438,-0.0037789999041706324,-0.015017000027000904
1779996517604166700,9.361166748046875,0.09499700367450714,-0.001550000044517219,-0.00948300026357174
1779996517621442800,9.37844287109375,-0.04522800073027611,0.0011249999515712261,0.0015109999803826213
1779996517647357700,9.404357666015626,-0.18150299787521362,0.0036359999794512987,0.010809999890625477
1779996517664633900,9.4216337890625,-0.14564299583435059,0.0021869998890906572,0.010503999888896942
1779996517681910300,9.43891015625,-0.023693999275565147,0.0009529999806545675,0.0045529999770224094
1779996517707824600,9.46482470703125,0.15539699792861938,-0.003404000075533986,-0.008717999793589115
1779996517725101300,9.482101318359375,0.17184099555015564,-0.0033009999897331,-0.011959999799728394
1779996517742377700,9.499377685546875,0.090208999812603,-0.0007220000261440873,-0.007513999938964844
1779996517768292000,9.5252919921875,-0.10650700330734253,0.0017760000191628933,0.008311999961733818
1779996517785568800,9.54256884765625,-0.175135999917984,0.003114999970421195,0.013283000327646732
1779996517802845000,9.559844970703125,-0.14320099353790283,0.0037670000456273556,0.009165000170469284
1779996517828759600,9.585759521484375,0.0443280003964901,-0.0022539999336004257,-0.0023719999007880688
1779996517846036000,9.603035888671876,0.15017299354076385,-0.0025530001148581505,-0.009379000402987003
1779996517863312400,9.6203125,0.1688549965620041,-0.00267999991774559,-0.011605000123381615
1779996517889226800,9.646226806640625,0.024796999990940094,0.0014400000218302011,-0.002509000012651086
1779996517906503200,9.663503173828126,-0.10400500148534775,0.002107999986037612,0.008360999636352062
1779996517923779800,9.68077978515625,-0.1730639934539795,0.002051000017672777,0.013543999753892422
1779996517941056300,9.69805615234375,-0.14085400104522705,0.0008399999933317304,0.01193500030785799
1779996517958332400,9.71533251953125,-0.02605300024151802,0.0012779999524354935,0.0033629999961704016
1779996517975608800,9.73260888671875,0.10188400000333786,0.000014000000192027073,-0.008376000449061394
1779996517992885200,9.74988525390625,0.16969099640846252,-0.001841000048443675,-0.014612999744713306
1779996518010161700,9.76716162109375,0.1394360065460205,-0.003029000014066696,-0.011649000458419323
1779996518027438000,9.78443798828125,0.030327999964356422,-0.0019000000320374966,-0.0018019999843090773
1779996518044714200,9.80171435546875,-0.09684000164270401,0.0006469999789260328,0.00834100041538477
1779996518061991000,9.818990966796875,-0.1665250062942505,0.0013330000219866633,0.01298299990594387
1779996518087905500,9.844905517578125,-0.09301900118589401,0.0030990000814199448,0.006345999892801046
1779996518105181700,9.862181640625,0.03550500050187111,-0.0001849999971454963,-0.0032629999332129955
1779996518122458400,9.879458251953125,0.14155100286006927,-0.001981999957934022,-0.010869000107049942
1779996518148372700,9.905372802734375,0.14082899689674377,-0.004705000203102827,-0.007619000039994717
1779996518165649200,9.922649169921876,0.033337999135255814,-0.0015559999737888575,0.0002280000044265762
1779996518182925300,9.93992529296875,-0.09433899819850922,0.0027169999666512012,0.007114000152796507
1779996518208840200,9.965840087890625,-0.16738499701023102,0.0033770001027733088,0.01017099991440773
1779996518226116400,9.983116455078125,-0.09283199906349182,0.00046400001156143844,0.006087999790906906
1779996518243393000,10.00039306640625,0.03499000146985054,-0.001782999956049025,-0.0012329999590292573
1779996518260669200,10.017669189453125,0.14093999564647675,-0.0022640000097453594,-0.01030999980866909
1779996518286583800,10.043583740234375,0.13975700736045837,-0.0017640000442042947,-0.012764999642968178
1779996518303860000,10.06085986328125,0.034285999834537506,-0.0005159999709576368,-0.00254100002348423
1779996518321136600,10.07813671875,-0.09156399965286255,0.0015960000455379486,0.008888999931514263
1779996518338413000,10.0954130859375,-0.1643729954957962,0.0038419999182224274,0.011738000437617302
1779996518355689200,10.112689208984374,-0.14292499423027039,0.0033770001027733088,0.009566999971866608
1779996518372965600,10.129965576171875,-0.03612099960446358,0.0001320000010309741,0.004246999975293875
1779996518390242000,10.147241943359376,0.0900690034031868,-0.0024800000246614218,-0.004095999989658594
1779996518407518500,10.1645185546875,0.16184799373149872,-0.002007999923080206,-0.012103999964892864
1779996518424795000,10.181794921875,0.13870400190353394,-0.0010809999657794833,-0.012416999787092209
1779996518442071300,10.1990712890625,0.03694299980998039,-0.0012659999774768949,-0.004220000002533197
1779996518459347700,10.21634765625,-0.08549699932336807,0.0008229999803006649,0.005989000201225281
1779996518485262000,10.242261962890625,-0.160631000995636,0.0018759999657049775,0.011826000176370144
1779996518502538500,10.25953857421875,-0.09455999732017517,0.000893999997060746,0.006649999879300594
1779996518519815200,10.276815185546875,0.025956999510526657,-0.00009100000170292333,-0.002546000061556697
1779996518545729500,10.3027294921875,0.1557520031929016,-0.00291300006210804,-0.012125000357627869
1779996518563006000,10.320005859375,0.1361680030822754,-0.0030509999487549067,-0.01066999975591898
1779996518580282400,10.337282470703125,0.03900900110602379,-0.0018370000179857016,-0.002131999935954809
1779996518597558800,10.354558837890625,-0.08101099729537964,0.0010059999767690897,0.008589000441133976
1779996518614835200,10.371835205078124,-0.1552720069885254,0.0026730000972747803,0.013282000087201595
1779996518632111400,10.389111328125,-0.14065900444984436,0.0028719999827444553,0.010273999534547329
1779996518649388000,10.406387939453126,-0.04335099831223488,0.0008420000085607171,0.0031679999083280563
1779996518666664400,10.42366455078125,0.07863900065422058,-0.0022169998846948147,-0.004838000051677227
1779996518692578800,10.449578857421875,0.15767499804496765,-0.002858000108972192,-0.010998999699950218
1779996518709855200,10.466855224609375,0.09815499931573868,0.00032699998700991273,-0.007818000391125679
1779996518727131600,10.484131591796874,-0.018693000078201294,0.0006430000066757202,0.002065999899059534
1779996518753046300,10.51004638671875,-0.15246300399303436,0.002615999896079302,0.012280999682843685
1779996518770322700,10.52732275390625,-0.13966499269008636,0.002503999974578619,0.012044999748468399
1779996518787599000,10.54459912109375,-0.044527001678943634,0.00014699999883305281,0.005628999788314104
1779996518813513700,10.570513671875,0.12099599838256836,-0.0004830000107176602,-0.01017099991440773
1779996518830790000,10.587789794921875,0.15579700469970703,-0.0013549999566748738,-0.014077000319957733
1779996518848066600,10.605066650390626,0.10121700167655945,-0.001927000004798174,-0.009366000071167946
1779996518865342700,10.6223427734375,-0.009650000371038914,-0.0013859999598935246,0.0008449999731965363
1779996518882619100,10.639619140625,-0.11549600213766098,0.0009120000177063048,0.008887000381946564
1779996518899895800,10.656895751953124,-0.15360499918460846,0.003607999999076128,0.010115999728441238
1779996518917172000,10.674171875,-0.10102400183677673,0.002563999965786934,0.006014999933540821
1779996518934448400,10.691448486328126,0.010053000412881374,-0.000859999970998615,0.00027600000612437725
1779996518960363000,10.717363037109376,0.143546000123024,-0.002899999963119626,-0.008526000194251537
1779996518977639400,10.734639404296875,0.13512000441551208,-0.001996000064536929,-0.009348999708890915
1779996518994915800,10.751915771484375,0.047807998955249786,0.0016949999844655395,-0.004720000084489584
1779996519012192300,10.769192138671874,-0.06679099798202515,0.001825000043027103,0.004521000199019909
1779996519029468400,10.786468505859375,-0.1424569934606552,0.0012440000427886844,0.01157199963927269
1779996519046744800,10.803744873046876,-0.135125994682312,0.0003490000090096146,0.01143800001591444
1779996519072659500,10.829659423828126,0.009162000380456448,-0.00022400000307243317,-0.0006339999963529408
1779996519089936000,10.846935791015625,0.11018200218677521,-0.0003600000054575503,-0.010844999924302101
1779996519107212300,10.86421240234375,0.1482899934053421,-0.0021440000273287296,-0.013372999615967274
1779996519133126700,10.890126708984376,0.053015001118183136,-0.0010999999940395355,-0.003490000031888485
1779996519150403000,10.907403076171875,-0.05948900058865547,-0.000653000024612993,0.006622999906539917
1779996519167679700,10.9246796875,-0.1378989964723587,0.0012659999774768949,0.0117419995367527
1779996519184956000,10.941955810546874,-0.13570499420166016,0.003872999921441078,0.009046000428497791
1779996519210870500,10.96787060546875,0.0032369999680668116,0.0008009999874047935,-0.0009599999757483602
1779996519228147200,10.985147216796875,0.10696399956941605,-0.0033279999624937773,-0.006612000055611134
1779996519245423400,11.00242333984375,0.14787599444389343,-0.003955000080168247,-0.009438999928534031
1779996519262699800,11.01969970703125,0.10266699641942978,-0.0035389999393373728,-0.006053000222891569
1779996519279976200,11.03697607421875,-0.0018810000037774444,0.0008099999977275729,0.00008099999831756577
1779996519297252600,11.054252685546874,-0.1055850014090538,0.004040000028908253,0.006037000101059675
1779996519314529000,11.071529052734375,-0.146916002035141,0.0034920000471174717,0.01025800034403801
1779996519331805400,11.088805419921876,-0.10239800065755844,0.001276999944821,0.009832000359892845
1779996519349081600,11.10608154296875,0.0021540001034736633,-0.0008410000009462237,0.004352000076323748
1779996519366358300,11.123358154296875,0.10254400223493576,-0.0023880000226199627,-0.004844999872148037
1779996519392273000,11.14927294921875,0.1298689991235733,-0.0008370000286959112,-0.01117900013923645
1779996519409549000,11.166549072265624,0.052448999136686325,0.001019999966956675,-0.006324999965727329
1779996519426825500,11.183825439453125,-0.05407100170850754,0.001214000047184527,0.0030720001086592674
1779996519444102000,11.201101806640626,-0.1300009936094284,0.0007520000217482448,0.010401999577879906
1779996519470016500,11.2270166015625,-0.09911800175905228,0.0014590000500902534,0.007408000063151121
1779996519487293000,11.24429296875,-0.001294999965466559,0.0006779999821446836,-0.000783999974373728
1779996519504569300,11.2615693359375,0.09885500371456146,-0.002065999899059534,-0.008528999984264374
1779996519530484000,11.28748388671875,0.12802299857139587,-0.0022060000337660313,-0.010397999547421932
1779996519547760400,11.304760498046875,0.056756000965833664,-0.001361000002361834,-0.0036170000676065683
1779996519565036500,11.32203662109375,-0.049782998859882355,-0.00037299998803064227,0.004525000229477882
1779996519582313000,11.33931298828125,-0.1267089992761612,0.0025549998972564936,0.009391999803483486
1779996519599589400,11.35658935546875,-0.1309169977903366,0.00113800005055964,0.008716000244021416
1779996519625504000,11.38250390625,-0.002265000017359853,0.0006820000126026571,0.0006949999951757491
1779996519642780400,11.399780517578124,0.09426499903202057,-0.0016560000367462635,-0.007633000146597624
1779996519660056800,11.417056884765625,0.13798700273036957,-0.003011999884620309,-0.011036000214517117
1779996519677333200,11.434333251953126,0.10038399696350098,-0.0017359999474138021,-0.007751999888569117
1779996519694609700,11.451609619140624,0.005692000035196543,-0.00005199999941396527,0.0003600000054575503
1779996519711885800,11.4688857421875,-0.09228900074958801,0.0027989998925477266,0.007466000039130449
1779996519737800700,11.49480078125,-0.1284489929676056,0.0020020001102238894,0.010552999563515186
1779996519755077000,11.5120771484375,-0.05901800096035004,0.0014979999978095293,0.006537000183016062
1779996519772353300,11.529353271484375,0.0450420007109642,-0.0003800000122282654,-0.0020310000982135534
1779996519789630000,11.5466298828125,0.12153100222349167,-0.0006389999762177467,-0.009836999699473381
1779996519806906400,11.56390625,0.12551000714302063,-0.0021059999708086252,-0.010699000209569931
1779996519824182500,11.5811826171875,0.0608379989862442,-0.0016029999824240804,-0.0031709999311715364
1779996519850097200,11.60709716796875,-0.08669199794530869,0.0008449999731965363,0.009131000377237797
1779996519867373600,11.62437353515625,-0.13376499712467194,0.0041519999504089355,0.010131999850273132
1779996519884650000,11.64164990234375,-0.10523699969053268,0.0028490000404417515,0.006574000231921673
1779996519910564600,11.667564697265625,0.03890199959278107,-0.001383999944664538,-0.001155999954789877
1779996519927841000,11.684841064453124,0.11649099737405777,-0.0029909999575465918,-0.006419000215828419
1779996519945117200,11.7021171875,0.12777100503444672,-0.002322999993339181,-0.00903400033712387
1779996519962393600,11.7193935546875,0.061889998614788055,-0.000299000006634742,-0.0052709998562932014
1779996519979670000,11.736669921875,-0.03688599914312363,0.0016840000171214342,0.001041000010445714
1779996519996946400,11.753946533203125,-0.11558400094509125,0.002570000011473894,0.00624299980700016
1779996520014223000,11.77122314453125,-0.12401299923658371,0.0014659999869763851,0.007938999682664871
1779996520031499000,11.7884990234375,-0.05993099883198738,0.0002749999985098839,0.004786999896168709
1779996520048775700,11.805775634765626,0.03867499902844429,-0.0013170000165700912,-0.0016060000052675605
1779996520066052000,11.823052001953124,0.11407399922609329,-0.0017869999865069985,-0.008186999708414078
1779996520091966700,11.848966796875,0.0981139987707138,-0.0010219999821856618,-0.009312000125646591
1779996520109243100,11.8662431640625,0.014027999714016914,-0.0003480000013951212,-0.0017480000387877226
1779996520126519600,11.88351953125,-0.0792979970574379,0.0011419999646022916,0.006678000092506409
1779996520143796000,11.9007958984375,-0.12487299740314484,0.0025049999821931124,0.010323000140488148
1779996520169710600,11.926710693359375,-0.06186800077557564,0.002145000034943223,0.005419999826699495
1779996520186987000,11.943987060546876,0.033709000796079636,0.0005559999844990671,-0.0023620000574737787
1779996520204263400,11.961263427734375,0.1086369976401329,-0.0019150000298395753,-0.007625000085681677
1779996520230178000,11.987177978515625,0.0987979993224144,-0.002085000043734908,-0.00762300007045269
1779996520247454200,12.0044541015625,0.01713399961590767,-0.00014800000644754618,-0.0014199999859556556
1779996520264731000,12.02173095703125,-0.07451599836349487,0.001500000013038516,0.0056119998916983604
1779996520290645200,12.047645263671875,-0.1206590011715889,0.001424000016413629,0.007962999865412712
1779996520307921700,12.064921630859375,-0.06276199966669083,-0.00007100000220816582,0.005044999998062849
1779996520325198000,12.082197998046874,0.030942000448703766,-0.0012829999905079603,-0.0014669999945908785
1779996520351112700,12.10811279296875,0.12111999839544296,-0.0012639999622479081,-0.009812000207602978
1779996520368389000,12.12538916015625,0.09699299931526184,-0.00022200000239536166,-0.008666000328958035
1779996520385665500,12.14266552734375,0.018122000619769096,0.00026599998818710446,-0.002088000066578388
1779996520411580200,12.168580078125,-0.10389900207519531,0.00023999999393709004,0.009444000199437141
1779996520428856600,12.185856689453125,-0.11894799768924713,0.0014169999631121755,0.009872999973595142
1779996520446133000,12.203133056640626,-0.0647049993276596,0.0010600000387057662,0.004838000051677227
1779996520472047600,12.229047607421874,0.06805700063705444,-0.0008069999748840928,-0.005661999806761742
1779996520489324000,12.246323974609375,0.11764000356197357,-0.00215000007301569,-0.008829999715089798
1779996520506600400,12.263600341796876,0.09786699712276459,-0.0021410000044852495,-0.006748999934643507
1779996520532514800,12.289514892578126,-0.024248000234365463,-0.0002840000088326633,0.0030239999759942293
1779996520549791200,12.306791259765625,-0.10002899914979935,0.002956999931484461,0.007691000122576952
1779996520567067600,12.324067626953125,-0.11770900338888168,0.0024029999040067196,0.008635999634861946
1779996520592982300,12.349982177734375,-0.02318600006401539,-0.0004769999941345304,0.0024560000747442245
1779996520610258700,12.3672587890625,0.06702899932861328,-0.0026910000015050173,-0.00406799977645278
1779996520627535000,12.38453515625,0.117467001080513,-0.002781999995931983,-0.009213999845087528
1779996520653449700,12.41044970703125,0.06754899770021439,-0.0016129999421536922,-0.0061599998734891415
1779996520670726100,12.42772607421875,-0.019812000915408134,-0.0006360000115819275,0.0005750000127591193
1779996520688002600,12.44500244140625,-0.09555599838495255,0.0016210000030696392,0.006889000069350004
1779996520705279000,12.462279052734376,-0.114717997610569,0.0017389999702572823,0.009246000088751316
1779996520722555400,12.479555419921875,-0.06601899862289429,0.0002579999854788184,0.0058280001394450665
1779996520739831800,12.496831787109375,0.020168999210000038,0.00030499999411404133,-0.001475999946705997
1779996520765746400,12.522746337890625,0.11319400370121002,-0.0022120000794529915,-0.008306000381708145
1779996520783022600,12.540022705078124,0.09771300107240677,-0.002078999998047948,-0.006616999860852957
1779996520800299300,12.55729931640625,0.02638000063598156,-0.00164899998344481,-0.00021499999274965376
1779996520826213600,12.583213623046875,-0.09383799880743027,0.0028119999915361404,0.00611699977889657
1779996520843490300,12.600490234375,-0.11378499865531921,0.002795000094920397,0.007079999893903732
1779996520860766500,12.617766357421875,-0.06693799793720245,0.0007810000097379088,0.005423999857157469
1779996520886681000,12.64368115234375,0.05967099964618683,-0.001462999964132905,-0.002641000086441636
1779996520903957800,12.660957763671876,0.10908299684524536,-0.001408000010997057,-0.008390000090003014
1779996520921234000,12.67823388671875,0.09501700103282928,-0.0011309999972581863,-0.008050000295042992
1779996520947148500,12.7041484375,-0.01632400043308735,0.00048499999684281647,0.0004140000091865659
1779996520964425000,12.721425048828126,-0.08892200142145157,0.0012420000275596976,0.007079000119119883
1779996520981701400,12.738701416015624,-0.1096929982304573,0.002300000051036477,0.008666000328958035
1779996520998977500,12.7559775390625,-0.06682299822568893,0.0010379999876022339,0.006018000189214945
1779996521016254200,12.773254150390626,0.014636999927461147,-0.0012750000460073352,0.0005329999839887023
1779996521033530400,12.7905302734375,0.08686000108718872,-0.0004839999892283231,-0.006395999807864428
1779996521050806800,12.807806884765625,0.1075960025191307,-0.00005400000009103678,-0.009721999987959862
1779996521068083500,12.82508349609375,0.0655670017004013,0.0003349999897181988,-0.006515000015497208
1779996521093997800,12.850997802734375,-0.052907999604940414,-0.00001700000029813964,0.005657999776303768
1779996521111274200,12.868274169921875,-0.10451299697160721,0.0028089999686926603,0.008968000300228596
1779996521128551000,12.885551025390624,-0.09491399675607681,0.0019630000460892916,0.006874999962747097
1779996521145827000,12.9028271484375,-0.029872000217437744,0.0004140000091865659,0.0019630000460892916
1779996521163103500,12.920103515625,0.05239899829030037,-0.0011249999515712261,-0.002686999971047044
1779996521180380000,12.9373798828125,0.10360000282526016,-0.0008859999943524599,-0.007590000052005053
1779996521197656300,12.95465625,0.09397199749946594,-0.0010130000300705433,-0.007691000122576952
1779996521214932700,12.9719326171875,0.03178500011563301,-0.0014270000392571092,-0.0034799999557435513
1779996521232209200,12.989209228515625,-0.04910799860954285,0.0005150000215508044,0.003450999967753887
1779996521249485600,13.006485595703126,-0.09988600015640259,0.0013249999610707164,0.00787500012665987
1779996521266762000,13.023761962890624,-0.09227199852466583,0.0032599999103695154,0.0053460001945495605
1779996521292676600,13.049676513671875,0.009840000420808792,-0.001221999991685152,-0.000610999995842576
1779996521309953000,13.066953125,0.07970599830150604,-0.0029770000837743282,-0.004550999961793423
1779996521327229400,13.0842294921875,0.10332199931144714,-0.0021989999804645777,-0.007608999963849783
1779996521344505900,13.101505859375,0.06758199632167816,0.00013600000238511711,-0.006912000011652708
1779996521361782300,13.1187822265625,-0.007745000068098307,0.000598000013269484,-0.0008370000286959112
1779996521387697000,13.14469677734375,-0.09632900357246399,0.0006220000213943422,0.00841199979186058
1779996521404973300,13.161973388671875,-0.09113200008869171,0.0015589999966323376,0.008701999671757221
1779996521422249700,13.179249755859376,-0.032632000744342804,0.0013170000165700912,0.002862999914214015
1779996521448164000,13.2051640625,0.07455699890851974,-0.0022960000205785036,-0.004945000167936087
1779996521465440500,13.2224404296875,0.09988799691200256,-0.0018779999809339643,-0.006432000081986189
1779996521482717000,13.239717041015625,0.06514099985361099,-0.0005510000046342611,-0.004461000207811594
1779996521499993300,13.256993408203124,-0.006562999915331602,-0.00008399999933317304,-0.0007619999814778566
1779996521525908000,13.282907958984374,-0.0950549989938736,0.0004360000020824373,0.006988000124692917
1779996521543184400,13.300184326171875,-0.08906300365924835,0.000048999998398358,0.006386999972164631
1779996521560460800,13.317460693359376,-0.031808000057935715,0.0011289999820291996,0.0018029999919235706
1779996521586375400,13.34337548828125,0.07493899762630463,-0.0009500000160187483,-0.005625999998301268
1779996521603651800,13.36065185546875,0.09774699807167053,-0.0027779999654740095,-0.005770000163465738
1779996521620928300,13.37792822265625,0.06488200277090073,-0.0019310000352561474,-0.003602999961003661
1779996521646843000,13.4038427734375,-0.043591998517513275,0.000981000019237399,0.00317199993878603
1779996521664119300,13.421119384765625,-0.09309999644756317,0.002019000006839633,0.005820999853312969
1779996521681395500,13.4383955078125,-0.08929499983787537,0.0019940000493079424,0.005894999951124191
1779996521707310300,13.464310302734376,0.0064570000395178795,-0.0005050000036135316,-0.00027600000612437725
1779996521724586500,13.48158642578125,0.0726030021905899,-0.0012550000101327896,-0.005166999995708466
1779996521741863200,13.49886328125,0.09765399992465973,-0.002078999998047948,-0.007606999948620796
1779996521759139600,13.5161396484375,0.06461600214242935,-0.00046300000394694507,-0.005468000192195177
1779996521776415700,13.533415771484375,-0.00431999983265996,0.0014769999543204904,-0.0000670000008540228
1779996521793692200,13.550692138671875,-0.07090099900960922,0.0017359999474138021,0.004755000118166208
1779996521810968600,13.567968505859374,-0.09640000015497208,0.002234000014141202,0.006756999995559454
1779996521828245000,13.585244873046875,-0.06513000279664993,0.0008169999928213656,0.005332000087946653
1779996521845521400,13.602521484375,0.003481999970972538,-0.0007910000276751816,0.0015109999803826213
1779996521862797800,13.6197978515625,0.06908900290727615,0.00016999999934341758,-0.00571999978274107
1779996521888712400,13.64571240234375,0.08525600284337997,-0.0019650000613182783,-0.007040000054985285
1779996521905989000,13.662989013671876,0.03261300176382065,-0.0009250000002793968,-0.002463999902829528
1779996521923265300,13.680265380859375,-0.03954499959945679,-0.000043000000005122274,0.00278700003400445
1779996521949180000,13.706179931640625,-0.09403400123119354,0.0026110000908374786,0.005975000094622374
1779996521966456300,13.723456298828125,-0.06444399803876877,0.0026660000439733267,0.003848999971523881
1779996521983732700,13.740732666015624,0.003117999993264675,-0.0007559999939985573,0.0010720000136643648
1779996522001009200,13.758009033203125,0.06746499985456467,-0.0013510000426322222,-0.003218000056222081
1779996522026923800,13.783923828125,0.0841820016503334,-0.001825000043027103,-0.005702999886125326
1779996522044200200,13.8012001953125,0.03212900087237358,0.00003099999958067201,-0.0029609999619424343
1779996522061476400,13.818476318359375,-0.03698199987411499,0.0015770000172778964,0.0021750000305473804
1779996522087391000,13.844390869140625,-0.09101200103759766,0.0017969999462366104,0.006581000052392483
1779996522104667400,13.86166748046875,-0.0619099996984005,0.0011630000080913305,0.004236999899148941
1779996522121943800,13.87894384765625,0.002672000089660287,-0.0011569999624043703,0.0002739999908953905
1779996522139220500,13.896220458984375,0.06578899919986725,-0.0012120000319555402,-0.00458399998024106
1779996522156496600,13.91349658203125,0.0900140032172203,0.000014999999621068127,-0.008395999670028687
1779996522173773000,13.93077294921875,0.06335200369358063,-0.0002579999854788184,-0.00583299994468689
1779996522191049700,13.9480498046875,-0.0004189999890513718,-0.00022899999748915434,0.0009500000160187483
1779996522208326000,13.965325927734375,-0.06336399912834167,-0.00046499999007210135,0.007282000035047531
1779996522225602600,13.9826025390625,-0.08964899927377701,-0.00015700000221841037,0.008987000212073326
1779996522242878700,13.999878662109374,-0.06471399962902069,0.0023739999160170555,0.004195000045001507
1779996522260155100,14.017155029296875,-0.002070999937132001,0.0012260000221431255,-0.0012839999981224537
1779996522286070000,14.043070068359375,0.081277996301651,-0.0021180000621825457,-0.0053079999051988125
1779996522303346200,14.06034619140625,0.08322100341320038,-0.002988999942317605,-0.004354000091552734
1779996522320622600,14.07762255859375,0.034999001771211624,-0.0010450000409036875,-0.0020719999447464943
1779996522346537200,14.103537109375,-0.06270799785852432,0.0013810000382363796,0.0032450000289827585
1779996522363813600,14.120813720703126,-0.09026499837636948,0.0015979999443516135,0.005508999805897474
1779996522381090300,14.13809033203125,-0.06374099850654602,0.00042299999040551484,0.005900000222027302
1779996522398366500,14.155366455078125,-0.0016799999866634607,-0.0003279999946244061,0.0019249999895691872
1779996522415643000,14.172642822265624,0.060311999171972275,-0.0010779999429360032,-0.0037950000260025263
1779996522432919300,14.189919189453125,0.0865980014204979,-0.0007280000136233866,-0.007584999781101942
1779996522450195700,14.20719580078125,0.06279899924993515,0.0003499999875202775,-0.005799000151455402
1779996522467472100,14.22447216796875,0.003129000077024102,0.0008110000053420663,-0.0004569999873638153
1779996522484748500,14.24174853515625,-0.05925200134515762,0.0016039999900385737,0.004327000118792057
1779996522510663200,14.2676630859375,-0.08088400214910507,0.0007029999978840351,0.006599999964237213
1779996522527939600,14.284939697265624,-0.036093998700380325,-0.000506000011228025,0.0034970000851899385
1779996522545216000,14.302216064453125,0.028929999098181725,-0.00017100000695791095,-0.0017559999832883477
1779996522571130600,14.328130615234375,0.08331199735403061,-0.00048499999684281647,-0.0069149998016655445
1779996522588407000,14.345406982421874,0.06206100061535835,-0.0007570000016130507,-0.0049230000004172325
1779996522605683500,14.362683349609375,0.004011000040918589,-0.0009689999860711396,0.0011620000004768372
1779996522622959900,14.3799599609375,-0.05597100034356117,-0.0006970000104047358,0.006372000090777874
1779996522640236300,14.397236328125,-0.08498000353574753,0.0019910000264644623,0.006080999970436096
1779996522657512700,14.4145126953125,-0.06402300298213959,0.00203999993391335,0.0024240000639110804
1779996522674789000,14.4317890625,-0.005572999827563763,0.0003480000013951212,-0.001230000052601099
1779996522692065300,14.449065185546875,0.05568600073456764,-0.0014609999489039183,-0.0037609999999403954
1779996522709342000,14.466342041015626,0.08455599844455719,-0.002248999895527959,-0.005801000166684389
1779996522726618400,14.483618408203125,0.06251300126314163,-0.0017969999462366104,-0.005142000038176775
1779996522752533000,14.509532958984375,-0.027317000553011894,0.0005929999751970172,0.001449999981559813
1779996522769809400,14.526809326171875,-0.0762529969215393,0.0010300000431016088,0.004705999977886677
1779996522787085600,14.54408544921875,-0.07934100180864334,0.002025000052526593,0.0053980001248419285
1779996522813000400,14.57000048828125,-0.004964999854564667,-0.00035600000410340726,0.00002700000004551839
1779996522830276900,14.58727685546875,0.05554100126028061,-0.002345999935641885,-0.0036440000403672457
1779996522847553300,14.60455322265625,0.08299700170755386,-0.0027520000003278255,-0.004935999866575003
1779996522873467600,14.630467529296874,0.03646399825811386,0.00046099998871795833,-0.0030139998998492956
1779996522890744300,14.647744384765625,-0.027211999520659447,0.0019280000124126673,0.000775999971665442
1779996522908020700,14.665020751953126,-0.0740170031785965,0.00139999995008111,0.0053969998843967915
1779996522925297000,14.682296875,-0.07678700238466263,0.0005380000220611691,0.0076779997907578945
1779996522942573600,14.699573486328125,-0.03492699936032295,-0.0009689999860711396,0.00519500020891428
1779996522959850000,14.71685009765625,0.025976000353693962,-0.0008500000112690032,-0.0011919999960809946
1779996522985764600,14.7427646484375,0.080594003200531,-0.0009069999796338379,-0.007720999885350466
1779996523003041000,14.760041015625,0.06195399910211563,-0.0013970000436529517,-0.005171000026166439
1779996523020317700,14.777317626953124,0.007848000153899193,-0.0006000000284984708,0.0006840000278316438
1779996523037594000,14.794593994140625,-0.05025000125169754,0.0005339999916031957,0.004916999954730272
1779996523054870300,14.811870361328126,-0.08020800352096558,0.0015539999585598707,0.005698999855667353
1779996523072147000,14.82914697265625,-0.062334999442100525,0.0007769999792799354,0.004707000218331814
1779996523089423400,14.84642333984375,-0.00797600019723177,-0.0003819999983534217,0.0013780000153928995
1779996523106699800,14.86369970703125,0.05006499961018562,0.000035000000934815034,-0.0033160001039505005
1779996523123976200,14.88097607421875,0.07885300368070602,-0.0011759999906644225,-0.0071760001592338085
1779996523141252600,14.898252685546876,0.06266599893569946,-0.00190100003965199,-0.005638999864459038
1779996523158528800,14.91552880859375,0.010600999929010868,-0.0011149999918416142,-0.0005460000247694552
1779996523175805400,14.932805419921875,-0.048207998275756836,0.00020500000391621143,0.004755000118166208
1779996523193081600,14.95008154296875,-0.07936199754476547,0.0017640000442042947,0.006068000104278326
1779996523210358300,14.967358154296875,-0.06415300071239471,0.002265000017359853,0.004253000020980835
1779996523227634700,14.984634765625,-0.01253500021994114,0.00007100000220816582,0.0013310000067576766
1779996523253549300,15.01054931640625,0.06752999871969223,-0.0006319999811239541,-0.0036770000588148832
1779996523270825700,15.02782568359375,0.07599399983882904,0.0003349999897181988,-0.007164999842643738
1779996523288102100,15.04510205078125,0.041322000324726105,0.0009159999899566174,-0.005772000178694725
1779996523305378600,15.062378662109374,-0.017354000359773636,0.00008800000068731606,0.0002099999983329326
1779996523322655000,15.079655029296875,-0.06483499705791473,0.00045200000749900937,0.005927999969571829
1779996523339931400,15.096931396484376,-0.07458499819040298,0.001462999964132905,0.006473999936133623
1779996523365846000,15.122845947265626,-0.014151999726891518,0.0007389999809674919,-0.0002119999990100041
1779996523383122400,15.140122314453125,0.042054999619722366,-0.0008149999775923789,-0.00355600006878376
1779996523400398800,15.15739892578125,0.07316400110721588,-0.0008410000009462237,-0.004712999798357487
1779996523417675500,15.174675537109374,0.061260998249053955,-0.0009459999855607748,-0.0033740000799298286
1779996523443590000,15.20058984375,-0.015007000416517258,0.0003769999893847853,0.0013500000350177288
1779996523460866300,15.2178662109375,-0.06245199963450432,0.0020540000405162573,0.004296999890357256
1779996523478142700,15.235142822265624,-0.0725879967212677,0.0019910000264644623,0.005365999881178141
1779996523504057300,15.261057373046874,-0.013925000093877316,0.00016900000628083944,0.0012390000047162175
1779996523521334000,15.278333984375,0.04161199927330017,-0.0019839999731630087,-0.0020779999904334545
1779996523538610400,15.2956103515625,0.07173199951648712,-0.0026730000972747803,-0.004112000111490488
1779996523555886800,15.312886962890625,0.059716999530792236,-0.0005489999894052744,-0.004838999826461077
1779996523573163300,15.330163330078125,0.013063999824225903,0.000770999991800636,-0.002445999998599291
1779996523590439700,15.347439697265624,-0.04063199833035469,0.0011180000146850944,0.0020959998946636915
1779996523607716000,15.364716064453125,-0.07017499953508377,0.0001539999939268455,0.005413000006228685
1779996523624992500,15.381992431640626,-0.058003999292850494,0.00007300000288523734,0.006283999886363745
1779996523642269000,15.39926904296875,-0.012873999774456024,0.0005949999904260039,0.002337000099942088
1779996523659545300,15.41654541015625,0.03950300067663193,-0.00028199999360367656,-0.0035439999774098396
1779996523676821800,15.43382177734375,0.06908199936151505,-0.0007159999804571271,-0.007015999872237444
1779996523694098200,15.45109814453125,0.05877299979329109,-0.0009560000034980476,-0.005894000176340342
1779996523711374600,15.46837451171875,0.01586800068616867,-0.0008670000243000686,-0.001512999995611608
1779996523728651000,15.485651123046875,-0.036681998521089554,-0.00009500000305706635,0.0030509999487549067
1779996523745927400,15.502927490234375,-0.0667010024189949,-0.000022000000171829015,0.00482399994507432
1779996523771842000,15.528842041015626,-0.038481999188661575,0.0008019999950192869,0.0033549999352544546
1779996523789118500,15.546118408203125,0.0126740001142025,0.0001049999991664663,0.0002460000105202198
1779996523806395100,15.56339501953125,0.055918000638484955,-0.0002770000137388706,-0.0028540000785142183
1779996523823671600,15.580671630859374,0.06626299768686295,-0.0002789999998640269,-0.004455000162124634
1779996523849586200,15.606586181640624,0.01430600043386221,-0.0008960000122897327,-0.0001829999964684248
1779996523866862600,15.623862548828125,-0.03557400032877922,0.0006510000093840063,0.0034050000831484795
1779996523884139300,15.64113916015625,-0.06471700221300125,0.000901999999769032,0.003914000000804663
1779996523901415400,15.65841552734375,-0.055291999131441116,0.0010870000114664435,0.002939000027254224
1779996523927330300,15.684330322265625,0.01259899977594614,-0.00017499999376013875,-0.001145999995060265
1779996523944606500,15.7016064453125,0.05524599924683571,-0.0018860000418499112,-0.0036430000327527523
1779996523961883100,15.718883056640625,0.06463400274515152,-0.0008619999862276018,-0.00520299980416894
1779996523979159300,15.7361591796875,0.03698600083589554,-0.00041099998634308577,-0.003137999912723899
1779996523996435700,15.753435791015624,-0.012174000032246113,-0.00003300000025774352,0.001028000027872622
1779996524013712400,15.77071240234375,-0.055149998515844345,0.0020959998946636915,0.004230999853461981
1779996524030988800,15.78798876953125,-0.06586199998855591,0.0014819999923929572,0.004902999848127365
1779996524048265200,15.80526513671875,-0.0391400009393692,0.0010760000441223383,0.0029720000457018614
1779996524065541600,15.822541748046875,0.010324999690055847,-0.00029299999005161226,-0.000623999978415668
1779996524082818300,15.839818359375,0.05396899953484535,-0.0016550000291317701,-0.0033599999733269215
1779996524100094500,15.857094482421875,0.0649769976735115,-0.0010590000310912728,-0.004499000031501055
1779996524117371000,15.874370849609376,0.03825400024652481,0.00007400000322377309,-0.0033770001027733088
1779996524143285800,15.90028564453125,-0.03551299870014191,0.0006220000213943422,0.0028780000284314156
1779996524160562200,15.917562255859375,-0.06495799869298935,0.000577000027988106,0.005121000111103058
1779996524177838600,15.934838623046875,-0.056644998490810394,0.0008539999835193157,0.004273000173270702
1779996524203753200,15.960753173828126,0.011509000323712826,0.00033999999868683517,-0.0016710000345483422
1779996524221029600,15.978029541015625,0.05458600074052811,-0.0016070000128820539,-0.0041959998197853565
1779996524238306000,15.99530615234375,0.06669899821281433,-0.002380999969318509,-0.004625000059604645
1779996524264220700,16.021220703125,0.016874000430107117,-0.0006960000027902424,-0.0009050000226125121
1779996524281497300,16.038497314453124,-0.03328099846839905,0.00009000000136438757,0.0025339999701827765
1779996524298773500,16.0557734375,-0.06356900185346603,0.0010270000202581286,0.0035359999164938927
1779996524316050200,16.07305029296875,-0.05564200133085251,0.0005549999768845737,0.0030539999715983868
1779996524333326300,16.090326416015625,-0.014271999709308147,-0.00021800000104121864,0.0005890000029467046
1779996524350603000,16.10760302734375,0.03471599891781807,-0.0014029999729245901,-0.0019320000428706408
1779996524367879400,16.12487939453125,0.06299400329589844,-0.0019440000178292394,-0.004298999905586243
1779996524385155800,16.14215576171875,0.05528600141406059,-0.0016270000487565994,-0.004333999939262867
1779996524402432300,16.159432373046876,0.01622699946165085,0.00011899999663000926,-0.0021230001002550125
1779996524419708700,16.176708740234375,-0.03236600011587143,0.0012379999971017241,0.002558999927714467
1779996524445623300,16.202623291015627,-0.06324899941682816,0.0012229999992996454,0.006496000103652477
1779996524462899700,16.219899658203126,-0.04032599925994873,0.0001320000010309741,0.004871999844908714
1779996524480176400,16.23717626953125,0.00621100002899766,-0.00005500000042957254,0.0010509999701753259
1779996524506090800,16.2630908203125,0.058559998869895935,-0.0006380000268109143,-0.004201000090688467
1779996524523367400,16.280367431640624,0.05311200022697449,0.0005859999801032245,-0.005036999937146902
1779996524540643800,16.297643798828126,0.016826000064611435,0.00013299999409355223,-0.0024449999909847975
1779996524566558500,16.323558349609375,-0.04593199864029884,0.00025099999038502574,0.0036299999337643385
1779996524583835100,16.340835205078125,-0.05901800096035004,0.0005559999844990671,0.0052709998562932014
1779996524601111600,16.358111572265624,-0.03743999823927879,0.0010580000234767795,0.002391000045463443
1779996524627026200,16.384026123046876,0.028660999611020088,0.0006939999875612557,-0.0036120000295341015
1779996524644302600,16.401302490234375,0.05752300098538399,-0.0011630000080913305,-0.003907000180333853
1779996524661579000,16.4185791015625,0.05251200124621391,-0.000986000057309866,-0.0023219999857246876
1779996524687493600,16.44449365234375,-0.005688999779522419,-0.00021600000036414713,0.0015650000423192978
1779996524704770300,16.461770263671873,-0.04594799876213074,0.00046099998871795833,0.0035149999894201756
1779996524722046700,16.479046630859376,-0.058580998331308365,0.002732000080868602,0.00393400015309453
1779996524747961300,16.50496142578125,-0.01537299994379282,0.0009469999931752682,0.0007789999945089221
1779996524765237800,16.52223779296875,0.029722999781370163,-0.00019700000120792538,-0.0025130000431090593
1779996524782514200,16.53951416015625,0.057627998292446136,-0.00203999993391335,-0.003942999988794327
1779996524799790600,16.55679052734375,0.05261800065636635,-0.001854000031016767,-0.003263999940827489
1779996524825705200,16.582705322265625,-0.007013999857008457,0.0008210000232793391,0.0004189999890513718
1779996524842981600,16.599981689453124,-0.04645099863409996,0.002107999986037612,0.0025390000082552433
1779996524860258000,16.617258056640626,-0.05908200144767761,0.0017960000550374389,0.004267000127583742
1779996524886172700,16.643172607421874,-0.015823999419808388,-0.0006339999963529408,0.002862999914214015
1779996524903449300,16.660449462890625,0.028514999896287918,0.0002699999895412475,-0.0015999999595806003
1779996524920725500,16.6777255859375,0.05661199986934662,-0.0002859999949578196,-0.004941999912261963
1779996524946640400,16.703640380859376,0.03706499934196472,0.0007769999792799354,-0.004329000134021044
1779996524963916800,16.720916748046875,-0.005185000132769346,-0.00016599999798927456,0.00018899999849963933
1779996524981193200,16.738193115234374,-0.04427200183272362,-0.0009350000182166696,0.0037960000336170197
1779996524998469600,16.7554697265625,-0.05751999840140343,0.00015300000086426735,0.0038590000476688147
1779996525015746000,16.77274609375,-0.03703000023961067,0.0006849999772384763,0.0017290000105276704
1779996525041661000,16.798660888671876,0.02670300006866455,-0.0014220000011846423,-0.002297000028192997
1779996525058937300,16.815937255859374,0.05519799888134003,-0.0017519999528303742,-0.0038819999899715185
1779996525076213800,16.8332138671875,0.050755999982357025,-0.001006999984383583,-0.003785999957472086
1779996525093490200,16.850490234375,0.017193999141454697,-0.00032500000088475645,-0.0013760000001639128
1779996525110766600,16.8677666015625,-0.02666899934411049,0.0011820000363513827,0.0010450000409036875
1779996525128043000,16.88504296875,-0.05458899959921837,0.0017259999876841903,0.004064000211656094
1779996525145319400,16.9023193359375,-0.049995001405477524,0.0023300000466406345,0.00459099980071187
1779996525171234300,16.928234375,0.0048050000332295895,0.000446999998530373,0.0006510000093840063
1779996525188510500,16.945510498046875,0.041450999677181244,-0.00047900000936351717,-0.0031820000149309635
1779996525205787100,16.962787109375,0.053839001804590225,-0.001838000025600195,-0.003963000141084194
1779996525223063600,16.9800634765625,0.034890998154878616,-0.001227000029757619,-0.002739999908953905
1779996525240340000,16.997340087890624,-0.004495000001043081,-0.0006319999811239541,0.0004400000034365803
1779996525257616400,17.014616455078126,-0.04099699854850769,0.0006799999973736703,0.0030129998922348022
1779996525274893000,17.03189306640625,-0.05477499961853027,0.0010089999996125698,0.003766000038012862
1779996525292169200,17.049169189453124,-0.035092998296022415,0.0002119999990100041,0.003163000103086233
1779996525309446000,17.06644580078125,0.004441999830305576,0.00032699998700991273,0.0005050000036135316
1779996525326722300,17.083722412109374,0.04181800037622452,-0.00017299999308306724,-0.001551999943330884
1779996525352637000,17.109636962890626,0.04796599969267845,0.00015100000018719584,-0.0034920000471174717
1779996525369913300,17.126913330078125,0.017131000757217407,-0.0007070000283420086,-0.0007929999846965075
1779996525387189800,17.144189697265624,-0.02342900075018406,-0.0015109999803826213,0.0027209999971091747
1779996525413104400,17.1701044921875,-0.05230500176548958,-0.00008199999865610152,0.00343000004068017
1779996525430380800,17.187380859375,-0.034967999905347824,-0.00005199999941396527,0.001429000054486096
1779996525447657500,17.204657470703125,0.004153000190854073,-0.0003650000144261867,-0.0006929999799467623
1779996525464934000,17.221933837890624,0.04146699979901314,-0.0008210000232793391,-0.0031610000878572464
1779996525490848500,17.2478486328125,0.04915999993681908,0.0006890000076964498,-0.004805999808013439
1779996525508125000,17.265125,0.017819000408053398,0.0013849999522790313,-0.0028210000600665808
1779996525525401600,17.282401611328126,-0.022732999175786972,0.00028700000257231295,0.0018820000113919377
1779996525551316000,17.30831591796875,-0.05278199911117554,0.00145800004247576,0.004792000167071819
1779996525568592600,17.325592529296873,-0.0360260009765625,0.001227000029757619,0.00292599992826581
1779996525585869000,17.342869140625,0.0010499999625608325,0.0003380000125616789,-0.0006399999838322401
1779996525603145500,17.3601455078125,0.03805200010538101,-0.0005230000242590904,-0.0029750000685453415
1779996525629060000,17.38606005859375,0.047384001314640045,-0.0016789999790489674,-0.002429000101983547
1779996525646336500,17.40333642578125,0.017714999616146088,-0.00028300000121816993,-0.0013370000524446368
1779996525663613000,17.420613037109376,-0.022531000897288322,0.0005709999823011458,0.0008919999818317592
1779996525689527800,17.44652783203125,-0.051798999309539795,0.000981000019237399,0.0036059999838471413
1779996525706804500,17.463804443359376,-0.0344650000333786,0.00020700000459328294,0.002767000114545226
1779996525724080600,17.48108056640625,0.0031469999812543392,-0.000007000000096013537,-0.0003980000037699938
1779996525749995500,17.50699560546875,0.049584999680519104,-0.0015450000064447522,-0.0036239998880773783
1779996525767272000,17.52427197265625,0.04735499992966652,-0.0020099999383091927,-0.0024590000975877047
1779996525784548000,17.541548095703124,0.017518000677227974,-0.00008600000001024455,-0.0010890000266954303
1779996525801824800,17.55882470703125,-0.022096000611782074,0.0004419999895617366,0.0008980000275187194
1779996525819101000,17.576100830078126,-0.049261998385190964,0.001214000047184527,0.002693000016734004
1779996525836377600,17.593377685546876,-0.047554999589920044,0.0003429999924264848,0.00343300006352365
1779996525853654000,17.610654052734375,-0.01803099922835827,-0.0004939999780617654,0.0014949999749660492
1779996525870930400,17.627930419921874,0.02092600055038929,-0.0005329999839887023,-0.0019650000613182783
1779996525888206800,17.645206787109377,0.04858899861574173,-0.0010560000082477927,-0.003886000020429492
1779996525914121500,17.67112158203125,0.035353001207113266,-0.0005890000029467046,-0.0029670000076293945
1779996525931398000,17.68839794921875,-0.0008559999987483025,0.00045200000749900937,-0.00036700000055134296
1779996525948674600,17.705674560546875,-0.0373929999768734,0.0003020000003743917,0.0027890000492334366
1779996525965951000,17.722950927734374,-0.050016000866889954,0.0005249999812804163,0.0035459999926388264
1779996525983227400,17.740227294921876,-0.034511998295784,0.0005779999773949385,0.0032649999484419823
1779996526000503800,17.75750390625,0.001214000047184527,-0.000037999998312443495,0.0015399999683722854
1779996526026418400,17.78341845703125,0.045152001082897186,0.0006719999946653843,-0.0044200001284480095
1779996526043694800,17.80069482421875,0.04485100135207176,-0.000986000057309866,-0.0033009999897331
1779996526060971500,17.817971435546873,0.017753999680280685,-0.0013330000219866633,0.0002479999966453761
1779996526078248000,17.835248046875,-0.01962300017476082,-0.00023999999393709004,0.002340999897569418
1779996526104162600,17.86116259765625,-0.04864000156521797,0.001006999984383583,0.0011269999668002129
1779996526121439000,17.87843896484375,-0.03184400126338005,-0.00018400000408291817,-0.0002739999908953905
1779996526138715400,17.89571533203125,0.003766000038012862,-0.00007899999764049426,-0.002280999906361103
1779996526155991800,17.91299169921875,0.03801799938082695,-0.000957000011112541,-0.0036929999478161335
1779996526173268500,17.9302685546875,0.050060998648405075,-0.0004079999926034361,-0.0039969999343156815
1779996526190544600,17.947544677734374,0.032701000571250916,-0.0007590000168420374,-0.0022899999748915434
1779996526207821300,17.9648212890625,-0.003000000026077032,0.0005469999741762877,0.0015200000489130616
1779996526225097700,17.98209765625,-0.039299000054597855,0.0014349999837577343,0.005388000048696995
1779996526242374100,17.9993740234375,-0.05266699939966202,0.0013389999512583017,0.006448000203818083
1779996526259650600,18.016650634765625,-0.03733300045132637,0.0013549999566748738,0.0038709999062120914
1779996526285565200,18.042565185546874,0.01997699961066246,-0.0006559999892488122,-0.00011999999696854502
1779996526302841600,18.059841552734376,0.04697500169277191,-0.0007639999967068434,-0.003063000040128827
1779996526320118000,18.077117919921875,0.046858999878168106,0.00004600000102072954,-0.00469100009649992
1779996526346033000,18.103032958984375,0.0005579999997280538,-0.0009689999860711396,-0.0008140000281855464
1779996526363309300,18.120309326171874,-0.03375500068068504,0.0005789999850094318,0.003396000014618039
1779996526380585500,18.13758544921875,-0.050175998359918594,0.0005230000242590904,0.005516999866813421
1779996526406500400,18.163500244140625,-0.027367999777197838,0.0001939999929163605,0.0026970000471919775
1779996526423777000,18.180777099609376,0.01269300002604723,-0.00009200000204145908,-0.0016039999900385737
1779996526441053400,18.198053466796875,0.044686999171972275,-0.0005949999904260039,-0.004447000101208687
1779996526466967800,18.2239677734375,0.04968399927020073,-0.0015010000206530094,-0.00634999992325902
1779996526484244500,18.241244384765626,0.015309000387787819,-0.000539999979082495,-0.0045739999040961266
1779996526501521000,18.25852099609375,-0.025821000337600708,-0.00009000000136438757,-0.0009369999752379954
1779996526518797300,18.27579736328125,-0.051979999989271164,-0.00042699999175965786,0.0032279998995363712
1779996526544712200,18.301712158203124,-0.033716000616550446,0.0013549999566748738,0.002369999885559082
1779996526561988600,18.318988525390626,0.005373000167310238,-0.00039500001003034413,0.00006199999916134402
1779996526579265000,18.33626513671875,0.04153300076723099,-0.00202700006775558,-0.0008149999775923789
1779996526605179600,18.3621796875,0.04541200026869774,0.00013099999341648072,-0.0019180000526830554
1779996526622456000,18.3794560546875,0.012702000327408314,0.0004920000210404396,-0.000742000003810972
1779996526639732500,18.396732421875,-0.02722099982202053,0.0012080000014975667,0.0019490000559017062
1779996526665647000,18.422647216796875,-0.045816998928785324,-0.00033000000985339284,0.0055229999125003815
1779996526682923500,18.439923583984374,-0.02910500019788742,0.000056000000768108293,0.003828000044450164
1779996526700200000,18.457199951171877,0.0059899999760091305,-0.00047400000039488077,0.000012000000424450263
1779996526726114800,18.48311474609375,0.037324000149965286,-0.0005840000230818987,-0.0031530000269412994
1779996526743391200,18.50039111328125,0.03593600168824196,-0.0011650000233203173,-0.0024389999452978373
1779996526760667600,18.517667724609375,0.012021999806165695,0.00035099999513477087,-0.0010369999799877405
1779996526786582300,18.543582275390627,-0.028658000752329826,0.0005499999970197678,0.0007929999846965075
1779996526803858700,18.560858642578125,-0.037560999393463135,-0.0009239999926649034,0.0028550000861287117
1779996526821135000,18.578135009765624,-0.023401999846100807,0.0002500000118743628,0.0016740000573918223
1779996526847049700,18.6040498046875,0.017628999426960945,-0.00009100000170292333,-0.00278700003400445
1779996526864326100,18.621326171875,0.036768000572919846,-0.0012570000253617764,-0.0029070000164210796
1779996526881602800,18.638602783203126,0.03422600030899048,-0.0006900000153109431,-0.0016049999976530671
1779996526898879200,18.655879150390625,0.012498999945819378,0.00039999998989515007,-0.0003380000125616789
1779996526916155600,18.67315576171875,-0.018098000437021255,0.001353000057861209,0.001366000040434301
1779996526933432000,18.69043212890625,-0.03710699826478958,0.001069999998435378,0.002724000019952655
1779996526950708700,18.707708740234374,-0.034839000552892685,0.0014380000066012144,0.0030070000793784857
1779996526976623000,18.733623046875,0.003155000042170286,0.0007099999929778278,0.0007120000082068145
1779996526993899800,18.750899658203124,0.02853900007903576,0.0001230000052601099,-0.0016110000433400273
1779996527011176200,18.76817626953125,0.03762499988079071,-0.0008399999933317304,-0.0019369999645277858
1779996527028452600,18.78545263671875,0.01971600018441677,0.0004569999873638153,-0.0015069999499246478
1779996527045729000,18.80272900390625,0.0005200000014156103,0.0003819999983534217,-0.00011000000085914508
1779996527063005400,18.82000537109375,-0.02029000036418438,0.00002700000004551839,0.0010389999952167273
1779996527080282000,18.8372822265625,-0.030419999733567238,0.0006430000066757202,0.0019030000548809767
1779996527106196700,18.86319677734375,-0.011281000450253487,-0.0002800000074785203,0.0013289999915286899
1779996527123473000,18.880472900390625,0.005450999829918146,0.0004199999966658652,-0.0008459999808110297
1779996527140749300,18.897749267578124,0.011514999903738499,-0.0010319999419152737,-0.001626000041142106
1779996527158026000,18.91502587890625,0.009131000377237797,-0.0010819999733939767,-0.0007980000227689743
1779996527175302700,18.932302734375,0.009263000451028347,-0.00030899999546818435,-0.0008679999737069011
1779996527192579000,18.9495791015625,0.007780000101774931,0.0005290000117383897,-0.001117000007070601
1779996527209855200,18.966855224609375,0.004112000111490488,-0.001370999962091446,-0.00039599998854100704
1779996527227132000,18.9841318359375,-0.007691999897360802,-0.0019359999569132924,0.0010730000212788582
1779996527244408000,19.001407958984377,-0.03538599982857704,-0.00044800000614486635,0.0021669999696314335
1779996527270323000,19.027322998046873,-0.04186899960041046,-0.0009970000246539712,0.002104999963194132
1779996527287599400,19.044599365234376,-0.004027999937534332,-0.0016850000247359276,-0.0016639999812468886
1779996527304875800,19.061875732421875,0.03135500103235245,-0.001180000021122396,-0.005288999993354082
1779996527330790400,19.087790283203127,0.0480399988591671,-0.00266100000590086,-0.006316999904811382
1779996527348066800,19.10506689453125,-0.00774399982765317,0.000311999989207834,-0.005241999868303537
1779996527365343000,19.122343017578125,-0.052469998598098755,0.00088900001719594,-0.0037249999586492777
1779996527382619600,19.13961962890625,-0.061184998601675034,0.00015999999595806003,-0.00344299990683794
1779996527399896300,19.156896240234374,-0.012435000389814377,-0.0017089999746531248,-0.0061090001836419106
1779996527417172500,19.17417236328125,0.04385500028729439,-0.0031610000878572464,-0.010648000054061413
1779996527434449000,19.191448974609376,0.06322699785232544,-0.002942000050097704,-0.015123000368475914
1779996527451725600,19.2087255859375,0.02830200083553791,-0.0033370000310242176,-0.013035000301897526
1779996527477640200,19.23464013671875,-0.05030300095677376,-0.0015369999455288053,-0.009765000082552433
1779996527494916600,19.25191650390625,-0.0406159982085228,-0.0049149999395012856,-0.008073999546468258
1779996527512193000,19.269193115234376,0.018199000507593155,-0.005390999838709831,-0.012083999812602997
1779996527529469700,19.2864697265625,0.06563299894332886,-0.005491999909281731,-0.01809700019657612
1779996527546745900,19.303745849609374,0.06613899767398834,-0.005020999815315008,-0.019123999401926994
1779996527564022500,19.3210224609375,0.009963000193238258,-0.004769999999552965,-0.014829999767243862
1779996527581298700,19.338298583984376,-0.06175899878144264,-0.0017640000442042947,-0.010371999815106392
1779996527598575400,19.355575439453126,-0.062345001846551895,-0.0027620000764727592,-0.009560000151395798
1779996527615851800,19.372851806640625,-0.011506999842822552,-0.005468999966979027,-0.011541999876499176
1779996527641766400,19.398766357421874,0.0482730008661747,-0.006684000138193369,-0.015915000811219215
1779996527659042800,19.416042724609376,0.023034000769257545,-0.0030139998998492956,-0.02122499980032444
1779996527676319200,19.4333193359375,-0.020545000210404396,-0.005617000162601471,-0.01193699985742569
1779996527693595600,19.450595703125,-0.06602100282907486,-0.002382999984547496,-0.010893999598920345
1779996527710872000,19.4678720703125,-0.02230600081384182,-0.0024820000398904085,-0.01526699960231781
1779996527728148700,19.485148681640624,0.03447499871253967,-0.00430699996650219,-0.016114000231027603
1779996527754063000,19.51106298828125,0.029469000175595284,-0.0006859999848529696,-0.023587999865412712
1779996527771339800,19.52833984375,-0.007482000160962343,0.000007000000096013537,-0.019728999584913254
1779996527788616200,19.5456162109375,-0.05115300044417381,0.002391000045463443,-0.017833000048995018
1779996527805892600,19.562892578125,-0.05504700168967247,-0.0006130000110715628,-0.016581999137997627
1779996527823169000,19.5801689453125,-0.004472000058740377,-0.0033400000538676977,-0.020235000178217888
1779996527840445700,19.59744580078125,0.04842900112271309,-0.00430699996650219,-0.02578900009393692
1779996527866360000,19.623360107421874,0.03624400123953819,-0.003169999923557043,-0.028161000460386276
1779996527883636700,19.64063671875,-0.017552999779582024,0.000050999999075429514,-0.027888000011444092
1779996527900913200,19.6579130859375,-0.04393099993467331,-0.000375000003259629,-0.025505000725388527
1779996527926827800,19.683827880859376,-0.00007100000220816582,-0.0051380000077188015,-0.028900999575853348
1779996527944104400,19.7011044921875,0.04596100002527237,-0.007550999987870455,-0.030825000256299973
1779996527961380600,19.718380615234373,0.06494399905204773,-0.00876300036907196,-0.031532999128103256
1779996527987295500,19.74429541015625,-0.026343999430537224,-0.002950000111013651,-0.028031000867486
1779996528004572000,19.761572021484376,-0.047488000243902206,-0.0053079999051988125,-0.024831000715494156
1779996528021848300,19.778848388671875,-0.03125999867916107,-0.008425000123679638,-0.021699000149965286
1779996528047763000,19.804762939453123,0.008438000455498695,-0.010758000425994396,-0.026311999186873436
1779996528065039400,19.822039306640626,0.027199000120162964,-0.006297999992966652,-0.03076300024986267
1779996528082315800,19.839315673828125,0.005117999855428934,-0.0014270000392571092,-0.03344599902629852
1779996528099592400,19.856592529296876,-0.01619900017976761,-0.002584999892860651,-0.031397998332977295
1779996528116868900,19.873868896484375,-0.00853000022470951,-0.0034030000679194927,-0.02983199991285801
1779996528134145300,19.891145263671874,0.013554999604821205,-0.004832000005990267,-0.03006800077855587
1779996528151421700,19.908421630859376,0.03504300117492676,-0.0047900001518428326,-0.031341999769210815
1779996528168698000,19.925697998046875,0.021928999572992325,-0.00007899999764049426,-0.03432700037956238
1779996528185974500,19.942974609375,0.004437999799847603,0.002589999930933118,-0.03564999997615814
1779996528211889200,19.96888916015625,-0.03384299948811531,0.003973000217229128,-0.029937999323010445
1779996528229165600,19.98616552734375,-0.040904998779296875,0.001547000021673739,-0.02742999978363514
1779996528246442200,20.003442138671875,0.002061000093817711,-0.0008340000058524311,-0.029360000044107437
1779996528272356600,20.029356689453124,0.029557999223470688,0.005582999903708696,-0.03578599914908409
1779996528289633300,20.04663330078125,0.016032999381422997,0.0057299998588860035,-0.03361000120639801
1779996528306909700,20.06390966796875,-0.00646999990567565,0.004674999974668026,-0.02916800044476986
1779996528324185900,20.081185791015624,-0.027800999581813812,0.003911000210791826,-0.02539299987256527
1779996528350100700,20.107100830078124,-0.013000999577343464,0.0037609999999403954,-0.026135999709367752
1779996528367377200,20.124377197265623,0.0019389999797567725,0.005673999898135662,-0.028889000415802002
1779996528384653800,20.14165380859375,0.01244600024074316,0.0045369998551905155,-0.02947700023651123
1779996528401930200,20.15893017578125,0.011435999535024166,0.004370999988168478,-0.028960000723600388
1779996528427844900,20.184844970703125,0.02010899968445301,0.005193999968469143,-0.028279000893235207
1779996528445121300,20.202121337890624,0.00788000039756298,0.006194999907165766,-0.025551000609993935
1779996528462397700,20.219397705078126,-0.004120999947190285,0.004220000002533197,-0.023653000593185425
1779996528479674400,20.23667431640625,0.000526999996509403,0.006070000119507313,-0.02204200066626072
1779996528496950500,20.253950439453124,0.012051999568939209,0.007356000132858753,-0.021560000255703926
1779996528522865400,20.279865478515624,-0.01736699976027012,0.005324999801814556,-0.016378000378608704
1779996528540141600,20.2971416015625,-0.019229000434279442,0.006049999967217445,-0.012817000038921833
1779996528557418200,20.314418212890626,-0.01567699946463108,0.005849999841302633,-0.015949999913573265
1779996528583332600,20.34033251953125,0.0008019999950192869,0.0043299999088048935,-0.015297000296413898
1779996528600609300,20.357609375,0.00891099963337183,0.0032939999364316463,-0.013656999915838242
1779996528617885700,20.3748857421875,0.001554999966174364,0.002005999907851219,-0.011893000453710556
1779996528635161900,20.392161865234375,-0.010950000025331974,0.002010999945923686,-0.01117200031876564
1779996528652438500,20.4094384765625,-0.023496000096201897,0.0037879999727010727,-0.010149000212550163
1779996528669715000,20.42671484375,-0.022298000752925873,0.0022330000065267086,-0.009188000112771988
1779996528686991400,20.443991455078127,-0.018036000430583954,0.0027050001081079245,-0.008636999875307083
1779996528704267800,20.461267822265626,0.004129000008106232,0.00041700000292621553,-0.009037000127136707
1779996528721544200,20.478544189453125,0.01938600093126297,0.002346999943256378,-0.011142999865114689
1779996528747459000,20.504458984375,-0.01676899939775467,0.0013160000089555979,-0.010269000194966793
1779996528764735200,20.5217353515625,-0.022549999877810478,0.0033050000201910734,-0.010924000293016434
1779996528782012000,20.539011962890626,0.003751999931409955,0.0029060000088065863,-0.011943000368773937
1779996528799288300,20.556288330078125,0.011653999797999859,0.0011320000048726797,-0.011216999962925911
1779996528825203200,20.582203125,0.01972300000488758,0.0026140001136809587,-0.01309099979698658
1779996528842479400,20.599479248046876,0.024248000234365463,0.0032420000061392784,-0.014554999768733978
1779996528859755800,20.616755859375,0.011907000094652176,0.0028280001133680344,-0.013182000257074833
1779996528877032200,20.6340322265625,-0.0012870000209659338,0.003163000103086233,-0.009903999976813793
1779996528894308600,20.65130859375,-0.00647599995136261,0.003848999971523881,-0.007462000008672476
1779996528911585300,20.668585205078124,-0.000391999987186864,0.004083999898284674,-0.008054999634623528
1779996528928861700,20.68586181640625,0.009751999750733376,0.0034050000831484795,-0.008588000200688839
1779996528946138000,20.70313818359375,0.009775999933481216,0.0008009999874047935,-0.006670000031590462
1779996528963414500,20.72041455078125,-0.01217000000178814,0.0020310000982135534,-0.003208999987691641
1779996528980691000,20.73769091796875,-0.031502000987529755,0.003596999915316701,-0.0019130000146105886
1779996529006605600,20.76360546875,-0.0070119998417794704,0.004689999856054783,-0.0026000000070780516
1779996529023882000,20.780882080078126,-0.005444000009447336,0.0025549998972564936,-0.001728000002913177
1779996529041158400,20.798158447265624,-0.01964000053703785,0.0012009999481961131,-0.00013600000238511711
1779996529067073300,20.8240732421875,-0.001867000013589859,0.0029959999956190586,-0.002317999955266714
1779996529084349700,20.841349609375,0.0011530000483617187,0.003269999986514449,-0.0033209999091923237
1779996529101626000,20.858626220703126,-0.002873999997973442,0.0034199999645352364,-0.003413999918848276
1779996529118902500,20.875902587890625,0.0033549999352544546,0.0031590000726282597,-0.0035890000872313976
1779996529136179200,20.89317919921875,0.013466999866068363,0.004164999816566706,-0.005615000147372484
1779996529153455400,20.910455322265626,0.008527999743819237,0.003992999903857708,-0.006388000212609768
1779996529170732000,20.92773193359375,-0.005427999887615442,0.0028359999414533377,-0.004178000148385763
1779996529188008400,20.945008544921876,-0.011501000262796879,0.0035379999317228794,-0.00216299993917346
1779996529205284900,20.962284912109375,-0.012287000194191933,0.0028639999218285084,-0.0020089999306946993
1779996529222561300,20.979561279296874,-0.01166599988937378,0.0030580000020563602,-0.00406799977645278
1779996529239837700,20.996837646484376,0.0034169999416917562,0.0027860000263899565,-0.005601999815553427
1779996529265752600,21.022752685546877,0.022849999368190765,0.0004459999909158796,-0.0068270000629127026
1779996529283028700,21.04002880859375,0.026007000356912613,0.001816999982111156,-0.007265999913215637
1779996529300305400,21.057305419921875,0.022362999618053436,0.0007159999804571271,-0.007100999820977449
1779996529326219800,21.0832197265625,-0.012373999692499638,0.0015480000292882323,-0.003765000030398369
1779996529343496400,21.100496337890625,-0.015525000169873238,0.0006079999729990959,-0.0013119999784976244
1779996529360772900,21.11777294921875,-0.009042000398039818,-0.000299000006634742,-0.0008650000090710819
1779996529386687500,21.1436875,-0.010753000155091286,0.00025400001322850585,-0.0017239999724552035
1779996529403964200,21.160964111328123,-0.013528999872505665,-0.0011759999906644225,-0.001281999982893467
1779996529421240300,21.178240234375,0.0022899999748915434,-0.002578000072389841,-0.0011269999668002129
1779996529447155200,21.2041552734375,0.008236999623477459,-0.0008290000259876251,-0.0011840000515803695
1779996529464431600,21.221431640625,-0.006252000108361244,0.0011399999493733048,-0.0010639999527484179
1779996529481707800,21.238707763671876,-0.010432999581098557,0.0006270000012591481,-0.0008590000215917826
1779996529498984400,21.255984375,0.0014769999543204904,-0.00032500000088475645,-0.001290000043809414
1779996529516260900,21.2732607421875,0.006585999857634306,0.000965000013820827,-0.001744000008329749
1779996529533537300,21.290537353515624,-0.0043219998478889465,-0.0007600000244565308,-0.00008199999865610152
1779996529550813700,21.307813720703123,-0.005727000068873167,0.0002280000044265762,-0.0010740000288933516
1779996529568090400,21.32509033203125,0.006901000160723925,0.0024939998984336853,-0.0039160000160336494
1779996529585366500,21.342366455078125,0.016860000789165497,0.0008679999737069011,-0.004368999972939491
1779996529602643000,21.359642822265624,-0.0007070000283420086,0.0003260000084992498,-0.003229999914765358
1779996529628557800,21.385557861328124,-0.01348899956792593,-0.00028899998869746923,-0.001053999993018806
1779996529645834200,21.402834228515626,-0.004982999991625547,-0.00015900000289548188,-0.0008660000166855752
1779996529663110700,21.420110595703125,0.00991700030863285,0.0013650000328198075,-0.002111000008881092
1779996529689025300,21.446025390625,-0.008874000050127506,0.0021410000044852495,-0.0028540000785142183
1779996529706301700,21.4633017578125,-0.015900999307632446,0.00203300011344254,-0.0029750000685453415
1779996529723578000,21.480578125,-0.001398000051267445,0.0018240000354126096,-0.003473999910056591
1779996529740854500,21.4978544921875,0.00798800028860569,0.002303000073879957,-0.004776000045239925
1779996529766769400,21.523769287109374,0.006862000096589327,0.0004569999873638153,-0.005311000160872936
1779996529784045600,21.541045654296877,0.00023099999816622585,0.0008280000183731318,-0.0058109997771680355
1779996529801322200,21.558322265625,0.009374000132083893,0.001690999954007566,-0.006258999928832054
1779996529827236900,21.58423681640625,-0.0054259998723864555,0.0011060000397264957,-0.00469199987128377
1779996529844513300,21.60151318359375,-0.005654999986290932,0.0016139999497681856,-0.00508299982175231
1779996529861789700,21.618789794921874,0.018611999228596687,0.003022999968379736,-0.007145999930799007
1779996529887704300,21.644704345703126,0.013524999842047691,0.0011549999471753836,-0.005539999809116125
1779996529904980700,21.661980712890625,0.0024389999452978373,0.0012110000243410468,-0.0039530000649392605
1779996529922257200,21.679257080078123,-0.006606000009924173,0.0004560000088531524,-0.0032059999648481607
1779996529948171800,21.705171875,0.03598500043153763,0.0004220000118948519,-0.003751999931409955
1779996529965448400,21.722448486328126,0.09583800286054611,-0.0048340000212192535,-0.004774999804794788
1779996529982724600,21.739724609375,0.27355900406837463,-0.01433700043708086,-0.011070000007748604
1779996530000001300,21.757001220703124,0.7728840112686157,-0.03471300005912781,0.09323800355195999
1779996530025916000,21.782916015625,0.6882830262184143,-0.0026779999025166035,-0.04605599865317345
1779996530043192300,21.8001923828125,0.1092969998717308,-0.04218199849128723,0.024150000885128975
1779996530060468700,21.81746875,-0.794622004032135,-0.05200999975204468,0.09504099935293198
1779996530077745400,21.834745361328125,-1.3173609972000122,-0.03545600175857544,0.1854739934206009
1779996530095021800,21.852021728515624,-1.3718860149383545,0.04430900141596794,0.1445080041885376
1779996530112298000,21.869298095703126,-0.8532220125198364,0.11305999755859375,0.034557998180389404
1779996530129574700,21.88657470703125,0.8475549817085266,-0.08179499953985214,-0.02923700027167797
1779996530146851000,21.90385107421875,1.5775359869003296,-0.1712539941072464,-0.03779099881649017
1779996530164127500,21.92112744140625,0.8957089781761169,0.09525500237941742,-0.11088000237941742
1779996530181404000,21.93840380859375,0.060940999537706375,0.12403400242328644,-0.012078000232577324
1779996530198680300,21.955680419921876,-0.7056819796562195,0.06578999757766724,0.10345300287008286
1779996530224595000,21.981594970703124,-1.300590991973877,0.030246000736951828,0.16468499600887299
1779996530241871600,21.99887158203125,-1.2344369888305664,0.04846800118684769,0.11618299782276154
1779996530259147800,22.016147705078126,-0.49622899293899536,0.014798000454902649,-0.05995199829339981
1779996530285062700,22.042062744140626,0.3828989863395691,-0.0020759999752044678,0.023997999727725983
1779996530302338800,22.0593388671875,1.1756839752197266,0.0054350001737475395,-0.06042199954390526
1779996530319615500,22.076615478515624,1.2234519720077515,0.0346050001680851,-0.08953999727964401
1779996530345529900,22.10252978515625,0.6304129958152771,-0.016202999278903008,-0.023538999259471893
1779996530362806500,22.119806640625,0.000957000011112541,-0.08952099829912186,0.08753000199794769
1779996530380082700,22.137082763671874,-0.6861060261726379,0.023336999118328094,0.1221269965171814
1779996530397359400,22.154359375,-2.1393749713897705,0.19049200415611267,0.08459299802780151
1779996530414635500,22.171635498046875,0.005807000212371349,-0.12292700260877609,0.12454800307750702
1779996530431912000,22.188911865234374,0.49560898542404175,-0.15479899942874908,0.05641999840736389
1779996530449188600,22.206188720703125,0.887391984462738,-0.09510199725627899,-0.006490999832749367
1779996530466465000,22.223465087890624,1.2298150062561035,-0.0987429991364479,-0.06214499846100807
1779996530483741400,22.240741455078126,0.6466339826583862,-0.07054699957370758,-0.0016139999497681856
1779996530501017900,22.258017822265625,-0.055201999843120575,-0.059404999017715454,0.09109599888324738
1779996530526932700,22.2839326171875,-1.613968014717102,0.1068739965558052,0.12004899978637695
1779996530544209200,22.301209228515624,-1.0193090438842773,-0.008390000090003014,0.07425300031900406
1779996530561485600,22.318485595703127,0.1983180046081543,-0.11457499861717224,0.0599140003323555
1779996530587400200,22.344400146484375,0.6335300207138062,-0.047485001385211945,0.0077680000104010105
1779996530604676600,22.361676513671874,0.7189990282058716,-0.02353700064122677,-0.03404200077056885
1779996530621953000,22.378953125,0.6596199870109558,-0.05277600139379501,-0.0250410009175539
1779996530647868000,22.404867919921877,-0.05045900121331215,-0.095490001142025,0.0800509974360466
1779996530665144000,22.42214404296875,-1.3309860229492188,0.08963199704885483,0.11238899827003479
