time,seconds_elapsed,z,y,x
1779996508482256100,0.239256103515625,9.744220733642578,-0.061521999537944794,-1.1030739545822144
1779996508499532500,0.256532470703125,9.743901252746582,-0.06365799903869629,-1.105767011642456
1779996508516809000,0.27380908203125,9.74404525756836,-0.0636959969997406,-1.104491949081421
1779996508534085000,0.291085205078125,9.744611740112305,-0.06391000002622604,-1.0994750261306763
1779996508551361500,0.308361572265625,9.74492359161377,-0.06412199884653091,-1.096680998802185
1779996508568637700,0.3256376953125,9.745015144348145,-0.06431400030851364,-1.0958529710769653
1779996508594552300,0.35155224609375,9.745282173156738,-0.06456799805164337,-1.09346604347229
1779996508611828500,0.368828369140625,9.745542526245117,-0.06473799794912338,-1.0911200046539307
1779996508629105000,0.38610498046875,9.745834350585938,-0.06512899696826935,-1.0884850025177002
1779996508646381000,0.403381103515625,9.746106147766113,-0.0656690001487732,-1.0860199928283691
1779996508672295700,0.429295654296875,9.746443748474121,-0.06665000319480896,-1.0829310417175293
1779996508689571800,0.44657177734375,9.746587753295898,-0.06722299754619598,-1.0816030502319336
1779996508706848300,0.46384814453125,9.746667861938477,-0.06761399656534195,-1.080867052078247
1779996508732762600,0.4897626953125,9.746702194213867,-0.0683090016245842,-1.0805089473724365
1779996508750039000,0.5070390625,9.746686935424805,-0.06878399848937988,-1.0806260108947754
1779996508767315200,0.524315185546875,9.746694564819336,-0.06912700086832047,-1.0805280208587646
1779996508784591600,0.541591552734375,9.746779441833496,-0.06918100267648697,-1.079766035079956
1779996508801867800,0.55886767578125,9.746953964233398,-0.06923200190067291,-1.0781790018081665
1779996508819144200,0.576144287109375,9.747206687927246,-0.06993599981069565,-1.0758379697799683
1779996508836420400,0.59342041015625,9.747514724731445,-0.07134900242090225,-1.0729349851608276
1779996508853696800,0.61069677734375,9.7478609085083,-0.0725720003247261,-1.0696990489959717
1779996508870973000,0.627972900390625,9.748208045959473,-0.07309199869632721,-1.0664939880371094
1779996508888249300,0.645249267578125,9.748543739318848,-0.07329100370407104,-1.0634160041809082
1779996508905525800,0.66252587890625,9.74885082244873,-0.07402300089597702,-1.0605510473251343
1779996508922802000,0.679802001953125,9.74911117553711,-0.07527100294828415,-1.0580739974975586
1779996508940078300,0.697078369140625,9.749295234680176,-0.0762920007109642,-1.0563019514083862
1779996508957354500,0.7143544921875,9.749377250671387,-0.07628200203180313,-1.0555520057678223
1779996508974631000,0.731630859375,9.749326705932617,-0.07576599717140198,-1.0560519695281982
1779996508991907000,0.748906982421875,9.749163627624512,-0.07584399729967117,-1.0575430393218994
1779996509009183500,0.76618359375,9.748943328857422,-0.07661599665880203,-1.0595159530639648
1779996509026460000,0.7834599609375,9.748696327209473,-0.07725600153207779,-1.061743974685669
1779996509043736000,0.800736083984375,9.748427391052246,-0.07721000164747238,-1.0642169713974
1779996509061012500,0.818012451171875,9.748152732849121,-0.07729800045490265,-1.0667239427566528
1779996509078288400,0.835288330078125,9.747894287109375,-0.07807700335979462,-1.069031000137329
1779996509095564800,0.852564697265625,9.747676849365234,-0.07969100028276443,-1.07088303565979
1779996509112841000,0.869841064453125,9.74752426147461,-0.08134599775075912,-1.0721640586853027
1779996509130117400,0.887117431640625,9.747415542602539,-0.0824270024895668,-1.0730669498443604
1779996509147393800,0.904393798828125,9.747302055358887,-0.08333999663591385,-1.0740150213241577
1779996509164670000,0.921669921875,9.747159957885742,-0.08463600277900696,-1.0752049684524536
1779996509181946400,0.9389462890625,9.747017860412598,-0.08591199666261673,-1.0764000415802002
1779996509199222500,0.956222412109375,9.746804237365723,-0.08609499782323837,-1.0783230066299438
1779996509216499000,0.9734990234375,9.746459007263184,-0.08550100028514862,-1.081455945968628
1779996509233775400,0.990775390625,9.746031761169434,-0.08434700220823288,-1.0853739976882935
1779996509251051500,1.008051513671875,9.74559497833252,-0.0838870033621788,-1.08931303024292
1779996509268328000,1.025327880859375,9.745244026184082,-0.08380799740552902,-1.092460036277771
1779996509285604400,1.042604248046875,9.745036125183105,-0.08315800130367279,-1.094372034072876
1779996509302880500,1.059880615234375,9.744905471801758,-0.0817980021238327,-1.0956579446792603
1779996509320157000,1.077156982421875,9.744767189025879,-0.080594003200531,-1.0969749689102173
1779996509337433000,1.09443310546875,9.744701385498047,-0.08020099997520447,-1.097601056098938
1779996509354709500,1.11170947265625,9.744780540466309,-0.08051099628210068,-1.0968730449676514
1779996509371985700,1.128985595703125,9.744964599609375,-0.08105199784040451,-1.0952099561691284
1779996509389262000,1.146261962890625,9.745187759399414,-0.08154799789190292,-1.0931899547576904
1779996509406538500,1.16353857421875,9.745379447937012,-0.08261799812316895,-1.0913690328598022
1779996509423814700,1.180814697265625,9.745530128479004,-0.08475299924612045,-1.0898549556732178
1779996509441091000,1.198091064453125,9.74569034576416,-0.08694300055503845,-1.0882450342178345
1779996509458367200,1.2153671875,9.745856285095215,-0.08826799690723419,-1.086650013923645
1779996509475643600,1.2326435546875,9.745965003967285,-0.08888799697160721,-1.0856479406356812
1779996509492919800,1.249919921875,9.7459716796875,-0.08930499851703644,-1.0855400562286377
1779996509510196200,1.2671962890625,9.74587631225586,-0.0900840014219284,-1.0863360166549683
1779996509527472400,1.284472412109375,9.74565315246582,-0.09103100001811981,-1.0882550477981567
1779996509544748800,1.301748779296875,9.745311737060547,-0.09162499755620956,-1.0912359952926636
1779996509562025000,1.31902490234375,9.744922637939453,-0.0920490026473999,-1.094668984413147
1779996509579301400,1.33630126953125,9.744562149047852,-0.09325899928808212,-1.0977829694747925
1779996509596577800,1.353577880859375,9.74429988861084,-0.09501899778842926,-1.099971055984497
1779996509613854000,1.37085400390625,9.74411392211914,-0.09607499837875366,-1.1015310287475586
1779996509631130400,1.38813037109375,9.743915557861328,-0.09603500366210938,-1.1032919883728027
1779996509648406500,1.405406494140625,9.74366569519043,-0.09534099698066711,-1.1055419445037842
1779996509665683000,1.422682861328125,9.743380546569824,-0.0945030003786087,-1.1081149578094482
1779996509682959400,1.43995947265625,9.743059158325195,-0.09380999952554703,-1.1109910011291504
1779996509700235500,1.457235595703125,9.742688179016113,-0.09273199737071991,-1.1143150329589844
1779996509717511700,1.47451171875,9.742260932922363,-0.09057699888944626,-1.1182140111923218
1779996509734788000,1.4917880859375,9.741806983947754,-0.08791299909353256,-1.1223679780960083
1779996509752064500,1.509064453125,9.741363525390625,-0.0858670026063919,-1.126373052597046
1779996509769340700,1.526340576171875,9.740951538085938,-0.08362399786710739,-1.1301100254058838
1779996509786616800,1.543616943359375,9.74059009552002,-0.08078499883413315,-1.1334279775619507
1779996509803893200,1.560893310546875,9.740297317504883,-0.07699599862098694,-1.1361949443817139
1779996509821169700,1.578169677734375,9.740080833435059,-0.07329899817705154,-1.1383060216903687
1779996509838446000,1.595446044921875,9.739941596984863,-0.07099200040102005,-1.1396609544754028
1779996509855722200,1.61272216796875,9.739859580993652,-0.07004600018262863,-1.1404249668121338
1779996509872998400,1.629998291015625,9.739794731140137,-0.069022998213768,-1.1410470008850098
1779996509890274800,1.64727490234375,9.739740371704102,-0.06775599718093872,-1.1415959596633911
1779996509907551000,1.664551025390625,9.739690780639648,-0.06634200364351273,-1.142091989517212
1779996509924827400,1.681827392578125,9.73961067199707,-0.06530799716711044,-1.142838954925537
1779996509942103800,1.699103759765625,9.739445686340332,-0.0641079992055893,-1.1442869901657104
1779996509959380000,1.7163798828125,9.739192962646484,-0.06226300075650215,-1.1465309858322144
1779996509976656400,1.733656494140625,9.738872528076172,-0.05990000069141388,-1.1493680477142334
1779996509993932800,1.750932861328125,9.738510131835938,-0.0576619990170002,-1.1525620222091675
1779996510011208700,1.768208740234375,9.738139152526855,-0.05610699951648712,-1.1557849645614624
1779996510028485000,1.785485107421875,9.737810134887695,-0.0551070012152195,-1.1586010456085205
1779996510045761500,1.802761474609375,9.737600326538086,-0.05435600131750107,-1.1604130268096924
1779996510063037700,1.82003759765625,9.737590789794922,-0.05371500179171562,-1.1605249643325806
1779996510080314000,1.837314208984375,9.737781524658203,-0.053557999432086945,-1.158911943435669
1779996510097590300,1.85459033203125,9.738076210021973,-0.05382400006055832,-1.156417965888977
1779996510114866700,1.87186669921875,9.738374710083008,-0.0539419986307621,-1.1538909673690796
1779996510132143000,1.88914306640625,9.73862075805664,-0.05354800075292587,-1.1518299579620361
1779996510149419300,1.906419189453125,9.738794326782227,-0.05285000056028366,-1.1504169702529907
1779996510166695400,1.9236953125,9.738882064819336,-0.05244399979710579,-1.1496829986572266
1779996510183971800,1.940971923828125,9.738863945007324,-0.05322200059890747,-1.1497989892959595
1779996510201248300,1.958248291015625,9.738753318786621,-0.054747000336647034,-1.1506619453430176
1779996510227163000,1.984162841796875,9.738617897033691,-0.056703999638557434,-1.1517020463943481
1779996510244439300,2.001439208984375,9.738755226135254,-0.05867600068449974,-1.1504160165786743
1779996510261715200,2.018715087890625,9.739187240600586,-0.06125099956989288,-1.1465699672698975
1779996510287629800,2.0446298828125,9.74032211303711,-0.06048399955034256,-1.1368069648742676
1779996510304906000,2.061906005859375,9.742110252380371,-0.06524600088596344,-1.120473027229309
1779996510322182400,2.079182373046875,9.746888160705566,-0.08456999808549881,-1.0684980154037476
1779996510348097000,2.105096923828125,9.759838104248047,-0.07432399690151215,-0.8632779717445374
1779996510365373000,2.122373046875,9.767556190490723,-0.07390200346708298,-0.6568589806556702
1779996510382649600,2.139649658203125,9.77460765838623,-0.06709799915552139,-0.442095011472702
1779996510399925800,2.15692578125,9.782588005065918,-0.03703099861741066,-0.26913899183273315
1779996510417202000,2.174201904296875,9.789498329162598,0.0014509999891743064,-0.16882500052452087
1779996510434478300,2.191478271484375,9.792692184448242,0.0006960000027902424,-0.13238899409770966
1779996510451754800,2.208754638671875,9.79163932800293,0.003768000053241849,-0.14557400345802307
1779996510469031000,2.226031005859375,9.78970718383789,0.020956000313162804,-0.18893000483512878
1779996510486307000,2.24330712890625,9.789908409118652,0.010417000390589237,-0.2303750067949295
1779996510503583700,2.260583740234375,9.790401458740234,-0.012020999565720558,-0.2511979937553406
1779996510520860200,2.277860107421875,9.790227890014648,-0.016094999387860298,-0.2461639940738678
1779996510538136300,2.29513623046875,9.789530754089355,0.0024979999288916588,-0.21659600734710693
1779996510555412700,2.312412841796875,9.789559364318848,0.053835999220609665,-0.17917999625205994
1779996510572689000,2.32968896484375,9.791715621948242,0.11023499816656113,-0.15338599681854248
1779996510607241700,2.36424169921875,9.789334297180176,0.06795399636030197,-0.18676899373531342
1779996510624518000,2.381517822265625,9.788986206054688,0.13936899602413177,-0.23778299987316132
1779996510641794300,2.398794189453125,9.789862632751465,0.1774889975786209,-0.2691600024700165
1779996510659070500,2.416070556640625,9.790205001831055,0.1513340026140213,-0.2680400013923645
1779996510676347000,2.433346923828125,9.791828155517578,0.08258099853992462,-0.23557500541210175
1779996510693623000,2.450623046875,9.794493675231934,0.026218999177217484,-0.19772900640964508
1779996510710899500,2.4678994140625,9.795602798461914,0.030101999640464783,-0.18564100563526154
1779996510728175600,2.485175537109375,9.794487953186035,0.042493000626564026,-0.20439299941062927
1779996510745452000,2.5024521484375,9.793172836303711,-0.005909999832510948,-0.23569099605083466
1779996510762728400,2.519728515625,9.793050765991211,-0.06102300062775612,-0.26729801297187805
1779996510788642800,2.545642822265625,9.793575286865234,-0.07326699793338776,-0.2887600064277649
1779996510805919200,2.562919189453125,9.793193817138672,-0.05271799862384796,-0.2764810025691986
1779996510823195400,2.5801953125,9.793060302734375,-0.01286999974399805,-0.24643999338150024
1779996510840471800,2.597471923828125,9.794610023498535,0.03932899981737137,-0.21475699543952942
1779996510857748200,2.614748291015625,9.79571533203125,0.025541000068187714,-0.19730600714683533
1779996510875024400,2.6320244140625,9.794710159301758,0.024562999606132507,-0.21047000586986542
1779996510892300500,2.649300537109375,9.79328727722168,0.06267999857664108,-0.24986200034618378
1779996510909577000,2.666576904296875,9.793213844299316,0.05290300026535988,-0.2849150002002716
1779996510926853400,2.683853271484375,9.793294906616211,0.01675499975681305,-0.299809992313385
1779996510944129500,2.701129638671875,9.793462753295898,-0.00596500001847744,-0.2916339933872223
1779996510961406000,2.718406005859375,9.793665885925293,-0.0022950000129640102,-0.2671389877796173
1779996510978682400,2.735682373046875,9.794039726257324,0.04069900140166283,-0.24237500131130219
1779996510995958500,2.75295849609375,9.79548454284668,0.07474099844694138,-0.22692100703716278
1779996511021873000,2.778872802734375,9.794069290161133,0.03382899984717369,-0.2445639967918396
1779996511047787500,2.80478759765625,9.792922973632812,0.1097939983010292,-0.3004249930381775
1779996511065063700,2.822063720703125,9.793283462524414,0.11711899936199188,-0.31873199343681335
1779996511082340000,2.839340087890625,9.793336868286133,0.07050199806690216,-0.31045299768447876
1779996511108254500,2.86525439453125,9.795652389526367,0.0074269999749958515,-0.2682349979877472
1779996511125531100,2.88253125,9.796854019165039,0.014165000058710575,-0.2500709891319275
1779996511142807300,2.899807373046875,9.797277450561523,0.028416000306606293,-0.2486719936132431
1779996511160083700,2.917083740234375,9.796637535095215,0.010549000464379787,-0.2632859945297241
1779996511177360100,2.934360107421875,9.796293258666992,-0.02713399939239025,-0.28307199478149414
1779996511194636300,2.95163623046875,9.796326637268066,-0.03271099925041199,-0.3015489876270294
1779996511211912700,2.96891259765625,9.796493530273438,-0.0011390000581741333,-0.3062019944190979
1779996511229188900,2.98618896484375,9.79615592956543,0.02479100041091442,-0.29385700821876526
1779996511246465300,3.00346533203125,9.796448707580566,0.04639299958944321,-0.2675429880619049
1779996511272379600,3.029379638671875,9.79824447631836,0.06110699847340584,-0.2351280003786087
1779996511289656000,3.046656005859375,9.798089027404785,0.04993100091814995,-0.2369060069322586
1779996511306932500,3.063932373046875,9.796936988830566,0.07477100193500519,-0.26178300380706787
1779996511332846800,3.089846923828125,9.79651165008545,0.05951099842786789,-0.30078399181365967
1779996511350123300,3.107123291015625,9.796697616577148,0.05064599961042404,-0.30816900730133057
1779996511367399400,3.1243994140625,9.796710968017578,0.050154998898506165,-0.29760101437568665
1779996511393313800,3.150313720703125,9.797216415405273,0.08204200118780136,-0.2621990144252777
1779996511410590200,3.167590087890625,9.79845142364502,0.09525500237941742,-0.24237599968910217
1779996511427866400,3.184866455078125,9.79858112335205,0.07278600335121155,-0.2403540015220642
1779996511453781000,3.210781005859375,9.797205924987793,0.10494700074195862,-0.27392199635505676
1779996511471057400,3.228057373046875,9.796927452087402,0.09170600026845932,-0.29923200607299805
1779996511488333600,3.24533349609375,9.79718017578125,0.07608599960803986,-0.30890798568725586
1779996511514248400,3.27124853515625,9.797625541687012,0.06538300216197968,-0.2942030131816864
1779996511531524600,3.288524658203125,9.79800033569336,0.08142100274562836,-0.27425000071525574
1779996511548801000,3.305801025390625,9.799063682556152,0.09840500354766846,-0.25621798634529114
1779996511566077400,3.323077392578125,9.799352645874023,0.0805400013923645,-0.2521109879016876
1779996511583353600,3.340353515625,9.798524856567383,0.08989699929952621,-0.26737600564956665
1779996511600630000,3.357630126953125,9.797986030578613,0.0977960005402565,-0.2906149923801422
1779996511626544400,3.38354443359375,9.797999382019043,0.08572900295257568,-0.31110599637031555
1779996511643820800,3.40082080078125,9.798287391662598,0.07553700357675552,-0.30520498752593994
1779996511661097000,3.418096923828125,9.798765182495117,0.07007600367069244,-0.28635600209236145
1779996511687011600,3.444011474609375,9.79999828338623,0.08239299803972244,-0.2581250071525574
1779996511704287700,3.461287841796875,9.800347328186035,0.07660900056362152,-0.25299501419067383
1779996511721564400,3.478564453125,9.799859046936035,0.07472600042819977,-0.2634209990501404
1779996511747478800,3.504478759765625,9.799212455749512,0.0823879987001419,-0.2912929952144623
1779996511764755200,3.521755126953125,9.799338340759277,0.07097700238227844,-0.2996079921722412
1779996511782031400,3.53903125,9.799703598022461,0.04251699894666672,-0.2918170094490051
1779996511807946000,3.564946044921875,9.800337791442871,0.028101999312639236,-0.26633599400520325
1779996511825222400,3.582222412109375,9.801007270812988,0.03745599836111069,-0.25159400701522827
1779996511842498600,3.59949853515625,9.801345825195312,0.025994999334216118,-0.2468390017747879
1779996511868413200,3.6254130859375,9.800642967224121,0.037801001220941544,-0.26287901401519775
1779996511885689300,3.642689453125,9.800415992736816,0.02800299972295761,-0.27651700377464294
1779996511902965800,3.6599658203125,9.800408363342285,0.024531999602913857,-0.28464600443840027
1779996511928880400,3.68588037109375,9.800447463989258,0.027194000780582428,-0.2765980064868927
1779996511946156500,3.703156494140625,9.800808906555176,0.025009000673890114,-0.26102301478385925
1779996511963433000,3.720432861328125,9.80139446258545,0.025645000860095024,-0.24736900627613068
1779996511997985500,3.754985595703125,9.80121898651123,0.024387000128626823,-0.2515619993209839
1779996512015262000,3.772261962890625,9.800762176513672,0.024660000577569008,-0.2662220001220703
1779996512032538400,3.789538330078125,9.800625801086426,0.02308100089430809,-0.2787509858608246
1779996512049814500,3.806814453125,9.800625801086426,0.023329999297857285,-0.28220099210739136
1779996512067091000,3.824091064453125,9.800662994384766,0.023156000301241875,-0.2740269899368286
1779996512084367400,3.841367431640625,9.801000595092773,0.0226610004901886,-0.2585960030555725
1779996512110281700,3.86728173828125,9.80178165435791,0.021622000262141228,-0.24103499948978424
1779996512127558400,3.884558349609375,9.801695823669434,0.02153399959206581,-0.24272100627422333
1779996512144834300,3.901834228515625,9.801215171813965,0.021530000492930412,-0.2544650137424469
1779996512162111000,3.919111083984375,9.800921440124512,0.021271999925374985,-0.2684909999370575
1779996512179387100,3.93638720703125,9.800884246826172,0.02120799943804741,-0.2767210006713867
1779996512205301800,3.9623017578125,9.800921440124512,0.020291000604629517,-0.26915600895881653
1779996512222578000,3.979577880859375,9.801233291625977,0.020419999957084656,-0.2542009949684143
1779996512239854300,3.996854248046875,9.801791191101074,0.01939300075173378,-0.2404640018939972
1779996512265768700,4.022768798828125,9.801922798156738,0.019435999915003777,-0.23797400295734406
1779996512283045400,4.04004541015625,9.801472663879395,0.01913199946284294,-0.24909000098705292
1779996512300321500,4.057321533203125,9.80118179321289,0.019516000524163246,-0.262800008058548
1779996512326236200,4.083236083984375,9.801143646240234,0.018464000895619392,-0.2715759873390198
1779996512343512300,4.10051220703125,9.801176071166992,0.017867999151349068,-0.2644599974155426
1779996512360788700,4.117788818359375,9.801458358764648,0.017703000456094742,-0.25039300322532654
1779996512386703000,4.143703125,9.80215072631836,0.01635199971497059,-0.23384100198745728
1779996512403979500,4.1609794921875,9.80208683013916,0.0161530002951622,-0.23514199256896973
1779996512421256000,4.178255859375,9.801651000976562,0.01576099917292595,-0.2460310012102127
1779996512438532000,4.195531982421875,9.801361083984375,0.01597600057721138,-0.2595610022544861
1779996512455808500,4.21280859375,9.801316261291504,0.015196000225841999,-0.26791301369667053
1779996512473085000,4.2300849609375,9.80132007598877,0.014449999667704105,-0.2663320004940033
1779996512490361300,4.247361328125,9.80143928527832,0.0142639996483922,-0.2552950084209442
1779996512507637500,4.264637451171875,9.801860809326172,0.0134699996560812,-0.24087199568748474
1779996512524914000,4.281913818359375,9.80229377746582,0.012954999692738056,-0.23135800659656525
1779996512542190300,4.2991904296875,9.802250862121582,0.01273099984973669,-0.23226000368595123
1779996512559466500,4.316466552734375,9.801836967468262,0.01260400004684925,-0.2426760047674179
1779996512576743000,4.333742919921875,9.801552772521973,0.012799999676644802,-0.2558879852294922
1779996512594019300,4.351019287109375,9.801502227783203,0.012226000428199768,-0.26432400941848755
1779996512611295500,4.36829541015625,9.801504135131836,0.011649999767541885,-0.26319700479507446
1779996512628572200,4.385572265625,9.801615715026855,0.011295000091195107,-0.2528809905052185
1779996512645848600,4.4028486328125,9.802005767822266,0.010584999807178974,-0.23915299773216248
1779996512671763000,4.428762939453125,9.802465438842773,0.009771999903023243,-0.2289630025625229
1779996512689039400,4.446039306640625,9.802193641662598,0.009464000351727009,-0.23494699597358704
1779996512706315500,4.4633154296875,9.801802635192871,0.00954199954867363,-0.24749399721622467
1779996512723592000,4.480592041015625,9.801647186279297,0.009309000335633755,-0.2591739892959595
1779996512740868000,4.4978681640625,9.801637649536133,0.008733999915421009,-0.26333901286125183
1779996512758144500,4.51514453125,9.801666259765625,0.008244999684393406,-0.2575550079345703
1779996512775421000,4.5324208984375,9.801900863647461,0.007857000455260277,-0.2449900060892105
1779996512792697300,4.549697265625,9.80234432220459,0.006974999792873859,-0.23290899395942688
1779996512809973500,4.566973388671875,9.802556037902832,0.00660100020468235,-0.2284799963235855
1779996512827250000,4.58425,9.802295684814453,0.0062870001420378685,-0.23424899578094482
1779996512853164500,4.61016455078125,9.801806449890137,0.006297999992966652,-0.25264400243759155
1779996512870440700,4.627440673828125,9.80174732208252,0.005824000108987093,-0.2609669864177704
1779996512887717000,4.644717041015625,9.801749229431152,0.005247000139206648,-0.26020199060440063
1779996512913631700,4.6706318359375,9.802000999450684,0.004637000150978565,-0.24401399493217468
1779996512930908200,4.687908203125,9.8024263381958,0.003748999908566475,-0.2321700006723404
1779996512948184600,4.7051845703125,9.802638053894043,0.003346000099554658,-0.2276879996061325
1779996512965460700,4.722460693359375,9.802392959594727,0.0030159999150782824,-0.23315300047397614
1779996512982737200,4.739737060546875,9.802022933959961,0.0030060000717639923,-0.2449840009212494
1779996513000013300,4.757013427734375,9.801860809326172,0.0028119999915361404,-0.25634199380874634
1779996513017290000,4.7742900390625,9.80184555053711,0.0022950000129640102,-0.26080599427223206
1779996513034566100,4.791566162109375,9.801871299743652,0.0018550000386312604,-0.25578999519348145
1779996513051842600,4.808842529296875,9.80208683013916,0.0015279999934136868,-0.24396899342536926
1779996513077757000,4.8347568359375,9.802666664123535,0.0005430000019259751,-0.22858299314975739
1779996513095033300,4.852033447265625,9.802661895751953,0.0003209999995306134,-0.22869299352169037
1779996513112309800,4.869309814453125,9.802311897277832,0.00020900000527035445,-0.2376980036497116
1779996513138224000,4.89522412109375,9.801982879638672,0.00014200000441633165,-0.2548069953918457
1779996513155500800,4.912500732421875,9.80196475982666,-0.0003229999856557697,-0.25910499691963196
1779996513172776700,4.929776611328125,9.80199146270752,-0.0008009999874047935,-0.25418201088905334
1779996513190053400,4.947053466796875,9.802197456359863,-0.0011980000417679548,-0.24272799491882324
1779996513207329800,4.964329833984375,9.802592277526855,-0.0020020001102238894,-0.23127199709415436
1779996513233244200,4.990244140625,9.802749633789062,-0.0026940000243484974,-0.22776299715042114
1779996513250520600,5.0075205078125,9.802412986755371,-0.0029959999956190586,-0.23642699420452118
1779996513267797000,5.024796875,9.802136421203613,-0.003120000008493662,-0.24835099279880524
1779996513293711600,5.050711669921875,9.802058219909668,-0.004007000010460615,-0.25805801153182983
1779996513310987800,5.06798779296875,9.802083015441895,-0.004652000032365322,-0.2536819875240326
1779996513328264200,5.08526416015625,9.802277565002441,-0.00518900016322732,-0.24269600212574005
1779996513345540600,5.10254052734375,9.802655220031738,-0.006130999885499477,-0.23152300715446472
1779996513362816800,5.119816650390625,9.802868843078613,-0.006823999807238579,-0.2267729938030243
1779996513380093400,5.137093505859375,9.802669525146484,-0.007325000129640102,-0.23130400478839874
1779996513397369600,5.15436962890625,9.802324295043945,-0.0075690001249313354,-0.2422270029783249
1779996513414646000,5.17164599609375,9.802149772644043,-0.007852000184357166,-0.2532089948654175
1779996513431922400,5.18892236328125,9.802123069763184,-0.008414000272750854,-0.25803300738334656
1779996513449198600,5.206198486328125,9.802145957946777,-0.009034999646246433,-0.25397101044654846
1779996513466475000,5.22347509765625,9.802331924438477,-0.00954500027000904,-0.24331800639629364
1779996513483751200,5.240751220703125,9.80270004272461,-0.010277999565005302,-0.2321929931640625
1779996513509666000,5.266666015625,9.80286979675293,-0.010994000360369682,-0.22830499708652496
1779996513526942200,5.283942138671875,9.802556037902832,-0.011273999698460102,-0.23642300069332123
1779996513544218600,5.301218505859375,9.802276611328125,-0.011420000344514847,-0.247966006398201
1779996513570133000,5.327133056640625,9.8021821975708,-0.012264999561011791,-0.25786200165748596
1779996513587409400,5.344409423828125,9.802205085754395,-0.012906000018119812,-0.2541019916534424
1779996513604685600,5.361685546875,9.802380561828613,-0.013492000289261341,-0.2438659965991974
1779996513621962200,5.378962158203125,9.802732467651367,-0.014239000156521797,-0.23307199776172638
1779996513639238700,5.39623876953125,9.802946090698242,-0.014821999706327915,-0.2281239926815033
1779996513665153000,5.422153076171875,9.802617073059082,-0.015336000360548496,-0.23646600544452667
1779996513682429400,5.439429443359375,9.802348136901855,-0.015464999713003635,-0.2474139928817749
1779996513699705600,5.45670556640625,9.80225658416748,-0.015915000811219215,-0.25567901134490967
1779996513725620200,5.4826201171875,9.80226993560791,-0.016822999343276024,-0.2540009915828705
1779996513742896600,5.499896728515625,9.802434921264648,-0.017423000186681747,-0.24437400698661804
1779996513760172800,5.5171728515625,9.802766799926758,-0.01816999912261963,-0.2339320033788681
1779996513786087400,5.54308740234375,9.802946090698242,-0.019022999331355095,-0.2297070026397705
1779996513803364000,5.560364013671875,9.802663803100586,-0.019342999905347824,-0.2370070070028305
1779996513820640300,5.57764013671875,9.802395820617676,-0.019487999379634857,-0.2477400004863739
1779996513837916700,5.594916748046875,9.802301406860352,-0.019912000745534897,-0.2557939887046814
1779996513855192800,5.61219287109375,9.802294731140137,-0.020464999601244926,-0.2566530108451843
1779996513872469200,5.62946923828125,9.802369117736816,-0.020990999415516853,-0.2498600035905838
1779996513889745700,5.64674560546875,9.80262565612793,-0.021580999717116356,-0.23928900063037872
1779996513907021800,5.664021728515625,9.802929878234863,-0.02227500081062317,-0.2311979979276657
1779996513924298200,5.68129833984375,9.802963256835938,-0.022741999477148056,-0.23044699430465698
1779996513941574700,5.69857470703125,9.802691459655762,-0.023048000410199165,-0.237527996301651
1779996513967489300,5.7244892578125,9.802351951599121,-0.023351000621914864,-0.25281399488449097
1779996513984765700,5.741765625,9.802310943603516,-0.02389100007712841,-0.2578069865703583
1779996514002041900,5.759041748046875,9.802331924438477,-0.02450600080192089,-0.2549160122871399
1779996514027956500,5.78495654296875,9.802633285522461,-0.025474999099969864,-0.2404550015926361
1779996514045233000,5.80223291015625,9.802939414978027,-0.02628999948501587,-0.2322230041027069
1779996514062509300,5.81950927734375,9.80298900604248,-0.02682800032198429,-0.2310740053653717
1779996514079785700,5.83678564453125,9.80273723602295,-0.027209000661969185,-0.23763899505138397
1779996514097062000,5.854061767578125,9.802474975585938,-0.027393000200390816,-0.24779899418354034
1779996514114338300,5.87133837890625,9.802372932434082,-0.027838999405503273,-0.2556290030479431
1779996514131615000,5.888614990234375,9.80236530303955,-0.028452999889850616,-0.2566640079021454
1779996514148891100,5.90589111328125,9.802437782287598,-0.02907700091600418,-0.2502419948577881
1779996514166167600,5.92316748046875,9.802677154541016,-0.02965500019490719,-0.24002699553966522
1779996514192082000,5.94908203125,9.8030366897583,-0.03062799945473671,-0.23048700392246246
1779996514209358300,5.9663583984375,9.802910804748535,-0.031012000516057014,-0.2334669977426529
1779996514226634800,5.983634765625,9.802617073059082,-0.031221000477671623,-0.24240900576114655
1779996514252549400,6.00954931640625,9.802396774291992,-0.03160199895501137,-0.25540900230407715
1779996514269825800,6.02682568359375,9.802386283874512,-0.032010000199079514,-0.2567029893398285
1779996514287102000,6.04410205078125,9.802454948425293,-0.03244800120592117,-0.2506600022315979
1779996514313016600,6.0700166015625,9.80284595489502,-0.0331990011036396,-0.23589399456977844
1779996514330293000,6.08729296875,9.80306339263916,-0.03371100127696991,-0.23054400086402893
1779996514347569400,6.1045693359375,9.802961349487305,-0.03403899818658829,-0.23296600580215454
1779996514373483800,6.13048388671875,9.802559852600098,-0.03432200103998184,-0.24672000110149384
1779996514390760200,6.14776025390625,9.802445411682129,-0.034745000302791595,-0.2548460066318512
1779996514408036900,6.165036865234375,9.802428245544434,-0.035353001207113266,-0.25672000646591187
1779996514425313000,6.18231298828125,9.802489280700684,-0.036028001457452774,-0.2513970136642456
1779996514442589400,6.19958935546875,9.802703857421875,-0.03670100122690201,-0.24204100668430328
1779996514459865900,6.216865966796875,9.802979469299316,-0.03752699866890907,-0.23423899710178375
1779996514477142000,6.23414208984375,9.803041458129883,-0.03809899836778641,-0.23275400698184967
1779996514494418700,6.251418701171875,9.80281925201416,-0.03847099840641022,-0.23854699730873108
1779996514511694800,6.26869482421875,9.802562713623047,-0.038656000047922134,-0.24809400737285614
1779996514528971300,6.28597119140625,9.802446365356445,-0.03902199864387512,-0.2559509873390198
1779996514546247700,6.30324755859375,9.802431106567383,-0.03945999965071678,-0.2576240003108978
1779996514563523800,6.32052392578125,9.802495002746582,-0.039955999702215195,-0.2521139979362488
1779996514580800500,6.337800537109375,9.802713394165039,-0.04039200022816658,-0.24250300228595734
1779996514598076700,6.35507666015625,9.802997589111328,-0.04099300131201744,-0.23434500396251678
1779996514615353000,6.37235302734375,9.80307674407959,-0.041404999792575836,-0.23241500556468964
1779996514632629500,6.38962939453125,9.802870750427246,-0.04163900017738342,-0.23780900239944458
1779996514649905700,6.40690576171875,9.802618980407715,-0.041721001267433167,-0.24706700444221497
1779996514667182000,6.42418212890625,9.802501678466797,-0.04199400171637535,-0.2548089921474457
1779996514693096700,6.4500966796875,9.802499771118164,-0.042677998542785645,-0.25481900572776794
1779996514710373000,6.467373046875,9.802626609802246,-0.04317000135779381,-0.24699300527572632
1779996514727649500,6.4846494140625,9.802892684936523,-0.043699000030756,-0.23765599727630615
1779996514753564200,6.510564208984375,9.80309772491455,-0.04437899962067604,-0.23229900002479553
1779996514770840600,6.527840576171875,9.80289363861084,-0.044578999280929565,-0.23761999607086182
1779996514788116700,6.54511669921875,9.802640914916992,-0.044665999710559845,-0.24676699936389923
1779996514814031400,6.57103125,9.80250358581543,-0.04521600157022476,-0.2562969923019409
1779996514831307800,6.588307861328125,9.802515983581543,-0.04571999981999397,-0.2547740042209625
1779996514848584200,6.605584228515625,9.802633285522461,-0.04621399939060211,-0.24741700291633606
1779996514865860400,6.6228603515625,9.802888870239258,-0.04679799824953079,-0.23829500377178192
1779996514883136800,6.64013671875,9.803098678588867,-0.04738200083374977,-0.23271100223064423
1779996514900413200,6.6574130859375,9.803049087524414,-0.04778699949383736,-0.23391500115394592
1779996514926327600,6.68332763671875,9.802694320678711,-0.048069000244140625,-0.24566499888896942
1779996514943604000,6.70060400390625,9.802571296691895,-0.048294998705387115,-0.2532599866390228
1779996514960880400,6.71788037109375,9.802550315856934,-0.048657000064849854,-0.2553330063819885
1779996514978156800,6.73515673828125,9.802602767944336,-0.04907499998807907,-0.2505680024623871
1779996514995433200,6.75243310546875,9.802796363830566,-0.04943700134754181,-0.24158400297164917
1779996515012709600,6.769709716796875,9.80306625366211,-0.04991000145673752,-0.23342099785804749
1779996515029986000,6.786986083984375,9.803173065185547,-0.050221998244524,-0.2307399958372116
1779996515047262500,6.804262451171875,9.80301284790039,-0.05036100000143051,-0.2349720001220703
1779996515064538600,6.82153857421875,9.802780151367188,-0.05039700120687485,-0.24331000447273254
1779996515081815000,6.83881494140625,9.802656173706055,-0.05069499835371971,-0.2507669925689697
1779996515099091200,6.85609130859375,9.802630424499512,-0.05115700140595436,-0.25300100445747375
1779996515116368000,6.873367919921875,9.802679061889648,-0.05177599936723709,-0.24866899847984314
1779996515133644300,6.890644287109375,9.80285358428955,-0.05236300081014633,-0.24024100601673126
1779996515150920400,6.90792041015625,9.803095817565918,-0.052995000034570694,-0.2327200025320053
1779996515168196900,6.92519677734375,9.803180694580078,-0.05349300056695938,-0.2305009961128235
1779996515185473300,6.942473388671875,9.803013801574707,-0.053759001195430756,-0.2349109947681427
1779996515211388000,6.968387939453125,9.802701950073242,-0.05395900085568428,-0.24724000692367554
1779996515228664000,6.9856640625,9.80263614654541,-0.05422399938106537,-0.2524249851703644
1779996515245940700,7.002940673828125,9.802642822265625,-0.05457000061869621,-0.251459002494812
1779996515271855000,7.028855224609375,9.802846908569336,-0.05519000068306923,-0.24041500687599182
1779996515289131500,7.046131591796875,9.803094863891602,-0.055688001215457916,-0.232681006193161
1779996515306408000,7.063407958984375,9.803194999694824,-0.05615200102329254,-0.2300570011138916
1779996515323684000,7.08068408203125,9.80303955078125,-0.05645100027322769,-0.23416200280189514
1779996515340960800,7.097960693359375,9.802802085876465,-0.056536998599767685,-0.24249200522899628
1779996515358237000,7.11523681640625,9.802667617797852,-0.05675100162625313,-0.2502239942550659
1779996515375513300,7.132513427734375,9.802637100219727,-0.05709199979901314,-0.25301599502563477
1779996515392790000,7.1497900390625,9.802677154541016,-0.057482000440359116,-0.2494029998779297
1779996515410066000,7.16706591796875,9.802839279174805,-0.05786899849772453,-0.24145600199699402
1779996515427342600,7.184342529296875,9.803083419799805,-0.058285001665353775,-0.23372499644756317
1779996515444618800,7.20161865234375,9.803197860717773,-0.058587998151779175,-0.2307009994983673
1779996515470533400,7.227533447265625,9.802957534790039,-0.058681998401880264,-0.23765400052070618
1779996515487809800,7.244809814453125,9.80277156829834,-0.05860799923539162,-0.2457450032234192
1779996515505086200,7.262086181640625,9.80270004272461,-0.058706000447273254,-0.25112199783325195
1779996515522362600,7.279362548828125,9.802701950073242,-0.05895699933171272,-0.2506679892539978
1779996515539639000,7.29663916015625,9.802794456481934,-0.059303998947143555,-0.244595006108284
1779996515556915500,7.31391552734375,9.80300521850586,-0.05966600030660629,-0.23633000254631042
1779996515574191600,7.331191650390625,9.803201675415039,-0.06002400070428848,-0.23077799379825592
1779996515591468000,7.348468017578125,9.803183555603027,-0.060263000428676605,-0.23118899762630463
1779996515608744400,7.365744384765625,9.802980422973633,-0.06035999953746796,-0.23723100125789642
1779996515634658800,7.391658935546875,9.802742958068848,-0.06054399907588959,-0.24852900207042694
1779996515651935500,7.408935546875,9.802708625793457,-0.06081699952483177,-0.2512570023536682
1779996515669211600,7.426211669921875,9.802746772766113,-0.061184000223875046,-0.24796900153160095
1779996515686488000,7.443488037109375,9.80289363861084,-0.061563000082969666,-0.24053899943828583
1779996515703764500,7.460764404296875,9.803119659423828,-0.061983998864889145,-0.23315100371837616
1779996515721041000,7.478041015625,9.80323314666748,-0.06232399865984917,-0.230103999376297
1779996515738317300,7.4953173828125,9.803118705749512,-0.06255699694156647,-0.23315900564193726
1779996515755593500,7.512593505859375,9.802907943725586,-0.0626859962940216,-0.2404170036315918
1779996515772870000,7.529869873046875,9.802773475646973,-0.06286799907684326,-0.2477390021085739
1779996515790146600,7.547146484375,9.802734375,-0.06316599994897842,-0.25093400478363037
1779996515807423000,7.564423095703125,9.802763938903809,-0.06355399638414383,-0.24825599789619446
1779996515833337300,7.59033740234375,9.803007125854492,-0.06411900371313095,-0.23755499720573425
1779996515850613800,7.60761376953125,9.803194046020508,-0.06449399888515472,-0.2320919930934906
1779996515867890200,7.62489013671875,9.80319595336914,-0.06469500064849854,-0.23200300335884094
1779996515893804500,7.650804443359375,9.802921295166016,-0.0646980032324791,-0.24097900092601776
1779996515911081000,7.6680810546875,9.802794456481934,-0.06473500281572342,-0.24779599905014038
1779996515928357400,7.685357421875,9.80275821685791,-0.06485900282859802,-0.2506609857082367
1779996515945633800,7.7026337890625,9.802791595458984,-0.06509999930858612,-0.24785900115966797
1779996515962910200,7.71991015625,9.80292797088623,-0.06544700264930725,-0.24096399545669556
1779996515980186600,7.7371865234375,9.803136825561523,-0.06584800034761429,-0.2339469939470291
1779996516006101000,7.76310107421875,9.803218841552734,-0.06624399870634079,-0.2316340059041977
1779996516023377700,7.780377685546875,9.8030424118042,-0.06633000075817108,-0.23686200380325317
1779996516040653800,7.79765380859375,9.802865028381348,-0.06639000028371811,-0.244268000125885
1779996516057930200,7.81493017578125,9.802783966064453,-0.06660400331020355,-0.24955900013446808
1779996516075206700,7.83220654296875,9.802780151367188,-0.06694699823856354,-0.24970200657844543
1779996516092483000,7.849483154296875,9.802857398986816,-0.06735599786043167,-0.24458199739456177
1779996516109759500,7.866759521484375,9.803041458129883,-0.06777399778366089,-0.23709499835968018
1779996516127035600,7.88403564453125,9.803221702575684,-0.06826700270175934,-0.23168499767780304
1779996516144312000,7.90131201171875,9.80322265625,-0.06859499961137772,-0.23157399892807007
1779996516161588500,7.91858837890625,9.803048133850098,-0.0687590017914772,-0.23677100241184235
1779996516187503000,7.944503173828125,9.802816390991211,-0.06885399669408798,-0.24721500277519226
1779996516204779500,7.961779541015625,9.802779197692871,-0.06905200332403183,-0.2500799894332886
1779996516222056000,7.979055908203125,9.802811622619629,-0.06928899884223938,-0.24735300242900848
1779996516247970600,8.004970458984374,9.803048133850098,-0.06973499804735184,-0.2365809977054596
1779996516265247000,8.0222470703125,9.803239822387695,-0.07004699856042862,-0.2307800054550171
1779996516282523100,8.039523193359376,9.803263664245605,-0.07029999792575836,-0.23012900352478027
1779996516299799600,8.056799560546875,9.80310344696045,-0.07043000310659409,-0.23489700257778168
1779996516317076000,8.074075927734375,9.802924156188965,-0.07057599723339081,-0.24212899804115295
1779996516334352400,8.091352294921874,9.802836418151855,-0.07082600146532059,-0.24768100678920746
1779996516351628800,8.10862890625,9.802824020385742,-0.07118500024080276,-0.24841000139713287
1779996516368905200,8.1259052734375,9.802889823913574,-0.07158000022172928,-0.2439499944448471
1779996516386181400,8.143181396484374,9.803058624267578,-0.07194899767637253,-0.2368050068616867
1779996516403458000,8.1604580078125,9.803242683410645,-0.07233600318431854,-0.23114000260829926
1779996516420734200,8.177734130859376,9.80327320098877,-0.07255099713802338,-0.23027800023555756
1779996516446648800,8.20364892578125,9.803032875061035,-0.0725409984588623,-0.2381020039319992
1779996516463925200,8.22092529296875,9.802901268005371,-0.07247500121593475,-0.24465599656105042
1779996516481201700,8.23820166015625,9.802858352661133,-0.07253099977970123,-0.24771200120449066
1779996516507116000,8.264115966796876,9.802932739257812,-0.07276400178670883,-0.24265100061893463
1779996516524392400,8.281392333984375,9.803096771240234,-0.07293099910020828,-0.23560099303722382
1779996516541668900,8.2986689453125,9.803277969360352,-0.07317399978637695,-0.23000900447368622
1779996516567583500,8.32458349609375,9.803257942199707,-0.07342600077390671,-0.2305310070514679
1779996516584859600,8.341859619140624,9.803086280822754,-0.0734890028834343,-0.23632900416851044
1779996516602136300,8.35913623046875,9.80295181274414,-0.07366900146007538,-0.24285399913787842
1779996516619412500,8.37641259765625,9.80290412902832,-0.07396499812602997,-0.24623900651931763
1779996516636689000,8.39368896484375,9.802924156188965,-0.07437899708747864,-0.24453599750995636
1779996516653965300,8.41096533203125,9.803030014038086,-0.07482700049877167,-0.2386610060930252
1779996516671241700,8.42824169921875,9.803211212158203,-0.07523100078105927,-0.2320519983768463
1779996516688518100,8.44551806640625,9.80333137512207,-0.07554499804973602,-0.228535994887352
1779996516705794300,8.462794189453126,9.803274154663086,-0.07566899806261063,-0.23011399805545807
1779996516723070700,8.48007080078125,9.803110122680664,-0.07567399740219116,-0.23567700386047363
1779996516740347100,8.49734716796875,9.802983283996582,-0.07566600292921066,-0.24185599386692047
1779996516766261800,8.52326171875,9.80294132232666,-0.07582700252532959,-0.2447900027036667
1779996516783538200,8.5405380859375,9.802998542785645,-0.0760589987039566,-0.24090200662612915
1779996516800814600,8.557814697265625,9.803145408630371,-0.07634299993515015,-0.2344360053539276
1779996516826729200,8.583729248046875,9.803350448608398,-0.07683400064706802,-0.22794599831104279
1779996516844005600,8.601005615234374,9.803297996520996,-0.07705499976873398,-0.22940999269485474
1779996516861282000,8.618281982421875,9.803135871887207,-0.07713200151920319,-0.2348710000514984
1779996516887196400,8.644196533203125,9.802974700927734,-0.07741700112819672,-0.24314799904823303
1779996516904472800,8.661472900390624,9.802962303161621,-0.0777520015835762,-0.24393899738788605
1779996516921749200,8.678749267578125,9.803019523620605,-0.07815500348806381,-0.2399269938468933
1779996516947664000,8.704663818359375,9.803252220153809,-0.07887300103902817,-0.230320006608963
1779996516964940300,8.721940185546876,9.803364753723145,-0.07933700084686279,-0.2268880009651184
1779996516982216700,8.739216796875,9.803312301635742,-0.07968699932098389,-0.22835400700569153
1779996517008131000,8.765131103515625,9.803075790405273,-0.07999300211668015,-0.23693299293518066
1779996517025407700,8.78240771484375,9.802984237670898,-0.08022800087928772,-0.24213899672031403
1779996517042684000,8.799683837890624,9.80296802520752,-0.08055099844932556,-0.24320800602436066
1779996517068598500,8.8255986328125,9.803080558776855,-0.08104699850082397,-0.23647700250148773
1779996517085875000,8.842875,9.803252220153809,-0.08136399835348129,-0.22996599972248077
1779996517103151400,8.8601513671875,9.803378105163574,-0.08171100169420242,-0.226159006357193
1779996517129066000,8.88606591796875,9.803266525268555,-0.08197899907827377,-0.2294899970293045
1779996517146342400,8.90334228515625,9.80311107635498,-0.08209899812936783,-0.2355400025844574
1779996517163618600,8.92061865234375,9.803019523620605,-0.08232100307941437,-0.240666002035141
1779996517180895200,8.937895263671875,9.803000450134277,-0.08265700191259384,-0.24188600480556488
1779996517206809600,8.9638095703125,9.803101539611816,-0.08329600095748901,-0.23567000031471252
1779996517224086000,8.9810859375,9.803258895874023,-0.08365599811077118,-0.22963300347328186
1779996517241362700,8.99836279296875,9.803372383117676,-0.08397699892520905,-0.22611500322818756
1779996517258638800,9.015638916015625,9.80333423614502,-0.08419299870729446,-0.22715899348258972
1779996517284553500,9.041553466796875,9.803117752075195,-0.0842680037021637,-0.23512500524520874
1779996517301830000,9.058829833984374,9.80302906036377,-0.08431699872016907,-0.24010199308395386
1779996517319106300,9.076106201171875,9.803011894226074,-0.08447399735450745,-0.24125200510025024
1779996517345020700,9.102020751953125,9.803114891052246,-0.08483599871397018,-0.23502099514007568
1779996517362297000,9.119297119140626,9.80327320098877,-0.08514899760484695,-0.22886799275875092
1779996517379573500,9.136573486328125,9.80339241027832,-0.08546700328588486,-0.22513699531555176
1779996517396850000,9.153849853515625,9.803364753723145,-0.0856970027089119,-0.2259030044078827
1779996517414126000,9.1711259765625,9.803226470947266,-0.08581200242042542,-0.23056499660015106
1779996517431402500,9.188402587890625,9.803098678588867,-0.08594799786806107,-0.2364329993724823
1779996517448679200,9.20567919921875,9.8030424118042,-0.08614200353622437,-0.24004800617694855
1779996517465955300,9.222955322265625,9.80305004119873,-0.0864029973745346,-0.23931600153446198
1779996517483231700,9.240231689453125,9.803132057189941,-0.08672499656677246,-0.2346230000257492
1779996517500508200,9.257508056640624,9.803284645080566,-0.08702100068330765,-0.2285590022802353
1779996517526422800,9.2834228515625,9.80341625213623,-0.08736199885606766,-0.22440899908542633
1779996517543699200,9.30069921875,9.803322792053223,-0.08747000247240067,-0.22724699974060059
1779996517560975600,9.3179755859375,9.803177833557129,-0.08749400079250336,-0.2328750044107437
1779996517586890200,9.34389013671875,9.80306339263916,-0.08775199949741364,-0.23938299715518951
1779996517604166700,9.361166748046875,9.803069114685059,-0.0880419984459877,-0.23881599307060242
1779996517621442800,9.37844287109375,9.803144454956055,-0.0883760005235672,-0.23445099592208862
1779996517647357700,9.404357666015626,9.803348541259766,-0.0888260006904602,-0.22664299607276917
1779996517664633900,9.4216337890625,9.803403854370117,-0.08899900317192078,-0.2249629944562912
1779996517681910300,9.43891015625,9.803324699401855,-0.08904200047254562,-0.22744999825954437
1779996517707824600,9.46482470703125,9.803142547607422,-0.08900099992752075,-0.235042005777359
1779996517725101300,9.482101318359375,9.803092002868652,-0.08904299885034561,-0.23814399540424347
1779996517742377700,9.499377685546875,9.803104400634766,-0.08917099982500076,-0.23725999891757965
1779996517768292000,9.5252919921875,9.803251266479492,-0.08949299901723862,-0.22973500192165375
1779996517785568800,9.54256884765625,9.803396224975586,-0.08981399983167648,-0.22451700270175934
1779996517802845000,9.559844970703125,9.80345344543457,-0.09007800370454788,-0.2227250039577484
1779996517828759600,9.585759521484375,9.803297996520996,-0.09029699862003326,-0.22783100605010986
1779996517846036000,9.603035888671876,9.803174018859863,-0.09032999724149704,-0.2334280014038086
1779996517863312400,9.6203125,9.803118705749512,-0.09048400074243546,-0.23694099485874176
1779996517889226800,9.646226806640625,9.80315113067627,-0.09080299735069275,-0.23461000621318817
1779996517906503200,9.663503173828126,9.80325984954834,-0.09100999683141708,-0.22931499779224396
1779996517923779800,9.68077978515625,9.803400039672852,-0.09123100340366364,-0.2242719978094101
1779996517941056300,9.69805615234375,9.803462028503418,-0.09138400107622147,-0.22231000661849976
1779996517958332400,9.71533251953125,9.803397178649902,-0.09140100330114365,-0.22439199686050415
1779996517975608800,9.73260888671875,9.80327320098877,-0.0914129987359047,-0.22912399470806122
1779996517992885200,9.74988525390625,9.803189277648926,-0.091450996696949,-0.2336760014295578
1779996518010161700,9.76716162109375,9.803163528442383,-0.09158799797296524,-0.23524199426174164
1779996518027438000,9.78443798828125,9.80319881439209,-0.09184200316667557,-0.23278699815273285
1779996518044714200,9.80171435546875,9.803303718566895,-0.09209799766540527,-0.22763000428676605
1779996518061991000,9.818990966796875,9.803436279296875,-0.09235599637031555,-0.22273799777030945
1779996518087905500,9.844905517578125,9.803467750549316,-0.09264300018548965,-0.22167499363422394
1779996518105181700,9.862181640625,9.80334758758545,-0.09270600229501724,-0.22578400373458862
1779996518122458400,9.879458251953125,9.803224563598633,-0.09272000193595886,-0.23124100267887115
1779996518148372700,9.905372802734375,9.80316162109375,-0.09291700273752213,-0.23510999977588654
1779996518165649200,9.922649169921876,9.80319595336914,-0.0931439995765686,-0.2327139973640442
1779996518182925300,9.93992529296875,9.803299903869629,-0.0933929979801178,-0.22755099833011627
1779996518208840200,9.965840087890625,9.803479194641113,-0.09374099969863892,-0.2210880070924759
1779996518226116400,9.983116455078125,9.803475379943848,-0.0938669964671135,-0.22119100391864777
1779996518243393000,10.00039306640625,9.803364753723145,-0.09390699863433838,-0.22490599751472473
1779996518260669200,10.017669189453125,9.803250312805176,-0.09394499659538269,-0.22999200224876404
1779996518286583800,10.043583740234375,9.803186416625977,-0.0940679982304573,-0.23388999700546265
1779996518303860000,10.06085986328125,9.803217887878418,-0.0942080020904541,-0.23166300356388092
1779996518321136600,10.07813671875,9.80331802368164,-0.09440899640321732,-0.22659499943256378
1779996518338413000,10.0954130859375,9.803451538085938,-0.09459800273180008,-0.2215469926595688
1779996518355689200,10.112689208984374,9.803513526916504,-0.09471099823713303,-0.219542995095253
1779996518372965600,10.129965576171875,9.803447723388672,-0.0947209969162941,-0.22167900204658508
1779996518390242000,10.147241943359376,9.803318977355957,-0.09463799744844437,-0.22660000622272491
1779996518407518500,10.1645185546875,9.803226470947266,-0.09463600069284439,-0.23137900233268738
1779996518424795000,10.181794921875,9.803197860717773,-0.09470800310373306,-0.23327399790287018
1779996518442071300,10.1990712890625,9.803226470947266,-0.09488999843597412,-0.23130600154399872
1779996518459347700,10.21634765625,9.803315162658691,-0.09506399929523468,-0.22669999301433563
1779996518485262000,10.242261962890625,9.803484916687012,-0.09535899758338928,-0.22046899795532227
1779996518502538500,10.25953857421875,9.803492546081543,-0.09547899663448334,-0.2202409952878952
1779996518519815200,10.276815185546875,9.80339527130127,-0.09548299759626389,-0.22352199256420135
1779996518545729500,10.3027294921875,9.80324935913086,-0.09542500227689743,-0.23046399652957916
1779996518563006000,10.320005859375,9.80322265625,-0.09554000198841095,-0.23223300278186798
1779996518580282400,10.337282470703125,9.803251266479492,-0.09568600356578827,-0.23013199865818024
1779996518597558800,10.354558837890625,9.803346633911133,-0.09590599685907364,-0.2251729965209961
1779996518614835200,10.371835205078124,9.80348014831543,-0.09607499837875366,-0.2200710028409958
1779996518632111400,10.389111328125,9.803548812866211,-0.09623699635267258,-0.21781200170516968
1779996518649388000,10.406387939453126,9.803492546081543,-0.09631799906492233,-0.2195969969034195
1779996518666664400,10.42366455078125,9.80337142944336,-0.0963829979300499,-0.22417600452899933
1779996518692578800,10.449578857421875,9.803253173828125,-0.09647499769926071,-0.23050600290298462
1779996518709855200,10.466855224609375,9.803247451782227,-0.09665299952030182,-0.23085099458694458
1779996518727131600,10.484131591796874,9.803296089172363,-0.09687899798154831,-0.22773300111293793
1779996518753046300,10.51004638671875,9.803462028503418,-0.09731700271368027,-0.22076299786567688
1779996518770322700,10.52732275390625,9.80352783203125,-0.09759099781513214,-0.21851299703121185
1779996518787599000,10.54459912109375,9.803483963012695,-0.09776700288057327,-0.21989800035953522
1779996518813513700,10.570513671875,9.80332088470459,-0.09787900000810623,-0.22654199600219727
1779996518830790000,10.587789794921875,9.803257942199707,-0.09804300218820572,-0.23013900220394135
1779996518848066600,10.605066650390626,9.803252220153809,-0.0982770025730133,-0.23036399483680725
1779996518865342700,10.6223427734375,9.803305625915527,-0.09858399629592896,-0.22699099779129028
1779996518882619100,10.639619140625,9.803417205810547,-0.09887299686670303,-0.22189199924468994
1779996518899895800,10.656895751953124,9.80352783203125,-0.0990699976682663,-0.21799099445343018
1779996518917172000,10.674171875,9.803542137145996,-0.09918499737977982,-0.2174839973449707
1779996518934448400,10.691448486328126,9.803454399108887,-0.09921500086784363,-0.2204820066690445
1779996518960363000,10.717363037109376,9.803312301635742,-0.09914200007915497,-0.22710199654102325
1779996518977639400,10.734639404296875,9.803281784057617,-0.0991939976811409,-0.22914400696754456
1779996518994915800,10.751915771484375,9.803300857543945,-0.09928599745035172,-0.22776800394058228
1779996519012192300,10.769192138671874,9.803376197814941,-0.09947799891233444,-0.22373400628566742
1779996519029468400,10.786468505859375,9.803487777709961,-0.09979300200939178,-0.21922099590301514
1779996519046744800,10.803744873046876,9.80355453491211,-0.10014200210571289,-0.2168779969215393
1779996519072659500,10.829659423828126,9.803467750549316,-0.10053300112485886,-0.21979600191116333
1779996519089936000,10.846935791015625,9.803360939025879,-0.10069700330495834,-0.22440899908542633
1779996519107212300,10.86421240234375,9.80329418182373,-0.10091999918222427,-0.2280919998884201
1779996519133126700,10.890126708984376,9.803299903869629,-0.10136999934911728,-0.22742299735546112
1779996519150403000,10.907403076171875,9.80337905883789,-0.10165700316429138,-0.22311300039291382
1779996519167679700,10.9246796875,9.803500175476074,-0.10182599723339081,-0.21828800439834595
1779996519184956000,10.941955810546874,9.803574562072754,-0.10193199664354324,-0.2157370001077652
1779996519210870500,10.96787060546875,9.803495407104492,-0.10194700211286545,-0.21848200261592865
1779996519228147200,10.985147216796875,9.803393363952637,-0.10197199881076813,-0.22283700108528137
1779996519245423400,11.00242333984375,9.803333282470703,-0.10199999809265137,-0.22630199790000916
1779996519262699800,11.01969970703125,9.803325653076172,-0.10211499780416489,-0.22679099440574646
1779996519279976200,11.03697607421875,9.80336856842041,-0.10228399932384491,-0.22404000163078308
1779996519297252600,11.054252685546874,9.80346393585205,-0.10246499627828598,-0.219542995095253
1779996519314529000,11.071529052734375,9.80356216430664,-0.10262200236320496,-0.2159229964017868
1779996519331805400,11.088805419921876,9.803580284118652,-0.1026649996638298,-0.21532200276851654
1779996519349081600,11.10608154296875,9.803503036499023,-0.10262499749660492,-0.21805599331855774
1779996519366358300,11.123358154296875,9.803400039672852,-0.10252799838781357,-0.22254300117492676
1779996519392273000,11.14927294921875,9.803323745727539,-0.1025490015745163,-0.2269670069217682
1779996519409549000,11.166549072265624,9.803336143493652,-0.1026109978556633,-0.22595299780368805
1779996519426825500,11.183825439453125,9.80340576171875,-0.10279799997806549,-0.2222519963979721
1779996519444102000,11.201101806640626,9.803510665893555,-0.10300800204277039,-0.21790799498558044
1779996519470016500,11.2270166015625,9.80357837677002,-0.10339300334453583,-0.21544699370861053
1779996519487293000,11.24429296875,9.803508758544922,-0.10351300239562988,-0.21782800555229187
1779996519504569300,11.2615693359375,9.803409576416016,-0.10357099771499634,-0.22206300497055054
1779996519530484000,11.28748388671875,9.80333423614502,-0.10372699797153473,-0.22628499567508698
1779996519547760400,11.304760498046875,9.803348541259766,-0.1039699986577034,-0.22514599561691284
1779996519565036500,11.32203662109375,9.80341911315918,-0.10423599928617477,-0.22128300368785858
1779996519582313000,11.33931298828125,9.803524017333984,-0.10445699840784073,-0.21686699986457825
1779996519599589400,11.35658935546875,9.803590774536133,-0.10460399836301804,-0.21449999511241913
1779996519625504000,11.38250390625,9.803515434265137,-0.1047469973564148,-0.217056006193161
1779996519642780400,11.399780517578124,9.80341625213623,-0.10477399826049805,-0.22129400074481964
1779996519660056800,11.417056884765625,9.803348541259766,-0.10486099869012833,-0.22490400075912476
1779996519677333200,11.434333251953126,9.803336143493652,-0.10486999899148941,-0.2257699966430664
1779996519694609700,11.451609619140624,9.803375244140625,-0.10496100038290024,-0.22344399988651276
1779996519711885800,11.4688857421875,9.803465843200684,-0.10507900267839432,-0.21915499866008759
1779996519737800700,11.49480078125,9.803595542907715,-0.1052199974656105,-0.2142850011587143
1779996519755077000,11.5120771484375,9.803584098815918,-0.10521399974822998,-0.2147189974784851
1779996519772353300,11.529353271484375,9.803500175476074,-0.10519299656152725,-0.2179120033979416
1779996519789630000,11.5466298828125,9.803417205810547,-0.10512199997901917,-0.22193099558353424
1779996519806906400,11.56390625,9.80337905883789,-0.1051660031080246,-0.2243030071258545
1779996519824182500,11.5811826171875,9.803389549255371,-0.10526400059461594,-0.22354499995708466
1779996519850097200,11.60709716796875,9.80350112915039,-0.10543599724769592,-0.21785399317741394
1779996519867373600,11.62437353515625,9.803598403930664,-0.10555499792098999,-0.2140759974718094
1779996519884650000,11.64164990234375,9.803631782531738,-0.10562299937009811,-0.21293899416923523
1779996519910564600,11.667564697265625,9.803529739379883,-0.1055930033326149,-0.21678000688552856
1779996519927841000,11.684841064453124,9.803446769714355,-0.10563299804925919,-0.22071999311447144
1779996519945117200,11.7021171875,9.803407669067383,-0.1056779995560646,-0.2230609953403473
1779996519962393600,11.7193935546875,9.803417205810547,-0.10581599920988083,-0.2223149985074997
1779996519979670000,11.736669921875,9.80347728729248,-0.10596799850463867,-0.21894699335098267
1779996519996946400,11.753946533203125,9.803572654724121,-0.10608299821615219,-0.21481600403785706
1779996520014223000,11.77122314453125,9.803640365600586,-0.10619600117206573,-0.2122800052165985
1779996520031499000,11.7884990234375,9.803627967834473,-0.10617099702358246,-0.2127770036458969
1779996520048775700,11.805775634765626,9.803547859191895,-0.10604000091552734,-0.21585099399089813
1779996520066052000,11.823052001953124,9.803471565246582,-0.10590200126171112,-0.21962399780750275
1779996520091966700,11.848966796875,9.803435325622559,-0.10583200305700302,-0.22194699943065643
1779996520109243100,11.8662431640625,9.803467750549316,-0.10587599873542786,-0.21988700330257416
1779996520126519600,11.88351953125,9.803548812866211,-0.10596799850463867,-0.21588100492954254
1779996520143796000,11.9007958984375,9.803643226623535,-0.10599300265312195,-0.2121800035238266
1779996520169710600,11.926710693359375,9.803665161132812,-0.10600300133228302,-0.21141600608825684
1779996520186987000,11.943987060546876,9.80358600616455,-0.10595499724149704,-0.21445700526237488
1779996520204263400,11.961263427734375,9.803503036499023,-0.10590700060129166,-0.21840399503707886
1779996520230178000,11.987177978515625,9.803457260131836,-0.10602500289678574,-0.2210869938135147
1779996520247454200,12.0044541015625,9.803486824035645,-0.10614699870347977,-0.21923699975013733
1779996520264731000,12.02173095703125,9.803561210632324,-0.10631699860095978,-0.21548999845981598
1779996520290645200,12.047645263671875,9.803674697875977,-0.10660699754953384,-0.21104800701141357
1779996520307921700,12.064921630859375,9.803664207458496,-0.10670600086450577,-0.211340993642807
1779996520325198000,12.082197998046874,9.803590774536133,-0.10673400014638901,-0.2141209989786148
1779996520351112700,12.10811279296875,9.803487777709961,-0.10666599869728088,-0.2192550003528595
1779996520368389000,12.12538916015625,9.803473472595215,-0.10661499947309494,-0.220318004488945
1779996520385665500,12.14266552734375,9.803502082824707,-0.10662999749183655,-0.21855300664901733
1779996520411580200,12.168580078125,9.80362319946289,-0.10671500116586685,-0.21286199986934662
1779996520428856600,12.185856689453125,9.803695678710938,-0.10677900165319443,-0.21013499796390533
1779996520446133000,12.203133056640626,9.803694725036621,-0.10680700093507767,-0.21020999550819397
1779996520472047600,12.229047607421874,9.803582191467285,-0.10677500069141388,-0.2148350030183792
1779996520489324000,12.246323974609375,9.803515434265137,-0.10687299817800522,-0.2182060033082962
1779996520506600400,12.263600341796876,9.803498268127441,-0.10701800137758255,-0.21935899555683136
1779996520532514800,12.289514892578126,9.803553581237793,-0.10731899738311768,-0.21592099964618683
1779996520549791200,12.306791259765625,9.803638458251953,-0.10744500160217285,-0.21208199858665466
1779996520567067600,12.324067626953125,9.80370807647705,-0.10751699656248093,-0.20944300293922424
1779996520592982300,12.349982177734375,9.80367660522461,-0.10758200287818909,-0.2105640023946762
1779996520610258700,12.3672587890625,9.803597450256348,-0.10750400274991989,-0.21397699415683746
1779996520627535000,12.38453515625,9.803533554077148,-0.10744500160217285,-0.21732300519943237
1779996520653449700,12.41044970703125,9.803521156311035,-0.10746400058269501,-0.21814000606536865
1779996520670726100,12.42772607421875,9.803568840026855,-0.10756299644708633,-0.21531400084495544
1779996520688002600,12.44500244140625,9.803654670715332,-0.10768099874258041,-0.2113800048828125
1779996520705279000,12.462279052734376,9.803730010986328,-0.10772400349378586,-0.20854200422763824
1779996520722555400,12.479555419921875,9.803736686706543,-0.10773500055074692,-0.2083359956741333
1779996520739831800,12.496831787109375,9.803677558898926,-0.10768599808216095,-0.21064899861812592
1779996520765746400,12.522746337890625,9.803580284118652,-0.1076980009675026,-0.21540099382400513
1779996520783022600,12.540022705078124,9.803561210632324,-0.10778900235891342,-0.21653099358081818
1779996520800299300,12.55729931640625,9.803585052490234,-0.10797999799251556,-0.2149530053138733
1779996520826213600,12.583213623046875,9.803692817687988,-0.10829900205135345,-0.20953300595283508
1779996520843490300,12.600490234375,9.803760528564453,-0.10844799876213074,-0.2068910002708435
1779996520860766500,12.617766357421875,9.803760528564453,-0.10855899751186371,-0.20682699978351593
1779996520886681000,12.64368115234375,9.803661346435547,-0.10855899751186371,-0.21092799305915833
1779996520903957800,12.660957763671876,9.803601264953613,-0.10856399685144424,-0.21409200131893158
1779996520921234000,12.67823388671875,9.803580284118652,-0.10855700075626373,-0.21542100608348846
1779996520947148500,12.7041484375,9.80362606048584,-0.1086060032248497,-0.2126069962978363
1779996520964425000,12.721425048828126,9.803706169128418,-0.10870400071144104,-0.20890599489212036
1779996520981701400,12.738701416015624,9.803780555725098,-0.10873500257730484,-0.20606699585914612
1779996520998977500,12.7559775390625,9.803790092468262,-0.10872100293636322,-0.20569300651550293
1779996521016254200,12.773254150390626,9.80373764038086,-0.10865200310945511,-0.2078309953212738
1779996521033530400,12.7905302734375,9.803667068481445,-0.10852599889039993,-0.21107299625873566
1779996521050806800,12.807806884765625,9.803628921508789,-0.10848499834537506,-0.2134310007095337
1779996521068083500,12.82508349609375,9.803627967834473,-0.10849200189113617,-0.21344700455665588
1779996521093997800,12.850997802734375,9.803702354431152,-0.10859400033950806,-0.20928500592708588
1779996521111274200,12.868274169921875,9.803780555725098,-0.10867100208997726,-0.20598499476909637
1779996521128551000,12.885551025390624,9.803823471069336,-0.10872799903154373,-0.2044070065021515
1779996521145827000,12.9028271484375,9.803796768188477,-0.10874000191688538,-0.20539699494838715
1779996521163103500,12.920103515625,9.803728103637695,-0.10876200348138809,-0.2082660049200058
1779996521180380000,12.9373798828125,9.803670883178711,-0.10877499729394913,-0.2112569957971573
1779996521197656300,12.95465625,9.803647994995117,-0.10882700234651566,-0.21261900663375854
1779996521214932700,12.9719326171875,9.803664207458496,-0.10897800326347351,-0.2114890068769455
1779996521232209200,12.989209228515625,9.80372142791748,-0.10914599895477295,-0.2083989977836609
1779996521249485600,13.006485595703126,9.803797721862793,-0.1092969998717308,-0.20507000386714935
1779996521266762000,13.023761962890624,9.803841590881348,-0.10935399681329727,-0.20342999696731567
1779996521292676600,13.049676513671875,9.803786277770996,-0.10933399945497513,-0.20556700229644775
1779996521309953000,13.066953125,9.80372142791748,-0.10931900143623352,-0.20864799618721008
1779996521327229400,13.0842294921875,9.803680419921875,-0.10932400077581406,-0.21095000207424164
1779996521344505900,13.101505859375,9.803679466247559,-0.10927499830722809,-0.2111539989709854
1779996521361782300,13.1187822265625,9.803712844848633,-0.1092350035905838,-0.20910100638866425
1779996521387697000,13.14469677734375,9.803814888000488,-0.10930100083351135,-0.2044830024242401
1779996521404973300,13.161973388671875,9.80385684967041,-0.10937800258398056,-0.20284199714660645
1779996521422249700,13.179249755859376,9.803836822509766,-0.10934200137853622,-0.2036139965057373
1779996521448164000,13.2051640625,9.803743362426758,-0.10922099649906158,-0.20791999995708466
1779996521465440500,13.2224404296875,9.80370044708252,-0.10924699902534485,-0.21032500267028809
1779996521482717000,13.239717041015625,9.80369758605957,-0.10936299711465836,-0.2105190008878708
1779996521499993300,13.256993408203124,9.803730964660645,-0.10952699929475784,-0.20836900174617767
1779996521525908000,13.282907958984374,9.803831100463867,-0.1097240000963211,-0.20372700691223145
1779996521543184400,13.300184326171875,9.803866386413574,-0.10982800275087357,-0.20229999721050262
1779996521560460800,13.317460693359376,9.803842544555664,-0.10991399735212326,-0.20322799682617188
1779996521586375400,13.34337548828125,9.80374813079834,-0.10992900282144547,-0.20743900537490845
1779996521603651800,13.36065185546875,9.803707122802734,-0.1099729984998703,-0.209756001830101
1779996521620928300,13.37792822265625,9.803701400756836,-0.11010400205850601,-0.21000799536705017
1779996521646843000,13.4038427734375,9.803767204284668,-0.11029700189828873,-0.20631499588489532
1779996521664119300,13.421119384765625,9.803836822509766,-0.11044500023126602,-0.20312899351119995
1779996521681395500,13.4383955078125,9.803879737854004,-0.11049100011587143,-0.20146499574184418
1779996521707310300,13.464310302734376,9.803831100463867,-0.11056700348854065,-0.20338299870491028
1779996521724586500,13.48158642578125,9.803766250610352,-0.11062300205230713,-0.20636600255966187
1779996521741863200,13.49886328125,9.80372428894043,-0.11074499785900116,-0.2087019979953766
1779996521759139600,13.5161396484375,9.803716659545898,-0.11086300015449524,-0.20906899869441986
1779996521776415700,13.533415771484375,9.80374526977539,-0.11097300052642822,-0.20728200674057007
1779996521793692200,13.550692138671875,9.803803443908691,-0.11108600348234177,-0.20439599454402924
1779996521810968600,13.567968505859374,9.803858757019043,-0.11121799796819687,-0.2020989954471588
1779996521828245000,13.585244873046875,9.803869247436523,-0.11126399785280228,-0.20172500610351562
1779996521845521400,13.602521484375,9.803826332092285,-0.11125099658966064,-0.20342500507831573
1779996521862797800,13.6197978515625,9.803767204284668,-0.11112900078296661,-0.20626099407672882
1779996521888712400,13.64571240234375,9.803717613220215,-0.1110450029373169,-0.2091120034456253
1779996521905989000,13.662989013671876,9.803729057312012,-0.11118700355291367,-0.208296000957489
1779996521923265300,13.680265380859375,9.803777694702148,-0.1113630011677742,-0.20559300482273102
1779996521949180000,13.706179931640625,9.803866386413574,-0.11153800040483475,-0.2016250044107437
1779996521966456300,13.723456298828125,9.803875923156738,-0.11152300238609314,-0.20132499933242798
1779996521983732700,13.740732666015624,9.803829193115234,-0.11155600100755692,-0.20319899916648865
1779996522001009200,13.758009033203125,9.803766250610352,-0.11163300275802612,-0.20604200661182404
1779996522026923800,13.783923828125,9.803720474243164,-0.11168400198221207,-0.20872299373149872
1779996522044200200,13.8012001953125,9.803729057312012,-0.11165300011634827,-0.20813600718975067
1779996522061476400,13.818476318359375,9.803771018981934,-0.1116430014371872,-0.20586299896240234
1779996522087391000,13.844390869140625,9.803853988647461,-0.11172100156545639,-0.20220699906349182
1779996522104667400,13.86166748046875,9.803866386413574,-0.1117589995265007,-0.20172399282455444
1779996522121943800,13.87894384765625,9.803824424743652,-0.11168000102043152,-0.20342400670051575
1779996522139220500,13.896220458984375,9.803763389587402,-0.11161399632692337,-0.2063329964876175
1779996522156496600,13.91349658203125,9.803723335266113,-0.11152300238609314,-0.20873700082302094
1779996522173773000,13.93077294921875,9.803715705871582,-0.11157900094985962,-0.20917600393295288
1779996522191049500,13.948049560546876,9.803744316101074,-0.11168599873781204,-0.20735600590705872
1779996522208326000,13.965325927734375,9.803804397583008,-0.11180499941110611,-0.204352006316185
1779996522225602600,13.9826025390625,9.803862571716309,-0.11189699918031693,-0.2018910050392151
1779996522242878700,13.999878662109374,9.803877830505371,-0.11193399876356125,-0.20130200684070587
1779996522260155100,14.017155029296875,9.803838729858398,-0.11193499714136124,-0.20282100141048431
1779996522286070000,14.043070068359375,9.803757667541504,-0.11200200021266937,-0.20677299797534943
1779996522303346200,14.06034619140625,9.803730964660645,-0.11209099739789963,-0.20827199518680573
1779996522320622600,14.07762255859375,9.803739547729492,-0.11218699812889099,-0.20775699615478516
1779996522346537200,14.103537109375,9.803807258605957,-0.11237099766731262,-0.20415900647640228
1779996522363813600,14.120813720703126,9.803857803344727,-0.11243899911642075,-0.20199300348758698
1779996522381090300,14.13809033203125,9.803869247436523,-0.11249999701976776,-0.20153500139713287
1779996522398366500,14.155366455078125,9.803832054138184,-0.11250700056552887,-0.20303800702095032
1779996522415643000,14.172642822265624,9.803775787353516,-0.1124730035662651,-0.20563599467277527
1779996522432919300,14.189919189453125,9.803736686706543,-0.11240500211715698,-0.20788800716400146
1779996522450195700,14.20719580078125,9.803728103637695,-0.11235299706459045,-0.20842400193214417
1779996522467472100,14.22447216796875,9.803755760192871,-0.11235400289297104,-0.20682699978351593
1779996522484748500,14.24174853515625,9.803812980651855,-0.11240100115537643,-0.20400699973106384
1779996522510663200,14.2676630859375,9.80388355255127,-0.11242900043725967,-0.2010280042886734
1779996522527939600,14.284939697265624,9.803873062133789,-0.11240000277757645,-0.20147299766540527
1779996522545216000,14.302216064453125,9.803823471069336,-0.11235900223255157,-0.20363500714302063
1779996522571130600,14.328130615234375,9.803754806518555,-0.11235799640417099,-0.20717200636863708
1779996522588407000,14.345406982421874,9.803743362426758,-0.11243899911642075,-0.2078150063753128
1779996522605683500,14.362683349609375,9.803765296936035,-0.11257600039243698,-0.2065040022134781
1779996522622959900,14.3799599609375,9.803815841674805,-0.11274900287389755,-0.20390699803829193
1779996522640236300,14.397236328125,9.80386734008789,-0.11288200318813324,-0.20159099996089935
1779996522657512700,14.4145126953125,9.803882598876953,-0.11291299760341644,-0.20098799467086792
1779996522674789000,14.4317890625,9.803847312927246,-0.11285100132226944,-0.20249100029468536
1779996522692065300,14.449065185546875,9.803790092468262,-0.11279100179672241,-0.2051510065793991
1779996522709342000,14.466342041015626,9.803750038146973,-0.11275999993085861,-0.20739799737930298
1779996522726618400,14.483618408203125,9.803741455078125,-0.11275199800729752,-0.2079000025987625
1779996522752533000,14.509532958984375,9.803789138793945,-0.11279299855232239,-0.20515400171279907
1779996522769809400,14.526809326171875,9.803845405578613,-0.11283999681472778,-0.2025880068540573
1779996522787085600,14.54408544921875,9.80388069152832,-0.11291000247001648,-0.20108799636363983
1779996522813000400,14.57000048828125,9.803848266601562,-0.11296600103378296,-0.20240500569343567
1779996522830276900,14.58727685546875,9.803791999816895,-0.1130089983344078,-0.20492400228977203
1779996522847553300,14.60455322265625,9.803750991821289,-0.11310499906539917,-0.20715199410915375
1779996522873467600,14.630467529296874,9.803744316101074,-0.11330100148916245,-0.2073799967765808
1779996522890744300,14.647744384765625,9.80378246307373,-0.11342000216245651,-0.2053380012512207
1779996522908020700,14.665020751953126,9.803833961486816,-0.11349499970674515,-0.20286299288272858
1779996522925297000,14.682296875,9.80386734008789,-0.11353400349617004,-0.2014400064945221
1779996522942573600,14.699573486328125,9.803857803344727,-0.11358100175857544,-0.20185799896717072
1779996522959850000,14.71685009765625,9.803811073303223,-0.11357399821281433,-0.20388300716876984
1779996522985764600,14.7427646484375,9.803742408752441,-0.11349199712276459,-0.207396999001503
1779996523003041000,14.760041015625,9.803730010986328,-0.11350999772548676,-0.20817600190639496
1779996523020317700,14.777317626953124,9.80374813079834,-0.1135919988155365,-0.2069769948720932
1779996523037594000,14.794593994140625,9.803797721862793,-0.1137159988284111,-0.2044689953327179
1779996523054870300,14.811870361328126,9.803851127624512,-0.11381500214338303,-0.20215299725532532
1779996523072147000,14.82914697265625,9.803868293762207,-0.11384499818086624,-0.20141799747943878
1779996523089423400,14.84642333984375,9.803837776184082,-0.11386699974536896,-0.2026440054178238
1779996523106699800,14.86369970703125,9.80378532409668,-0.11388599872589111,-0.20503999292850494
1779996523123976200,14.88097607421875,9.803744316101074,-0.11389800161123276,-0.20723100006580353
1779996523141252600,14.898252685546876,9.803731918334961,-0.1139340028166771,-0.20799000561237335
1779996523158528800,14.91552880859375,9.803750991821289,-0.11397299915552139,-0.20689700543880463
1779996523175805400,14.932805419921875,9.803796768188477,-0.1140270009636879,-0.20453499257564545
1779996523193081600,14.95008154296875,9.803848266601562,-0.11409399658441544,-0.20225000381469727
1779996523210358300,14.967358154296875,9.803869247436523,-0.1140810027718544,-0.20139199495315552
1779996523227634700,14.984634765625,9.803844451904297,-0.11395999789237976,-0.2024649977684021
1779996523253549300,15.01054931640625,9.80377197265625,-0.11383900046348572,-0.20597200095653534
1779996523270825700,15.02782568359375,9.803744316101074,-0.11372800171375275,-0.20759600400924683
1779996523288102100,15.04510205078125,9.803746223449707,-0.11366099864244461,-0.20752200484275818
1779996523305378600,15.062378662109374,9.803777694702148,-0.11365800350904465,-0.20581799745559692
1779996523322655000,15.079655029296875,9.803829193115234,-0.11364799737930298,-0.20347000658512115
1779996523339931400,15.096931396484376,9.803866386413574,-0.11362099647521973,-0.20187699794769287
1779996523365846000,15.122845947265626,9.803850173950195,-0.11349499970674515,-0.20262999832630157
1779996523383122400,15.140122314453125,9.803801536560059,-0.11337699741125107,-0.20480099320411682
1779996523400398800,15.15739892578125,9.803766250610352,-0.11329499632120132,-0.20685499906539917
1779996523417675500,15.174675537109374,9.803755760192871,-0.11325900256633759,-0.20750300586223602
1779996523443590000,15.20058984375,9.803797721862793,-0.11326900124549866,-0.20517399907112122
1779996523460866300,15.2178662109375,9.803850173950195,-0.11325299739837646,-0.2026890069246292
1779996523478142700,15.235142822265624,9.8038911819458,-0.11318899691104889,-0.2010059952735901
1779996523504057300,15.261057373046874,9.803874969482422,-0.11308500170707703,-0.20168599486351013
1779996523521334000,15.278333984375,9.803832054138184,-0.11300799995660782,-0.20374499261379242
1779996523538610400,15.2956103515625,9.803792953491211,-0.11302399635314941,-0.20574499666690826
1779996523555886800,15.312886962890625,9.803777694702148,-0.11305700242519379,-0.20661500096321106
1779996523573163300,15.330163330078125,9.803791046142578,-0.11308100074529648,-0.20586299896240234
1779996523590439700,15.347439697265624,9.803828239440918,-0.11315300315618515,-0.20394399762153625
1779996523607716000,15.364716064453125,9.803868293762207,-0.11327899992465973,-0.2020529955625534
1779996523624992500,15.381992431640626,9.803885459899902,-0.11336900293827057,-0.20130999386310577
1779996523642269000,15.39926904296875,9.803863525390625,-0.11337199807167053,-0.2022089958190918
1779996523659545300,15.41654541015625,9.803818702697754,-0.11333700269460678,-0.20430299639701843
1779996523676821800,15.43382177734375,9.803780555725098,-0.1132349967956543,-0.20640499889850616
1779996523694098200,15.45109814453125,9.803766250610352,-0.11321499943733215,-0.20726999640464783
1779996523711374600,15.46837451171875,9.80378246307373,-0.11324899643659592,-0.20639899373054504
1779996523728651000,15.485651123046875,9.803821563720703,-0.11323799937963486,-0.20432700216770172
1779996523745927400,15.502927490234375,9.80386734008789,-0.11320500075817108,-0.2023250013589859
1779996523771842000,15.528842041015626,9.803878784179688,-0.11310199648141861,-0.20183899998664856
1779996523789118500,15.546118408203125,9.80384635925293,-0.11302399635314941,-0.2033189982175827
1779996523806395100,15.56339501953125,9.80380630493164,-0.11297900229692459,-0.20531199872493744
1779996523823671600,15.580671630859374,9.80378246307373,-0.11290399730205536,-0.2066829949617386
1779996523849586200,15.606586181640624,9.803791999816895,-0.11292000114917755,-0.20610199868679047
1779996523866862600,15.623862548828125,9.803829193115234,-0.11299700289964676,-0.20422300696372986
1779996523884139300,15.64113916015625,9.80387020111084,-0.1130710020661354,-0.20233699679374695
1779996523901415400,15.65841552734375,9.803887367248535,-0.11310700327157974,-0.20161700248718262
1779996523927330300,15.684330322265625,9.803842544555664,-0.11296900361776352,-0.20354600250720978
1779996523944606500,15.7016064453125,9.803799629211426,-0.11292000114917755,-0.20574599504470825
1779996523961883100,15.718883056640625,9.80377197265625,-0.11292500048875809,-0.20722800493240356
1779996523979159300,15.7361591796875,9.803772926330566,-0.11286599934101105,-0.20714299380779266
1779996523996435700,15.753435791015624,9.803803443908691,-0.11287400126457214,-0.20552299916744232
1779996524013712400,15.77071240234375,9.803850173950195,-0.11283399909734726,-0.20329999923706055
1779996524030988800,15.78798876953125,9.803889274597168,-0.11281000077724457,-0.20167900621891022
1779996524048265200,15.80526513671875,9.803893089294434,-0.1128150001168251,-0.2014950066804886
1779996524065541600,15.822541748046875,9.803863525390625,-0.11279399693012238,-0.20279499888420105
1779996524091456500,15.84845654296875,9.803808212280273,-0.11268900334835052,-0.20560400187969208
1779996524108732700,15.865732666015624,9.803793907165527,-0.1127379983663559,-0.20637699961662292
1779996524126009300,15.88300927734375,9.803807258605957,-0.11278600245714188,-0.20562200248241425
1779996524143285800,15.90028564453125,9.803842544555664,-0.11295100301504135,-0.2037149965763092
1779996524160562200,15.917562255859375,9.80388355255127,-0.11312799900770187,-0.20183800160884857
1779996524177838600,15.934838623046875,9.8038969039917,-0.1132349967956543,-0.20118799805641174
1779996524203753200,15.960753173828126,9.803850173950195,-0.11338499933481216,-0.20316100120544434
1779996524221029600,15.978029541015625,9.803801536560059,-0.11347600072622299,-0.20542000234127045
1779996524238306000,15.99530615234375,9.803770065307617,-0.11357799917459488,-0.2070229947566986
1779996524264220700,16.021220703125,9.803775787353516,-0.11370900273323059,-0.2065729945898056
1779996524281497300,16.038497314453124,9.803812980651855,-0.11372700333595276,-0.2047249972820282
1779996524298773500,16.0557734375,9.803854942321777,-0.11374200135469437,-0.20282599329948425
1779996524316050200,16.07305029296875,9.803875923156738,-0.11373499780893326,-0.202006995677948
1779996524333326300,16.090326416015625,9.803858757019043,-0.11367599666118622,-0.20273500680923462
1779996524350603000,16.10760302734375,9.803818702697754,-0.11361400038003922,-0.20452800393104553
1779996524367879400,16.12487939453125,9.803784370422363,-0.11359500139951706,-0.20635199546813965
1779996524385155800,16.14215576171875,9.8037691116333,-0.1136230006814003,-0.20719300210475922
1779996524402432300,16.159432373046876,9.803778648376465,-0.11367499828338623,-0.2065410017967224
1779996524419708700,16.176708740234375,9.803812980651855,-0.11371300369501114,-0.2047799974679947
1779996524445623300,16.202623291015627,9.803869247436523,-0.11375299841165543,-0.20227199792861938
1779996524462899700,16.219899658203126,9.803873062133789,-0.11376400291919708,-0.2020999938249588
1779996524480176400,16.23717626953125,9.803845405578613,-0.11376000195741653,-0.20333099365234375
1779996524506090800,16.2630908203125,9.803791046142578,-0.11367200314998627,-0.20602700114250183
1779996524523367400,16.280367431640624,9.803778648376465,-0.1136000007390976,-0.206836998462677
1779996524540643800,16.297643798828126,9.803788185119629,-0.1136069968342781,-0.20626099407672882
1779996524566558500,16.323558349609375,9.803838729858398,-0.1137010008096695,-0.2037159949541092
1779996524583835100,16.340835205078125,9.80387020111084,-0.1137629970908165,-0.20233100652694702
1779996524601111600,16.358111572265624,9.803874015808105,-0.11374100297689438,-0.20221300423145294
1779996524627026200,16.384026123046876,9.803826332092285,-0.1136000007390976,-0.2044450044631958
1779996524644302600,16.401302490234375,9.803789138793945,-0.11357399821281433,-0.20626699924468994
1779996524661579000,16.4185791015625,9.8037748336792,-0.11360900104045868,-0.20701099932193756
1779996524687493600,16.44449365234375,9.80380630493164,-0.11367499828338623,-0.2052839994430542
1779996524704770300,16.461770263671873,9.803848266601562,-0.11374899744987488,-0.20319800078868866
1779996524722046700,16.479046630859376,9.80388355255127,-0.1137240007519722,-0.20172899961471558
1779996524747961300,16.50496142578125,9.803875923156738,-0.1137470006942749,-0.2020760029554367
1779996524765237800,16.52223779296875,9.803838729858398,-0.11372300237417221,-0.2036619931459427
1779996524782514200,16.53951416015625,9.803807258605957,-0.11369799822568893,-0.20533399283885956
1779996524799790600,16.55679052734375,9.803792953491211,-0.11371199786663055,-0.20613700151443481
1779996524825705200,16.582705322265625,9.803815841674805,-0.11375100165605545,-0.20487000048160553
1779996524842981600,16.599981689453124,9.803853034973145,-0.11377599835395813,-0.20303699374198914
1779996524860258000,16.617258056640626,9.803885459899902,-0.1137939989566803,-0.2016409933567047
1779996524886172700,16.643172607421874,9.803876876831055,-0.11380399763584137,-0.20200000703334808
1779996524903449300,16.660449462890625,9.803839683532715,-0.11381900310516357,-0.20365199446678162
1779996524920725500,16.6777255859375,9.80380630493164,-0.11382099986076355,-0.20538200438022614
1779996524946640400,16.703640380859376,9.803792953491211,-0.11382299661636353,-0.2060769945383072
1779996524963916800,16.720916748046875,9.803814888000488,-0.11391700059175491,-0.20487700402736664
1779996524981193200,16.738193115234374,9.803852081298828,-0.11407700181007385,-0.2030239999294281
1779996524998469600,16.7554697265625,9.803882598876953,-0.11420699954032898,-0.20161500573158264
1779996525015746000,16.77274609375,9.803885459899902,-0.11422999948263168,-0.20150400698184967
1779996525041661000,16.798660888671876,9.803837776184082,-0.1141820028424263,-0.20364199578762054
1779996525058937300,16.815937255859374,9.803801536560059,-0.11417599767446518,-0.20540699362754822
1779996525076213800,16.8332138671875,9.803787231445312,-0.11420799791812897,-0.20622999966144562
1779996525093490200,16.850490234375,9.80379867553711,-0.11423300206661224,-0.20561499893665314
1779996525110766600,16.8677666015625,9.803831100463867,-0.11416099965572357,-0.20400500297546387
1779996525128043000,16.88504296875,9.803868293762207,-0.11404100060462952,-0.20233100652694702
1779996525145319400,16.9023193359375,9.8038911819458,-0.11388800293207169,-0.2014950066804886
1779996525171234300,16.928234375,9.803868293762207,-0.11364100128412247,-0.2024960070848465
1779996525188510500,16.945510498046875,9.803839683532715,-0.11346399784088135,-0.20404699444770813
1779996525205787100,16.962787109375,9.803816795349121,-0.11334799975156784,-0.2053070068359375
1779996525223063600,16.9800634765625,9.803812980651855,-0.1133119985461235,-0.20554399490356445
1779996525240340000,16.997340087890624,9.80383014678955,-0.11341000348329544,-0.20455799996852875
1779996525257616400,17.014616455078126,9.803862571716309,-0.11359100043773651,-0.2029220014810562
1779996525274893000,17.03189306640625,9.803889274597168,-0.11374499648809433,-0.2017260044813156
1779996525292169200,17.049169189453124,9.803885459899902,-0.11389300227165222,-0.20179900527000427
1779996525309446000,17.06644580078125,9.803853034973145,-0.1139720007777214,-0.20316900312900543
1779996525326722300,17.083722412109374,9.803812980651855,-0.11406999826431274,-0.20504599809646606
1779996525352637000,17.109636962890626,9.80378246307373,-0.114096999168396,-0.20665700733661652
1779996525369913300,17.126913330078125,9.803791046142578,-0.11407499760389328,-0.2061839997768402
1779996525387189800,17.144189697265624,9.80381965637207,-0.11408399790525436,-0.20473000407218933
1779996525413104400,17.1701044921875,9.80386734008789,-0.11413100361824036,-0.20251500606536865
1779996525430380800,17.187380859375,9.803874969482422,-0.11411499977111816,-0.20225900411605835
1779996525447657500,17.204657470703125,9.803852081298828,-0.11404100060462952,-0.20328499376773834
1779996525464934000,17.221933837890624,9.803815841674805,-0.11395999789237976,-0.20504100620746613
1779996525490848500,17.2478486328125,9.803783416748047,-0.11394599825143814,-0.20683099329471588
1779996525508125000,17.265125,9.803790092468262,-0.11394800245761871,-0.20642299950122833
1779996525525401600,17.282401611328126,9.803818702697754,-0.11392500251531601,-0.20498299598693848
1779996525551316000,17.30831591796875,9.803866386413574,-0.11387699842453003,-0.20284199714660645
1779996525568592600,17.325592529296873,9.803874015808105,-0.11384499818086624,-0.20259399712085724
1779996525585869000,17.342869140625,9.803853034973145,-0.11380299925804138,-0.2034980058670044
1779996525603145500,17.3601455078125,9.803824424743652,-0.1136849969625473,-0.2049500048160553
1779996525629060000,17.38606005859375,9.803801536560059,-0.11355199664831161,-0.20621900260448456
1779996525646336500,17.40333642578125,9.803812980651855,-0.11355499923229218,-0.20563800632953644
1779996525663613000,17.420613037109376,9.803842544555664,-0.11360800266265869,-0.2041109949350357
1779996525689527800,17.44652783203125,9.803888320922852,-0.11370500177145004,-0.20197300612926483
1779996525706804500,17.463804443359376,9.803892135620117,-0.1137159988284111,-0.20183800160884857
1779996525724080600,17.48108056640625,9.803863525390625,-0.11374899744987488,-0.20297400653362274
1779996525749995500,17.50699560546875,9.803812980651855,-0.1137859970331192,-0.2055239975452423
1779996525767272000,17.52427197265625,9.803796768188477,-0.11387299746274948,-0.20633600652217865
1779996525784548000,17.541548095703124,9.803804397583008,-0.11388400197029114,-0.20586800575256348
1779996525801824800,17.55882470703125,9.8038330078125,-0.11389800161123276,-0.20439499616622925
1779996525819101000,17.576100830078126,9.803869247436523,-0.1138719990849495,-0.20276300609111786
1779996525836377600,17.593377685546876,9.803890228271484,-0.11388000100851059,-0.20187099277973175
1779996525853654000,17.610654052734375,9.80388355255127,-0.1138719990849495,-0.20212000608444214
1779996525870930400,17.627930419921874,9.80385684967041,-0.1138560026884079,-0.2033739984035492
1779996525888206800,17.645206787109377,9.803826332092285,-0.11383400112390518,-0.20490600168704987
1779996525914121500,17.67112158203125,9.803808212280273,-0.11389899998903275,-0.20581600069999695
1779996525931398000,17.68839794921875,9.803823471069336,-0.11400999873876572,-0.20495599508285522
1779996525948674600,17.705674560546875,9.803852081298828,-0.11416599899530411,-0.20344200730323792
1779996525965951000,17.722950927734374,9.803875923156738,-0.11429399996995926,-0.2023019939661026
1779996525983227400,17.740227294921876,9.803876876831055,-0.11434999853372574,-0.2022790014743805
1779996526000503800,17.75750390625,9.803851127624512,-0.11442600190639496,-0.20332999527454376
1779996526026418400,17.78341845703125,9.803804397583008,-0.1144459992647171,-0.20561599731445312
1779996526043694800,17.80069482421875,9.803789138793945,-0.11449100077152252,-0.2064020037651062
1779996526060971500,17.817971435546873,9.80379581451416,-0.11457599699497223,-0.2059990018606186
1779996526078248000,17.835248046875,9.803820610046387,-0.11468400061130524,-0.20465099811553955
1779996526104162600,17.86116259765625,9.803863525390625,-0.11478400230407715,-0.20266300439834595
1779996526121439000,17.87843896484375,9.803863525390625,-0.11484500020742416,-0.20261399447917938
1779996526138715400,17.89571533203125,9.803834915161133,-0.11480700224637985,-0.20383800566196442
1779996526155991800,17.91299169921875,9.80379867553711,-0.11477100104093552,-0.20557500422000885
1779996526173268500,17.9302685546875,9.8037748336792,-0.11469399929046631,-0.20682300627231598
1779996526190544600,17.947544677734374,9.8037748336792,-0.1145939975976944,-0.20694099366664886
1779996526207821300,17.9648212890625,9.803796768188477,-0.11448200047016144,-0.20582500100135803
1779996526233736200,17.990736083984373,9.80385684967041,-0.11429700255393982,-0.20310500264167786
1779996526251012400,18.008012451171876,9.803885459899902,-0.1141669973731041,-0.20190800726413727
1779996526268288800,18.025288818359375,9.803887367248535,-0.11408399790525436,-0.20192000269889832
1779996526285565200,18.042565185546874,9.803862571716309,-0.11401700228452682,-0.20306700468063354
1779996526302841600,18.059841552734376,9.80383014678955,-0.11398699879646301,-0.20462200045585632
1779996526320118000,18.077117919921875,9.80380916595459,-0.11404299736022949,-0.2056339979171753
1779996526346033000,18.103032958984375,9.803816795349121,-0.11425700038671494,-0.2051910012960434
1779996526363309300,18.120309326171874,9.803839683532715,-0.1144149973988533,-0.2039629966020584
1779996526380585500,18.13758544921875,9.803862571716309,-0.11453399807214737,-0.20291300117969513
1779996526406500400,18.163500244140625,9.803851127624512,-0.1148729994893074,-0.20320799946784973
1779996526423777000,18.180777099609376,9.803808212280273,-0.11520899832248688,-0.204912006855011
1779996526441053400,18.198053466796875,9.803760528564453,-0.11520999670028687,-0.207178995013237
1779996526466967800,18.2239677734375,9.803723335266113,-0.11522799730300903,-0.2092210054397583
1779996526484244500,18.241244384765626,9.803735733032227,-0.11515700072050095,-0.20867300033569336
1779996526501521000,18.25852099609375,9.803771018981934,-0.1151600033044815,-0.2068829983472824
1779996526518797300,18.27579736328125,9.803816795349121,-0.11509200185537338,-0.2048410028219223
1779996526544712200,18.301712158203124,9.803853988647461,-0.11455900222063065,-0.20352600514888763
1779996526561988600,18.318988525390626,9.803842544555664,-0.11429200321435928,-0.20413999259471893
1779996526579265000,18.33626513671875,9.803820610046387,-0.11425500363111496,-0.20523999631404877
1779996526605179600,18.3621796875,9.803803443908691,-0.11418800055980682,-0.20615699887275696
1779996526622456000,18.3794560546875,9.803812026977539,-0.11424700170755386,-0.2056570053100586
1779996526639732500,18.396732421875,9.803833961486816,-0.11429999768733978,-0.2046000063419342
1779996526665647000,18.422647216796875,9.80385971069336,-0.11447799950838089,-0.20332199335098267
1779996526682923500,18.439923583984374,9.803854942321777,-0.11462800204753876,-0.20340800285339355
1779996526700200000,18.457199951171877,9.803833961486816,-0.11467599868774414,-0.20437699556350708
1779996526726114800,18.48311474609375,9.803789138793945,-0.11478199809789658,-0.20649799704551697
1779996526743391200,18.50039111328125,9.803772926330566,-0.11484300345182419,-0.20733100175857544
1779996526760667600,18.517667724609375,9.803775787353516,-0.11490900069475174,-0.20714400708675385
1779996526786582300,18.543582275390627,9.803808212280273,-0.1149659976363182,-0.20552000403404236
1779996526803858700,18.560858642578125,9.803829193115234,-0.11496800184249878,-0.20455899834632874
1779996526821135000,18.578135009765624,9.803834915161133,-0.11490999907255173,-0.20437200367450714
1779996526847049700,18.6040498046875,9.803811073303223,-0.11479900032281876,-0.20552200078964233
1779996526864326100,18.621326171875,9.803792953491211,-0.11471199989318848,-0.2064480036497116
1779996526881602800,18.638602783203126,9.803789138793945,-0.11466000229120255,-0.2067510038614273
1779996526898879200,18.655879150390625,9.803799629211426,-0.11462300270795822,-0.20618200302124023
1779996526916155600,18.67315576171875,9.803823471069336,-0.11462700366973877,-0.2049819976091385
1779996526933432000,18.69043212890625,9.803849220275879,-0.11466699838638306,-0.20376700162887573
1779996526950708700,18.707708740234374,9.803860664367676,-0.11465200036764145,-0.20324000716209412
1779996526976623000,18.733623046875,9.803841590881348,-0.11462900042533875,-0.2041510045528412
1779996526993899800,18.750899658203124,9.803814888000488,-0.1145939975976944,-0.2054460048675537
1779996527011176200,18.76817626953125,9.803793907165527,-0.11455000191926956,-0.20649699866771698
1779996527028452600,18.78545263671875,9.803790092468262,-0.11444099992513657,-0.20681099593639374
1779996527045729000,18.80272900390625,9.80379867553711,-0.11467199772596359,-0.20623500645160675
1779996527063005400,18.82000537109375,9.803818702697754,-0.1149659976363182,-0.2050500065088272
1779996527080282000,18.8372822265625,9.80384635925293,-0.11537700146436691,-0.20362499356269836
1779996527106196700,18.86319677734375,9.803876876831055,-0.11608099937438965,-0.20190900564193726
1779996527123473000,18.880472900390625,9.803885459899902,-0.11635299772024155,-0.20130600035190582
1779996527140749300,18.897749267578124,9.803885459899902,-0.11640699952840805,-0.20131200551986694
1779996527158026000,18.91502587890625,9.80387020111084,-0.11669600009918213,-0.20188100636005402
1779996527175302700,18.932302734375,9.803848266601562,-0.11701799929141998,-0.2028760015964508
1779996527192579000,18.9495791015625,9.803820610046387,-0.11744099855422974,-0.20391300320625305
1779996527209855200,18.966855224609375,9.803800582885742,-0.11804299801588058,-0.20458899438381195
1779996527227132000,18.9841318359375,9.803789138793945,-0.11862500011920929,-0.20474399626255035
1779996527244408000,19.001407958984377,9.803773880004883,-0.11931700259447098,-0.2050269991159439
1779996527270323000,19.027322998046873,9.803683280944824,-0.12104000151157379,-0.2083429992198944
1779996527287599400,19.044599365234376,9.803563117980957,-0.12185999751091003,-0.2134999930858612
1779996527304875800,19.061875732421875,9.803410530090332,-0.1222039982676506,-0.2200849950313568
1779996527330790400,19.087790283203127,9.803192138671875,-0.12291300296783447,-0.22898299992084503
1779996527348066800,19.10506689453125,9.803070068359375,-0.1233299970626831,-0.23378300666809082
1779996527365343000,19.122343017578125,9.802921295166016,-0.12422399967908859,-0.2394620031118393
1779996527382619600,19.13961962890625,9.802718162536621,-0.12483900040388107,-0.24739499390125275
1779996527399896300,19.156896240234374,9.802460670471191,-0.12567000091075897,-0.25700798630714417
1779996527417172500,19.17417236328125,9.802191734313965,-0.12685100734233856,-0.26641398668289185
1779996527434449000,19.191448974609376,9.801957130432129,-0.1281770020723343,-0.2741920053958893
1779996527451725600,19.2087255859375,9.801749229431152,-0.12938199937343597,-0.28092700242996216
1779996527469002000,19.226001953125,9.801519393920898,-0.13152000308036804,-0.2879520058631897
1779996527486278400,19.2432783203125,9.801236152648926,-0.13400299847126007,-0.29644501209259033
1779996527503554800,19.260554931640623,9.800909042358398,-0.1369449943304062,-0.30576398968696594
1779996527520831500,19.27783154296875,9.800593376159668,-0.14024800062179565,-0.3142240047454834
1779996527538108000,19.29510791015625,9.80034065246582,-0.1432889997959137,-0.3206290006637573
1779996527555384300,19.31238427734375,9.800161361694336,-0.14582699537277222,-0.3250040113925934
1779996527572660700,19.32966064453125,9.800013542175293,-0.148499995470047,-0.3283909857273102
1779996527589937200,19.346937255859373,9.799826622009277,-0.1512649953365326,-0.332830011844635
1779996527607213600,19.364213623046876,9.799591064453125,-0.1537110060453415,-0.33862799406051636
1779996527624490000,19.381489990234375,9.799320220947266,-0.156031996011734,-0.34515801072120667
1779996527641766400,19.398766357421874,9.799047470092773,-0.15796500444412231,-0.3516789972782135
1779996527659042800,19.416042724609376,9.7987642288208,-0.15928399562835693,-0.3586199879646301
1779996527676319200,19.4333193359375,9.798428535461426,-0.16062399744987488,-0.36692601442337036
1779996527693595600,19.450595703125,9.797982215881348,-0.1609559953212738,-0.3784480094909668
1779996527710872000,19.4678720703125,9.797411918640137,-0.1605129987001419,-0.39302799105644226
1779996527728148700,19.485148681640624,9.796801567077637,-0.15950199961662292,-0.4082390069961548
1779996527754063000,19.51106298828125,9.7959566116333,-0.15814700722694397,-0.4284450113773346
1779996527771339800,19.52833984375,9.795418739318848,-0.15749700367450714,-0.4408099949359894
1779996527788616200,19.5456162109375,9.794841766357422,-0.157492995262146,-0.45355600118637085
1779996527805892600,19.562892578125,9.794173240661621,-0.1583160012960434,-0.4676620066165924
1779996527823169000,19.5801689453125,9.793442726135254,-0.16080699861049652,-0.48197799921035767
1779996527840445700,19.59744580078125,9.79273796081543,-0.16375400125980377,-0.49506399035453796
1779996527866360000,19.623360107421874,9.791723251342773,-0.16808700561523438,-0.5131980180740356
1779996527883636700,19.64063671875,9.79098892211914,-0.17121100425720215,-0.525950014591217
1779996527900913200,19.6579130859375,9.790121078491211,-0.17601600289344788,-0.5402250289916992
1779996527926827800,19.683827880859376,9.78859806060791,-0.1848900020122528,-0.5641329884529114
1779996527944104400,19.7011044921875,9.787548065185547,-0.19072100520133972,-0.5800319910049438
1779996527961380600,19.718380615234373,9.786554336547852,-0.1954900026321411,-0.5949950218200684
1779996527987295500,19.74429541015625,9.78515625,-0.20111000537872314,-0.6159980297088623
1779996528004572000,19.761572021484376,9.7841796875,-0.20561499893665314,-0.6300870180130005
1779996528021848300,19.778848388671875,9.783162117004395,-0.20897500216960907,-0.6447280049324036
1779996528047763000,19.804762939453123,9.78160285949707,-0.21030999720096588,-0.6674140095710754
1779996528065039400,19.822039306640626,9.78054141998291,-0.20875699818134308,-0.6830120086669922
1779996528082315800,19.839315673828125,9.779422760009766,-0.20584499835968018,-0.6993780136108398
1779996528099592400,19.856592529296876,9.77817153930664,-0.20369400084018707,-0.717074990272522
1779996528116868900,19.873868896484375,9.776792526245117,-0.20196999609470367,-0.7360939979553223
1779996528134145300,19.891145263671874,9.775386810302734,-0.19950899481773376,-0.7553510069847107
1779996528151421700,19.908421630859376,9.774033546447754,-0.1965859979391098,-0.7736120223999023
1779996528168698000,19.925697998046875,9.772771835327148,-0.19333800673484802,-0.7903919816017151
1779996528185974500,19.942974609375,9.77159595489502,-0.1906830072402954,-0.8055800199508667
1779996528211889200,19.96888916015625,9.7699556350708,-0.18847300112247467,-0.8258739709854126
1779996528229165600,19.98616552734375,9.76890754699707,-0.18697600066661835,-0.8385540246963501
1779996528246442200,20.003442138671875,9.767862319946289,-0.185357004404068,-0.8509889841079712
1779996528272356600,20.029356689453124,9.766310691833496,-0.18253199756145477,-0.8692119717597961
1779996528289633300,20.04663330078125,9.76528263092041,-0.18044699728488922,-0.8811110258102417
1779996528306909700,20.06390966796875,9.764245986938477,-0.17786100506782532,-0.8930360078811646
1779996528324185900,20.081185791015624,9.763118743896484,-0.17492200434207916,-0.9058120250701904
1779996528350100700,20.107100830078124,9.761134147644043,-0.17050200700759888,-0.9276480078697205
1779996528367377200,20.124377197265623,9.759671211242676,-0.1671770066022873,-0.9433479905128479
1779996528384653800,20.14165380859375,9.758190155029297,-0.16305699944496155,-0.9591619968414307
1779996528401930200,20.15893017578125,9.756741523742676,-0.1583089977502823,-0.9745609760284424
1779996528427844900,20.184844970703125,9.75476360321045,-0.15063199400901794,-0.9955779910087585
1779996528445121300,20.202121337890624,9.753703117370605,-0.14580699801445007,-1.0068279504776
1779996528462397700,20.219397705078126,9.752948760986328,-0.1420930027961731,-1.0148260593414307
1779996528479674400,20.23667431640625,9.752504348754883,-0.14001399278640747,-1.019461989402771
1779996528496950500,20.253950439453124,9.752339363098145,-0.13870899379253387,-1.0212490558624268
1779996528514227200,20.271227294921875,9.752381324768066,-0.13771599531173706,-1.0210000276565552
1779996528531503400,20.28850341796875,9.752506256103516,-0.13735699653625488,-1.0198609828948975
1779996528548779800,20.30577978515625,9.752592086791992,-0.13786999881267548,-1.018960952758789
1779996528566056400,20.323056396484375,9.752524375915527,-0.13916300237178802,-1.0194339752197266
1779996528583332600,20.34033251953125,9.752232551574707,-0.1405559927225113,-1.022007942199707
1779996528600609300,20.357609375,9.751720428466797,-0.14099399745464325,-1.026777982711792
1779996528617885700,20.3748857421875,9.751029014587402,-0.14037799835205078,-1.0333340167999268
1779996528635161900,20.392161865234375,9.750171661376953,-0.13928399980068207,-1.0414769649505615
1779996528652438500,20.4094384765625,9.74916934967041,-0.13768400251865387,-1.0509849786758423
1779996528669715000,20.42671484375,9.748086929321289,-0.13548000156879425,-1.0612419843673706
1779996528686991400,20.443991455078127,9.747007369995117,-0.13296200335025787,-1.071437954902649
1779996528704267800,20.461267822265626,9.746053695678711,-0.13041900098323822,-1.0804500579833984
1779996528721544200,20.478544189453125,9.745336532592773,-0.12775200605392456,-1.087278962135315
1779996528747459000,20.504458984375,9.744647979736328,-0.1240449994802475,-1.0939539670944214
1779996528764735500,20.521735595703124,9.744282722473145,-0.12234900146722794,-1.0974199771881104
1779996528782012000,20.539011962890626,9.74394702911377,-0.12144000083208084,-1.1005029678344727
1779996528799288300,20.556288330078125,9.743657112121582,-0.12104599922895432,-1.1031110286712646
1779996528825203200,20.582203125,9.743261337280273,-0.12109299749135971,-1.1065640449523926
1779996528842479400,20.599479248046876,9.742931365966797,-0.12097600102424622,-1.1094709634780884
1779996528859755800,20.616755859375,9.742508888244629,-0.12019000202417374,-1.1132630109786987
1779996528885670400,20.64267041015625,9.741873741149902,-0.11799400299787521,-1.1190539598464966
1779996528902947000,20.659947021484374,9.741559028625488,-0.1165819987654686,-1.1219459772109985
1779996528920223200,20.67722314453125,9.741328239440918,-0.11558300256729126,-1.1240559816360474
1779996528946138000,20.70313818359375,9.741227149963379,-0.11367399990558624,-1.1251440048217773
1779996528963414500,20.72041455078125,9.741387367248535,-0.11168699711561203,-1.123952031135559
1779996528980691000,20.73769091796875,9.741671562194824,-0.1097240000963211,-1.1216559410095215
1779996529006605600,20.76360546875,9.742124557495117,-0.10824699699878693,-1.1178330183029175
1779996529023882000,20.780882080078126,9.742342948913574,-0.10741300135850906,-1.1160149574279785
1779996529041158400,20.798158447265624,9.742427825927734,-0.10615800321102142,-1.115409016609192
1779996529067073300,20.8240732421875,9.74218463897705,-0.10342399775981903,-1.1177669763565063
1779996529084349700,20.841349609375,9.741708755493164,-0.10136500000953674,-1.1220309734344482
1779996529101626000,20.858626220703126,9.741008758544922,-0.09927099943161011,-1.128237009048462
1779996529118902500,20.875902587890625,9.740187644958496,-0.0972839966416359,-1.1354479789733887
1779996529136179200,20.89317919921875,9.739389419555664,-0.0951249971985817,-1.1424989700317383
1779996529153455400,20.910455322265626,9.738715171813965,-0.09302300214767456,-1.148445963859558
1779996529170732000,20.92773193359375,9.738219261169434,-0.09146399796009064,-1.1528340578079224
1779996529188008400,20.945008544921876,9.737906455993652,-0.09063199907541275,-1.1555529832839966
1779996529205284900,20.962284912109375,9.73777961730957,-0.0904180034995079,-1.1566450595855713
1779996529222561300,20.979561279296874,9.737810134887695,-0.09062100201845169,-1.156383991241455
1779996529239837700,20.996837646484376,9.737930297851562,-0.0912650004029274,-1.1553109884262085
1779996529265752600,21.022752685546877,9.738147735595703,-0.09283500164747238,-1.1533490419387817
1779996529283028700,21.04002880859375,9.738272666931152,-0.09406699985265732,-1.1521990299224854
1779996529300305400,21.057305419921875,9.73840045928955,-0.0946429967880249,-1.1510759592056274
1779996529326219800,21.0832197265625,9.738534927368164,-0.09468299895524979,-1.1499409675598145
1779996529343496400,21.100496337890625,9.738504409790039,-0.09507299959659576,-1.1501649618148804
1779996529360772900,21.11777294921875,9.738369941711426,-0.09571000188589096,-1.151244044303894
1779996529386687500,21.1436875,9.738068580627441,-0.0961960032582283,-1.1537439823150635
1779996529403964200,21.160964111328123,9.737809181213379,-0.09623800218105316,-1.1559159755706787
1779996529421240300,21.178240234375,9.737494468688965,-0.09664499759674072,-1.158521056175232
1779996529447155200,21.2041552734375,9.737014770507812,-0.09697999805212021,-1.1625239849090576
1779996529464431600,21.221431640625,9.736795425415039,-0.09643000364303589,-1.1644229888916016
1779996529481707800,21.238707763671876,9.736651420593262,-0.09530899673700333,-1.165714979171753
1779996529498984400,21.255984375,9.736543655395508,-0.09415700286626816,-1.1667059659957886
1779996529516260900,21.2732607421875,9.736468315124512,-0.09303399920463562,-1.1674250364303589
1779996529533537300,21.290537353515624,9.736444473266602,-0.09178200364112854,-1.1677360534667969
1779996529550813700,21.307813720703123,9.736444473266602,-0.09059300273656845,-1.167834997177124
1779996529568090400,21.32509033203125,9.736433029174805,-0.08972100168466568,-1.1679960489273071
1779996529585366500,21.342366455078125,9.736390113830566,-0.08936099708080292,-1.1683720350265503
1779996529602643000,21.359642822265624,9.73630428314209,-0.08921100199222565,-1.1690950393676758
1779996529628557800,21.385557861328124,9.736059188842773,-0.08935199677944183,-1.171110987663269
1779996529645834200,21.402834228515626,9.735777854919434,-0.08934000134468079,-1.1734490394592285
1779996529663110700,21.420110595703125,9.735405921936035,-0.08878099918365479,-1.1765660047531128
1779996529689025300,21.446025390625,9.734786033630371,-0.086558997631073,-1.1818310022354126
1779996529706301700,21.4633017578125,9.734312057495117,-0.08491399884223938,-1.1858320236206055
1779996529723578000,21.480578125,9.733777046203613,-0.08339499682188034,-1.1903350353240967
1779996529740854500,21.4978544921875,9.733226776123047,-0.08188900351524353,-1.1949429512023926
1779996529766769400,21.523769287109374,9.732540130615234,-0.07986699789762497,-1.2006670236587524
1779996529784045600,21.541045654296877,9.732210159301758,-0.0788320004940033,-1.2034130096435547
1779996529801322200,21.558322265625,9.731945991516113,-0.07808499783277512,-1.2056020498275757
1779996529827236900,21.58423681640625,9.731646537780762,-0.07671099901199341,-1.2081120014190674
1779996529844513300,21.60151318359375,9.731526374816895,-0.07598800212144852,-1.2091209888458252
1779996529861789700,21.618789794921874,9.731500625610352,-0.07583200186491013,-1.2093490362167358
1779996529887704300,21.644704345703126,9.731670379638672,-0.07619799673557281,-1.2079620361328125
1779996529904980700,21.661980712890625,9.73187255859375,-0.0767429992556572,-1.2062820196151733
1779996529922257200,21.679257080078123,9.732138633728027,-0.07818999886512756,-1.2040289640426636
1779996529948171800,21.705171875,9.732834815979004,-0.08336299657821655,-1.1979739665985107
1779996529965448400,21.722448486328126,9.733858108520508,-0.09011700004339218,-1.188923954963684
1779996529982724600,21.739724609375,9.73594856262207,-0.09649600088596344,-1.1704740524291992
1779996530000001300,21.757001220703124,9.74053955078125,-0.09086299687623978,-1.1274369955062866
1779996530025916000,21.782916015625,9.75328254699707,-0.09620700031518936,-0.9596179723739624
1779996530043192300,21.8001923828125,9.762394905090332,-0.10802700370550156,-0.7683209776878357
1779996530060468700,21.81746875,9.770910263061523,-0.08699499815702438,-0.5552440285682678
1779996530077745400,21.834745361328125,9.778952598571777,-0.023962000384926796,-0.36456799507141113
1779996530095021800,21.852021728515624,9.785553932189941,0.06712999939918518,-0.23359499871730804
1779996530112298000,21.869298095703126,9.79028034210205,0.1281609982252121,-0.16820700466632843
1779996530129574700,21.88657470703125,9.790960311889648,0.0920730009675026,-0.15194399654865265
1779996530146851000,21.90385107421875,9.789566040039062,0.08996699750423431,-0.17354699969291687
1779996530164127500,21.92112744140625,9.788437843322754,0.165351003408432,-0.22156299650669098
1779996530181404000,21.93840380859375,9.788778305053711,0.2085990011692047,-0.25748199224472046
1779996530198680300,21.955680419921876,9.789175987243652,0.190761998295784,-0.2598170042037964
1779996530224595000,21.981594970703124,9.791686058044434,0.08640599995851517,-0.20430099964141846
1779996530241871600,21.99887158203125,9.794302940368652,0.03998799994587898,-0.1624089926481247
1779996530259147800,22.016147705078126,9.79583740234375,0.06398099660873413,-0.14953799545764923
1779996530285062700,22.042062744140626,9.794352531433105,0.04446600005030632,-0.18027499318122864
1779996530302338800,22.0593388671875,9.794265747070312,-0.016899000853300095,-0.21200600266456604
1779996530319615500,22.076615478515624,9.79488754272461,-0.043772000819444656,-0.23711499571800232
1779996530345529900,22.10252978515625,9.794928550720215,-0.03483400121331215,-0.2386859953403473
1779996530362806500,22.119806640625,9.794480323791504,-0.00583299994468689,-0.21485500037670135
1779996530380082700,22.137082763671874,9.795183181762695,0.042514000087976456,-0.18314899504184723
1779996530397359400,22.154359375,9.796740531921387,0.052531998604536057,-0.1598690003156662
1779996530414635500,22.171635498046875,9.796229362487793,0.03303400054574013,-0.16377200186252594
1779996530431912000,22.188911865234374,9.794730186462402,0.06748899817466736,-0.19561100006103516
1779996530449188600,22.206188720703125,9.794426918029785,0.06856600195169449,-0.23248200118541718
1779996530466465000,22.223465087890624,9.794724464416504,0.041450001299381256,-0.2542079985141754
1779996530483741400,22.240741455078126,9.794809341430664,0.029843999072909355,-0.25303998589515686
1779996530501017900,22.258017822265625,9.794453620910645,0.0388760007917881,-0.23319700360298157
1779996530526932700,22.2839326171875,9.79448413848877,0.10950999706983566,-0.19281800091266632
1779996530544209200,22.301209228515624,9.795784950256348,0.12220799922943115,-0.1744379997253418
1779996530561485600,22.318485595703127,9.795336723327637,0.08513499796390533,-0.17990900576114655
1779996530587400200,22.344400146484375,9.793874740600586,0.14923299849033356,-0.2302190065383911
1779996530604676600,22.361676513671874,9.794300079345703,0.16838200390338898,-0.2558009922504425
1779996530621953000,22.378953125,9.794413566589355,0.11935800313949585,-0.25330498814582825
1779996530647868000,22.404867919921877,9.796762466430664,0.019231000915169716,-0.2110700011253357
1779996530665144000,22.42214404296875,9.798097610473633,0.0003769999893847853,-0.18878300487995148
1779996530682420700,22.439420654296875,9.79867172241211,0.018552999943494797,-0.18519699573516846
1779996530699697200,22.456697265625,9.79798698425293,0.005795000120997429,-0.19825999438762665
1779996530725611800,22.48261181640625,9.797574996948242,-0.05298500135540962,-0.22959500551223755
1779996530742888200,22.49988818359375,9.797839164733887,-0.049956001341342926,-0.24789699912071228
1779996530760164600,22.51716455078125,9.7980318069458,-0.01425000000745058,-0.25140199065208435
1779996530786079200,22.543079345703124,9.797698974609375,0.024383999407291412,-0.22551800310611725
1779996530803355600,22.560355712890626,9.798662185668945,0.047331999987363815,-0.19925500452518463
1779996530820632000,22.577632080078125,9.799518585205078,0.039494000375270844,-0.18365900218486786
1779996530846547000,22.603546875,9.798571586608887,0.051587000489234924,-0.20238499343395233
1779996530863823000,22.620822998046876,9.798054695129395,0.05615200102329254,-0.23044100403785706
1779996530881099800,22.638099853515627,9.7981538772583,0.04074599966406822,-0.25098100304603577
1779996530898376200,22.655376220703126,9.798282623291016,0.03655000030994415,-0.2552320063114166
1779996530915652600,22.672652587890624,9.798123359680176,0.041356999427080154,-0.24201999604701996
1779996530932929000,22.689928955078123,9.79819393157959,0.06271199882030487,-0.21869400143623352
1779996530950205400,22.707205322265626,9.799412727355957,0.09165900200605392,-0.19546599686145782
1779996530967481900,22.72448193359375,9.799786567687988,0.06826300173997879,-0.18696999549865723
1779996530984758300,22.74175830078125,9.79906177520752,0.07852599769830704,-0.20039400458335876
1779996531002035000,22.759034912109374,9.798521995544434,0.09970799833536148,-0.22673299908638
1779996531019311000,22.77631103515625,9.798460960388184,0.07923000305891037,-0.24946600198745728
1779996531045226000,22.80222607421875,9.798872947692871,0.05837000161409378,-0.2492309957742691
1779996531062502400,22.81950244140625,9.799009323120117,0.05888799950480461,-0.23002499341964722
1779996531079778600,22.836778564453127,9.799421310424805,0.08237899839878082,-0.2066279947757721
1779996531105693400,22.862693359375,9.800677299499512,0.07982199639081955,-0.18334099650382996
1779996531122969900,22.879969970703126,9.800358772277832,0.08035600185394287,-0.18984700739383698
1779996531140246300,22.897246337890625,9.7998046875,0.09979400038719177,-0.21119500696659088
1779996531157523000,22.91452294921875,9.799686431884766,0.09191799908876419,-0.23347599804401398
1779996531174799000,22.931799072265626,9.799894332885742,0.08346399664878845,-0.2420949935913086
1779996531192075500,22.949075439453125,9.80010986328125,0.07529699802398682,-0.23442499339580536
1779996531209352200,22.966352294921876,9.800357818603516,0.07661599665880203,-0.21575799584388733
1779996531226628600,22.983628662109375,9.801091194152832,0.09288600087165833,-0.19557400047779083
1779996531243905000,23.000905029296874,9.801590919494629,0.08912800252437592,-0.18606099486351013
1779996531269819600,23.026819580078126,9.80111312866211,0.09146299958229065,-0.1987130045890808
1779996531287096000,23.044095947265625,9.800793647766113,0.09761200100183487,-0.2173299938440323
1779996531304372500,23.06137255859375,9.80080795288086,0.09606699645519257,-0.23108500242233276
1779996531330287000,23.087287109375,9.801309585571289,0.06690700352191925,-0.22330500185489655
1779996531347563500,23.1045634765625,9.801685333251953,0.046480998396873474,-0.20458300411701202
1779996531364840000,23.12183984375,9.802230834960938,0.06024999916553497,-0.18724000453948975
1779996531390754600,23.147754638671874,9.802721977233887,0.04776600003242493,-0.17891499400138855
1779996531408031000,23.165031005859376,9.802298545837402,0.05871399864554405,-0.18916399776935577
1779996531425307400,23.182307373046875,9.80200481414795,0.05539499968290329,-0.2041970044374466
1779996531451222000,23.208221923828123,9.80215835571289,0.0360880009829998,-0.21591199934482574
1779996531468498400,23.22549853515625,9.802127838134766,0.035725999623537064,-0.21062099933624268
1779996531485774800,23.24277490234375,9.80223560333252,0.03770900145173073,-0.1956769973039627
1779996531511689700,23.268689697265625,9.80296516418457,0.03552599996328354,-0.17350700497627258
1779996531528966100,23.285966064453124,9.8031005859375,0.03608100116252899,-0.17069299519062042
1779996531546242600,23.30324267578125,9.802766799926758,0.0346979983150959,-0.17928799986839294
1779996531572157200,23.3291572265625,9.80243968963623,0.03631399944424629,-0.19959299266338348
1779996531589433600,23.34643359375,9.802481651306152,0.03367700055241585,-0.2062000036239624
1779996531606710300,23.363710205078124,9.802460670471191,0.03296700119972229,-0.2023400068283081
1779996531632625000,23.389625,9.802735328674316,0.032246001064777374,-0.18111500144004822
1779996531649901300,23.4069013671875,9.803194999694824,0.03135300055146217,-0.16860200464725494
1779996531667177500,23.424177490234374,9.803301811218262,0.031038999557495117,-0.16635100543498993
1779996531693092400,23.45009228515625,9.80276107788086,0.030559999868273735,-0.18264999985694885
1779996531710368800,23.46736865234375,9.80260944366455,0.030117999762296677,-0.19674499332904816
1779996531727645000,23.48464501953125,9.802645683288574,0.02884400077164173,-0.20412799715995789
1779996531753559800,23.510559814453124,9.802633285522461,0.028291000053286552,-0.19519199430942535
1779996531770836200,23.527836181640627,9.802876472473145,0.027542000636458397,-0.18063899874687195
1779996531788112600,23.545112548828126,9.803300857543945,0.02643200010061264,-0.1688240021467209
1779996531814027300,23.57102734375,9.803257942199707,0.02560099959373474,-0.1700180023908615
1779996531831303700,23.5883037109375,9.802872657775879,0.025397999212145805,-0.18255899846553802
1779996531848580400,23.605580322265624,9.802716255187988,0.025120999664068222,-0.19639599323272705
