time,seconds_elapsed,z,y,x
1779996508490894300,0.247894287109375,0.0009624999947845936,0.020762499421834946,-0.009624999947845936
1779996508508170800,0.265170654296875,0.0009624999947845936,0.0012374999932944775,-0.002337499987334013
1779996508525447000,0.282447021484375,-0.0002749999985098839,-0.02928750030696392,-0.0035749999806284904
1779996508542723300,0.299723388671875,0.002199999988079071,-0.0340999998152256,-0.002337499987334013
1779996508559999500,0.31699951171875,0.0009624999947845936,-0.028049999848008156,-0.004812499973922968
1779996508585914000,0.3429140625,0.0009624999947845936,-0.025575000792741776,0.006187499966472387
1779996508603190300,0.360190185546875,0.0009624999947845936,-0.030524998903274536,-0.006049999967217445
1779996508620466700,0.377466796875,0.0009624999947845936,-0.015812499448657036,-0.008387500420212746
1779996508637742800,0.394742919921875,0.0009624999947845936,0.006187499966472387,-0.006049999967217445
1779996508655019300,0.412019287109375,0.0009624999947845936,0.018424998968839645,-0.002337499987334013
1779996508672295700,0.429295654296875,-0.0002749999985098839,0.01223750039935112,0.00013749999925494194
1779996508689571800,0.44657177734375,-0.0002749999985098839,-0.0010999999940395355,0.0013749999925494194
1779996508706848300,0.46384814453125,0.0009624999947845936,-0.0085249999538064,0.0013749999925494194
1779996508732762600,0.4897626953125,0.0009624999947845936,-0.015812499448657036,0.006187499966472387
1779996508750039000,0.5070390625,-0.0015124999918043613,-0.010999999940395355,-0.010862499475479126
1779996508767315200,0.524315185546875,-0.0002749999985098839,-0.015812499448657036,0.007424999959766865
1779996508784591600,0.541591552734375,-0.0015124999918043613,-0.025575000792741776,-0.007287499960511923
1779996508801867800,0.55886767578125,0.002199999988079071,-0.02681249938905239,-0.007287499960511923
1779996508819144200,0.576144287109375,-0.0015124999918043613,-0.02433750033378601,-0.030387500301003456
1779996508836420400,0.59342041015625,-0.002749999985098839,-0.02433750033378601,-0.013337500393390656
1779996508853696800,0.61069677734375,-0.0002749999985098839,-0.015812499448657036,0.025712499395012856
1779996508870973000,0.627972900390625,-0.0002749999985098839,-0.00976249948143959,0.023375000804662704
1779996508888249300,0.645249267578125,-0.0002749999985098839,-0.006049999967217445,-0.007287499960511923
1779996508914163700,0.671163818359375,-0.0015124999918043613,-0.0035749999806284904,-0.023099999874830246
1779996508931440000,0.688440185546875,-0.0015124999918043613,0.0037124999798834324,-0.002337499987334013
1779996508948716500,0.705716552734375,0.0009624999947845936,0.015949999913573265,0.011137500405311584
1779996508965992700,0.72299267578125,0.0009624999947845936,0.025712499395012856,0.011137500405311584
1779996508983268900,0.740268798828125,0.0009624999947845936,0.02447500079870224,-0.0010999999940395355
1779996509000545300,0.757545166015625,-0.0015124999918043613,0.01347499992698431,-0.009624999947845936
1779996509017821700,0.77482177734375,0.0009624999947845936,0.007424999959766865,0.00013749999925494194
1779996509035097900,0.792097900390625,-0.0002749999985098839,0.00494999997317791,0.015949999913573265
1779996509052374000,0.8093740234375,-0.002749999985098839,0.0012374999932944775,-0.023099999874830246
1779996509069650400,0.826650390625,-0.0015124999918043613,-0.0010999999940395355,-0.028049999848008156
1779996509086926800,0.8439267578125,-0.0015124999918043613,0.0012374999932944775,-0.0193875003606081
1779996509104203000,0.861203125,-0.0015124999918043613,0.00494999997317791,0.006187499966472387
1779996509130117400,0.887117431640625,-0.002749999985098839,0.008662499487400055,0.011137500405311584
1779996509147393800,0.904393798828125,-0.002749999985098839,0.015949999913573265,-0.006049999967217445
1779996509164670000,0.921669921875,-0.003987499978393316,0.01347499992698431,-0.010862499475479126
1779996509181946400,0.9389462890625,-0.0015124999918043613,-0.0010999999940395355,0.0037124999798834324
1779996509207860700,0.96486083984375,-0.002749999985098839,0.07699999958276749,0.00013749999925494194
1779996509225137200,0.98213720703125,-0.002749999985098839,0.045237500220537186,0.020899999886751175
1779996509242413600,0.99941357421875,-0.002749999985098839,0.006187499966472387,-0.015812499448657036
1779996509259689700,1.016689697265625,-0.003987499978393316,-0.02928750030696392,-0.009624999947845936
1779996509276966100,1.033966064453125,-0.0002749999985098839,-0.045099999755620956,0.01718750037252903
1779996509294242300,1.0512421875,-0.0002749999985098839,-0.0170499999076128,0.030662499368190765
1779996509311518700,1.068518798828125,-0.002749999985098839,0.018424998968839645,0.002474999986588955
1779996509328795100,1.085795166015625,-0.003987499978393316,0.01718750037252903,-0.015812499448657036
1779996509346071300,1.1030712890625,-0.003987499978393316,-0.006049999967217445,-0.028049999848008156
1779996509363347500,1.120347412109375,-0.003987499978393316,-0.0170499999076128,-0.004812499973922968
1779996509380624000,1.137623779296875,-0.006462499964982271,-0.02186249941587448,-0.007287499960511923
1779996509397900300,1.154900390625,-0.007699999958276749,-0.023099999874830246,-0.0170499999076128
1779996509415176400,1.172176513671875,-0.010037500411272049,-0.015812499448657036,-0.028049999848008156
1779996509441091000,1.198091064453125,-0.006462499964982271,0.00989999994635582,0.03189999982714653
1779996509458367200,1.2153671875,-0.007699999958276749,0.025712499395012856,0.03189999982714653
1779996509475643600,1.2326435546875,-0.010037500411272049,0.029424998909235,-0.0035749999806284904
1779996509492919800,1.249919921875,-0.010037500411272049,0.0147124994546175,-0.020624998956918716
1779996509510196200,1.2671962890625,-0.010037500411272049,0.01347499992698431,-0.02433750033378601
1779996509527472400,1.284472412109375,-0.010037500411272049,0.01966249942779541,-0.009624999947845936
1779996509544748800,1.301748779296875,-0.010037500411272049,0.01347499992698431,-0.004812499973922968
1779996509562025000,1.31902490234375,-0.010037500411272049,-0.002337499987334013,0.002474999986588955
1779996509579301400,1.33630126953125,-0.008799999952316284,-0.018287500366568565,-0.006049999967217445
1779996509596577800,1.353577880859375,-0.007699999958276749,-0.010862499475479126,0.00494999997317791
1779996509613854000,1.37085400390625,-0.003987499978393316,0.0147124994546175,0.05389999970793724
1779996509639768600,1.3967685546875,-0.008799999952316284,0.03918749839067459,-0.0010999999940395355
1779996509657044700,1.414044677734375,-0.007699999958276749,0.03671250119805336,-0.0170499999076128
1779996509674321200,1.431321044921875,-0.005224999971687794,0.030662499368190765,-0.013337500393390656
1779996509700235500,1.457235595703125,-0.0015124999918043613,0.02447500079870224,0.03671250119805336
1779996509717511700,1.47451171875,-0.0015124999918043613,0.0147124994546175,0.040424998849630356
1779996509734788000,1.4917880859375,-0.003987499978393316,0.006187499966472387,0.015949999913573265
1779996509752064500,1.509064453125,-0.0015124999918043613,0.018424998968839645,0.01347499992698431
1779996509769340700,1.526340576171875,0.0009624999947845936,0.02694999985396862,0.015949999913573265
1779996509786616800,1.543616943359375,0.0032999999821186066,0.01966249942779541,0.035475000739097595
1779996509812531500,1.569531494140625,-0.0015124999918043613,0.00013749999925494194,-0.006049999967217445
1779996509829807900,1.586807861328125,-0.002749999985098839,-0.013337500393390656,-0.030387500301003456
1779996509847084300,1.604084228515625,-0.002749999985098839,-0.02186249941587448,-0.025575000792741776
1779996509864360400,1.6213603515625,0.0009624999947845936,-0.004812499973922968,0.03189999982714653
1779996509881636900,1.638636962890625,0.0009624999947845936,0.01347499992698431,0.029424998909235
1779996509898912800,1.655912841796875,0.002199999988079071,0.01966249942779541,0.028187500312924385
1779996509916189200,1.673189208984375,0.0009624999947845936,0.02447500079870224,0.01347499992698431
1779996509933465600,1.690465576171875,0.002199999988079071,0.035475000739097595,0.020899999886751175
1779996509950742000,1.707741943359375,0.002199999988079071,0.028187500312924385,0.008662499487400055
1779996509968018200,1.72501806640625,-0.0002749999985098839,0.00989999994635582,-0.004812499973922968
1779996509985294300,1.74229443359375,-0.002749999985098839,0.0037124999798834324,-0.010862499475479126
1779996510002570800,1.75957080078125,-0.0002749999985098839,0.01223750039935112,0.00013749999925494194
1779996510019847200,1.77684716796875,-0.0002749999985098839,0.00989999994635582,0.002474999986588955
1779996510037123600,1.79412353515625,-0.0015124999918043613,-0.00976249948143959,0.002474999986588955
1779996510054399700,1.811399658203125,-0.0015124999918043613,-0.037812501192092896,0.00989999994635582
1779996510071676000,1.828676025390625,-0.003987499978393316,-0.04028749838471413,-0.006049999967217445
1779996510088952000,1.8459521484375,-0.006462499964982271,-0.02433750033378601,-0.023099999874830246
1779996510106228700,1.863228759765625,-0.002749999985098839,0,-0.004812499973922968
1779996510123505000,1.8805048828125,-0.0015124999918043613,0.028187500312924385,0.02694999985396862
1779996510140781000,1.897781005859375,-0.003987499978393316,0.04399999976158142,0.015949999913573265
1779996510158057500,1.915057373046875,-0.005224999971687794,0.02447500079870224,-0.0010999999940395355
1779996510175333600,1.932333740234375,-0.007562499959021807,0.002474999986588955,-0.05004999786615372
1779996510192610300,1.9496103515625,-0.006462499964982271,-0.0170499999076128,-0.02186249941587448
1779996510209886200,1.96688623046875,-0.002749999985098839,-0.037812501192092896,0.00013749999925494194
1779996510227163000,1.984162841796875,-0.006462499964982271,-0.059812501072883606,-0.020624998956918716
1779996510244439300,2.001439208984375,-0.008799999952316284,-0.0976250022649765,-0.04386249929666519
1779996510261715200,2.018715087890625,-0.002749999985098839,-0.0635249987244606,0.07466249912977219
1779996510287629600,2.044629638671875,-0.030799999833106995,-0.12581250071525574,0.07466249912977219
1779996510304906000,2.061906005859375,-0.04922499880194664,-0.896637499332428,-0.7048249840736389
1779996510322182100,2.07918212890625,-0.28737500309944153,-2.600950002670288,0.35199999809265137
1779996510348097000,2.105096923828125,-0.06627500057220459,-3.3852500915527344,-0.30896249413490295
1779996510365373000,2.122373046875,-0.0625625029206276,-1.4365999698638916,-0.2516250014305115
1779996510382649600,2.139649658203125,-0.0015124999918043613,0.8687250018119812,0.8321499824523926
1779996510399925800,2.15692578125,-0.04179999977350235,2.7354249954223633,1.1827750205993652
1779996510417202000,2.174201904296875,-0.08579999953508377,3.0799999237060547,-0.5972999930381775
1779996510434478300,2.191478271484375,-0.10175000131130219,1.5309250354766846,-3.3754875659942627
1779996510451754800,2.208754638671875,0.04496249929070473,-0.8538749814033508,2.687849998474121
1779996510469031000,2.226031005859375,0.009487500414252281,-2.790287494659424,-0.10986249893903732
1779996510486307000,2.24330712890625,-0.06875000149011612,-3.242387533187866,-2.1025125980377197
1779996510503583700,2.260583740234375,-0.025987500324845314,-1.6956499814987183,1.019012451171875
1779996510520860200,2.277860107421875,0.07782500237226486,0.8344874978065491,2.0134124755859375
1779996510538136300,2.29513623046875,-0.05403750017285347,2.5730373859405518,1.866837501525879
1779996510555412700,2.312412841796875,-0.1615625023841858,2.8087124824523926,-0.5362499952316284
1779996510572689000,2.32968896484375,-0.13708749413490295,1.1753499507904053,-3.9423999786376953
1779996510585646300,2.342646240234375,-0.023512499406933784,0.7049624919891357,-2.246612548828125
1779996510602922500,2.359922607421875,0.03519999980926514,-1.6431249380111694,3.9230124950408936
1779996510620199000,2.377198974609375,0.09143749624490738,-2.7549500465393066,0.3922874927520752
1779996510637475000,2.39447509765625,0.009487500414252281,-2.150087594985962,-1.098212480545044
1779996510654751500,2.41175146484375,-0.021037500351667404,-0.37014999985694885,-0.761062502861023
1779996510672027600,2.429027587890625,-0.021037500351667404,1.4904999732971191,0.06847500056028366
1779996510689304000,2.446303955078125,-0.011274999938905239,2.6828999519348145,-0.08786249905824661
1779996510706580200,2.463580322265625,-0.0002749999985098839,2.309037446975708,-1.281499981880188
1779996510732494800,2.489494873046875,-0.002749999985098839,-0.4629625082015991,0.5768125057220459
1779996510749771000,2.50677099609375,-0.060087498277425766,-2.396899938583374,-1.0419750213623047
1779996510767047400,2.52404736328125,-0.040562499314546585,-2.692662477493286,0.9237250089645386
1779996510797281000,2.554281005859375,0.029012499377131462,-0.0010999999940395355,0.8101499676704407
1779996510814557200,2.57155712890625,-0.005087499972432852,1.7105000019073486,0.9505375027656555
1779996510831833600,2.58883349609375,-0.08084999769926071,2.4349875450134277,-0.32725000381469727
1779996510849110000,2.606110107421875,-0.10408750176429749,1.5944499969482422,-2.8000500202178955
1779996510866386200,2.62338623046875,0.021724998950958252,0.25905001163482666,0.7343875169754028
1779996510883662600,2.64066259765625,-0.008799999952316284,-1.2546875476837158,1.3794000148773193
1779996510900938800,2.657938720703125,-0.01484999991953373,-2.6559500694274902,-1.647937536239624
1779996510926853400,2.683853271484375,-0.02461249940097332,-1.1642124652862549,1.1705374717712402
1779996510944129500,2.701129638671875,0.05843750014901161,0.9798250198364258,1.7447375059127808
1779996510961406000,2.718406005859375,-0.03203750029206276,2.168649911880493,1.2266374826431274
1779996510978682400,2.735682373046875,-0.08579999953508377,2.0488874912261963,-0.9894499778747559
1779996510995958500,2.75295849609375,-0.1200374960899353,0.7062000036239624,-3.7273499965667725
1779996511013235000,2.77023486328125,0.020487500354647636,-0.757349967956543,2.1564126014709473
1779996511030511000,2.787510986328125,0.08043749630451202,-1.5820749998092651,1.2645875215530396
1779996511047787500,2.80478759765625,0.020487500354647636,-2.2405624389648438,-1.0909249782562256
1779996511065063700,2.822063720703125,-0.052799999713897705,-1.302262544631958,-1.509887456893921
1779996511082340000,2.839340087890625,0.009487500414252281,0.3030500113964081,0.5473874807357788
1779996511108254500,2.86525439453125,-0.006324999965727329,2.172224998474121,0.5620999932289124
1779996511125531100,2.88253125,-0.013749999925494194,1.6372125148773193,-1.4548875093460083
1779996511142807300,2.899807373046875,0.020487500354647636,0.42762500047683716,0.5303375124931335
1779996511160083700,2.917083740234375,-0.008799999952316284,-1.0994499921798706,0.3983374834060669
1779996511177360100,2.934360107421875,-0.050324998795986176,-2.133037567138672,-1.307075023651123
1779996511194636300,2.95163623046875,-0.021037500351667404,-1.7861249446868896,1.1338249444961548
1779996511211912700,2.96891259765625,0.04372499883174896,-0.2956250011920929,0.8406749963760376
1779996511229188900,2.98618896484375,0.007012499962002039,1.0348249673843384,0.6976749897003174
1779996511246465300,3.00346533203125,-0.043037500232458115,1.8020750284194946,-0.3359124958515167
1779996511272379600,3.029379638671875,-0.0002749999985098839,1.2951124906539917,-1.9570374488830566
1779996511289656000,3.046656005859375,0.0424874983727932,-0.042762499302625656,2.3396999835968018
1779996511306932500,3.063932373046875,-0.01484999991953373,-1.5197875499725342,-0.896637499332428
1779996511332846800,3.089846923828125,-0.02956249937415123,-1.8557000160217285,0.9933000206947327
1779996511350123000,3.107123046875,0.07177499681711197,-0.3651999831199646,1.1741124391555786
1779996511367399400,3.1243994140625,0.010724999941885471,0.8051999807357788,0.8089125156402588
1779996511393313800,3.150313720703125,-0.0625625029206276,1.4416874647140503,-1.1519750356674194
1779996511410590200,3.167590087890625,-0.02708750031888485,1.1460624933242798,-2.4433748722076416
1779996511427866400,3.184866455078125,0.037675000727176666,0.07947500050067902,2.3115124702453613
1779996511453781000,3.210781005859375,-0.025849999859929085,-1.6748875379562378,-1.635699987411499
1779996511471057400,3.228057373046875,-0.04908749833703041,-1.5613124370574951,0.24076250195503235
1779996511488333600,3.24533349609375,0.015675000846385956,-0.5631999969482422,1.280400037765503
1779996511514248400,3.27124853515625,-0.0015124999918043613,1.022587537765503,0.3433375060558319
1779996511531524600,3.288524658203125,-0.04908749833703041,1.3121625185012817,-1.0004500150680542
1779996511548801000,3.305801025390625,-0.018562499433755875,1.1178749799728394,-2.126849889755249
1779996511566077400,3.323077392578125,0.03272499889135361,0.22247499227523804,2.028125047683716
1779996511583353600,3.340353515625,-0.008799999952316284,-0.9259250164031982,-0.4544374942779541
1779996511600630000,3.357630126953125,-0.033275000751018524,-1.290024995803833,-1.123924970626831
1779996511626544400,3.38354443359375,0.030249999836087227,-0.6914874911308289,0.9359624981880188
1779996511643820800,3.40082080078125,0.0009624999947845936,0.20776249468326569,0.296999990940094
1779996511661097000,3.418096923828125,-0.014987500384449959,0.9895874857902527,-0.49472498893737793
1779996511687011600,3.444011474609375,0.02419999986886978,1.3536875247955322,-0.608299970626831
1779996511704287700,3.461287841796875,0.01677500084042549,0.568149983882904,1.2352999448776245
1779996511721564400,3.478564453125,-0.030799999833106995,-0.7133499979972839,-1.2827374935150146
1779996511747478800,3.504478759765625,-0.01251249946653843,-1.215499997138977,0.9554874897003174
1779996511764755200,3.521755126953125,-0.006462499964982271,-0.8478249907493591,-0.29438748955726624
1779996511782031400,3.53903125,-0.018562499433755875,0.0989999994635582,-0.49953749775886536
1779996511807946000,3.564946044921875,0.013199999928474426,1.2865874767303467,0.4081000089645386
1779996511825222400,3.582222412109375,0.007012499962002039,1.2181124687194824,-0.3871999979019165
1779996511842498600,3.59949853515625,0.009487500414252281,0.4973374903202057,0.3372874855995178
1779996511868413200,3.6254130859375,-0.02227500081062317,-1.0201125144958496,-0.3712500035762787
1779996511885689300,3.642689453125,-0.014987500384449959,-1.3107874393463135,0.296999990940094
1779996511902965800,3.6599658203125,-0.011274999938905239,-0.9198749661445618,-0.17338749766349792
1779996511928880400,3.68588037109375,0.007012499962002039,0.5534374713897705,0.1625249981880188
1779996511946156500,3.703156494140625,0.010724999941885471,1.240112543106079,-0.014574999921023846
1779996511963433000,3.720432861328125,0.011962499469518661,1.214400053024292,-0.047575000673532486
1779996511989347300,3.746347412109375,-0.005224999971687794,-0.04262499883770943,-0.08662500232458115
1779996512006623700,3.763623779296875,-0.014987500384449959,-0.9773499965667725,-0.009624999947845936
1779996512023900200,3.780900146484375,-0.016224998980760574,-1.290024995803833,0.0147124994546175
1779996512049814500,3.806814453125,-0.006462499964982271,-0.44591251015663147,0.04413750022649765
1779996512067091000,3.824091064453125,0.0034374999813735485,0.5095750093460083,0.08689999580383301
1779996512084367400,3.841367431640625,0.010724999941885471,1.1728750467300415,-0.12086249887943268
1779996512110281700,3.86728173828125,0.008249999955296516,0.9285374879837036,0.1284250020980835
1779996512127558400,3.884558349609375,-0.005087499972432852,-0.015812499448657036,-0.11591249704360962
1779996512144834300,3.901834228515625,-0.013749999925494194,-0.9248250126838684,0.07947500050067902
1779996512162111000,3.919111083984375,-0.018562499433755875,-1.264449954032898,-0.11110000312328339
1779996512179387100,3.93638720703125,-0.011274999938905239,-0.8733999729156494,0.035475000739097595
1779996512205301800,3.9623017578125,0.004674999974668026,0.467912495136261,-0.009624999947845936
1779996512222578000,3.979577880859375,0.010724999941885471,1.1448249816894531,-0.04881250113248825
1779996512239854300,3.996854248046875,0.011962499469518661,1.176587462425232,0.10395000129938126
1779996512265768700,4.022768798828125,-0.002749999985098839,0.02199999988079071,-0.0340999998152256
1779996512283045400,4.04004541015625,-0.013749999925494194,-0.8833000063896179,0.02213750034570694
1779996512300321500,4.057321533203125,-0.018562499433755875,-1.2326874732971191,-0.08538749814033508
1779996512326236200,4.083236083984375,-0.006324999965727329,-0.4739624857902527,0.033137500286102295
1779996512343512300,4.10051220703125,0.0034374999813735485,0.4361499845981598,-0.013337500393390656
1779996512360788700,4.117788818359375,0.011962499469518661,1.106874942779541,-0.0035749999806284904
1779996512386703000,4.143703125,0.008249999955296516,0.9139624834060669,0.02213750034570694
1779996512403979500,4.1609794921875,-0.002749999985098839,0.04166249930858612,-0.006049999967217445
1779996512421256000,4.178255859375,-0.013749999925494194,-0.8526374697685242,-0.014574999921023846
1779996512438532000,4.195531982421875,-0.01732499897480011,-1.2009249925613403,-0.04386249929666519
1779996512455808500,4.21280859375,-0.01251249946653843,-0.8636375069618225,0.011137500405311584
1779996512473085000,4.2300849609375,-0.0015124999918043613,-0.04633750021457672,0.01347499992698431
1779996512490361300,4.247361328125,0.008249999955296516,0.7880125045776367,-0.002337499987334013
1779996512507637500,4.264637451171875,0.011962499469518661,1.176587462425232,0.01347499992698431
1779996512524914000,4.281913818359375,0.009487500414252281,0.9040625095367432,0.04166249930858612
1779996512550828300,4.307828369140625,-0.008799999952316284,-0.4067249894142151,-0.013337500393390656
1779996512568104700,4.325104736328125,-0.016224998980760574,-1.0726374387741089,-0.025575000792741776
1779996512585381000,4.342381103515625,-0.016224998980760574,-1.093400001525879,-0.02928750030696392
1779996512611295500,4.36829541015625,-0.002749999985098839,-0.06104999780654907,0.018424998968839645
1779996512628572200,4.385572265625,0.007012499962002039,0.7550125122070312,-0.006049999967217445
1779996512645848600,4.4028486328125,0.010724999941885471,1.1460624933242798,0.018424998968839645
1779996512671763000,4.428762939453125,0.0034374999813735485,0.515625,0.00013749999925494194
1779996512689039400,4.446039306640625,-0.008799999952316284,-0.3749625086784363,-0.006049999967217445
1779996512706315500,4.4633154296875,-0.014987500384449959,-1.0334500074386597,-0.028049999848008156
1779996512723592000,4.480592041015625,-0.016224998980760574,-1.0689250230789185,-0.025575000792741776
1779996512740868000,4.4978681640625,-0.007562499959021807,-0.4984374940395355,0.01347499992698431
1779996512758144500,4.51514453125,0.0034374999813735485,0.3470500111579895,0.006187499966472387
1779996512775421000,4.5324208984375,0.010724999941885471,0.9957749843597412,-0.006049999967217445
1779996512792697300,4.549697265625,0.011962499469518661,1.0775874853134155,0.042899999767541885
1779996512809973500,4.566973388671875,0.004674999974668026,0.5205749869346619,0.002612499985843897
1779996512827250000,4.58425,-0.006324999965727329,-0.35062500834465027,-0.006049999967217445
1779996512853164500,4.61016455078125,-0.016224998980760574,-1.1079750061035156,-0.040150001645088196
1779996512870440700,4.627440673828125,-0.013749999925494194,-0.8392999768257141,0.002612499985843897
1779996512887717000,4.644717041015625,-0.003987499978393316,-0.0952875018119812,0.008662499487400055
1779996512913631700,4.6706318359375,0.009487500414252281,0.966487467288971,-0.002337499987334013
1779996512930908200,4.687908203125,0.010724999941885471,1.0592999458312988,0.035475000739097595
1779996512948184600,4.7051845703125,0.002199999988079071,0.524150013923645,0.00989999994635582
1779996512965460700,4.722460693359375,-0.007562499959021807,-0.32862499356269836,-0.009624999947845936
1779996512991375000,4.748375,-0.014987500384449959,-1.0786875486373901,-0.032862499356269836
1779996513008651500,4.765651611328125,-0.011274999938905239,-0.8270624876022339,-0.0035749999806284904
1779996513025928000,4.782927978515625,-0.002749999985098839,-0.10986249893903732,0.011137500405311584
1779996513043204400,4.800204345703125,0.0057749999687075615,0.6609625220298767,0.0037124999798834324
1779996513069118700,4.82611865234375,0.010724999941885471,1.031112551689148,0.033137500286102295
1779996513086395100,4.84339501953125,0.0034374999813735485,0.5266249775886536,0.011137500405311584
1779996513103671600,4.860671630859375,-0.006324999965727329,-0.29919999837875366,-0.010862499475479126
1779996513120947700,4.87794775390625,-0.01484999991953373,-0.935824990272522,-0.020624998956918716
1779996513138224000,4.89522412109375,-0.01484999991953373,-1.010349988937378,-0.025575000792741776
1779996513155500800,4.912500732421875,-0.006324999965727329,-0.5081999897956848,0.006187499966472387
1779996513172776700,4.929776611328125,0.002199999988079071,0.2761000096797943,0.008662499487400055
1779996513190053400,4.947053466796875,0.009487500414252281,0.8980125188827515,0.0013749999925494194
1779996513207329800,4.964329833984375,0.010724999941885471,1.010349988937378,0.029424998909235
1779996513233244200,4.990244140625,-0.0015124999918043613,0.14423750340938568,-0.007287499960511923
1779996513250520600,5.0075205078125,-0.011274999938905239,-0.6389625072479248,-0.013337500393390656
1779996513267797000,5.024796875,-0.01484999991953373,-1.0163999795913696,-0.02928750030696392
1779996513293711600,5.050711669921875,-0.007562499959021807,-0.5081999897956848,0.0037124999798834324
1779996513310987800,5.06798779296875,0.0009624999947845936,0.25052499771118164,0.008662499487400055
1779996513328264200,5.08526416015625,0.008249999955296516,0.8625375032424927,0.002612499985843897
1779996513345540600,5.10254052734375,0.008249999955296516,0.9860125184059143,0.029424998909235
1779996513362816800,5.119816650390625,0.002199999988079071,0.5303375124931335,0.012374999932944775
1779996513380093400,5.137093505859375,-0.007562499959021807,-0.24791249632835388,-0.009624999947845936
1779996513397369600,5.15436962890625,-0.013612499460577965,-0.8648750185966492,-0.0193875003606081
1779996513414646000,5.17164599609375,-0.01251249946653843,-0.9638749957084656,-0.02186249941587448
1779996513431922400,5.18892236328125,-0.006324999965727329,-0.5130124688148499,0.0037124999798834324
1779996513449198600,5.206198486328125,0.0009624999947845936,0.2223374992609024,0.007424999959766865
1779996513466475000,5.22347509765625,0.007149999961256981,0.825962483882904,0.00494999997317791
1779996513483751200,5.240751220703125,0.008249999955296516,0.9615374803543091,0.023375000804662704
1779996513509666000,5.266666015625,-0.0002749999985098839,0.17971250414848328,-0.0010999999940395355
1779996513526942200,5.283942138671875,-0.008799999952316284,-0.5644375085830688,-0.01209999993443489
1779996513544218600,5.301218505859375,-0.013612499460577965,-0.952875018119812,-0.02681249938905239
1779996513570133000,5.327133056640625,-0.007562499959021807,-0.5216749906539917,0.0013749999925494194
1779996513587409400,5.344409423828125,0.0009624999947845936,0.19304999709129333,0.007424999959766865
1779996513604685600,5.361685546875,0.007012499962002039,0.7942000031471252,0.006187499966472387
1779996513621962200,5.378962158203125,0.008249999955296516,0.9420124888420105,0.02694999985396862
1779996513639238700,5.39623876953125,0.0034374999813735485,0.5424374938011169,0.01347499992698431
1779996513656514800,5.413514892578125,-0.006324999965727329,-0.19415000081062317,-0.008387500420212746
1779996513673791200,5.430791259765625,-0.01251249946653843,-0.8013499975204468,-0.020624998956918716
1779996513691067400,5.4480673828125,-0.01251249946653843,-0.9211124777793884,-0.0193875003606081
1779996513708343800,5.46534375,-0.007562499959021807,-0.5154874920845032,0.00013749999925494194
1779996513725620200,5.4826201171875,-0.0002749999985098839,0.17599999904632568,0.006187499966472387
1779996513742896600,5.499896728515625,0.005912499967962503,0.7624375224113464,0.006187499966472387
1779996513760172800,5.5171728515625,0.007012499962002039,0.9150624871253967,0.02213750034570694
1779996513786087400,5.54308740234375,-0.0002749999985098839,0.2040500044822693,0.002612499985843897
1779996513803364000,5.560364013671875,-0.008799999952316284,-0.5081999897956848,-0.013337500393390656
1779996513820640300,5.57764013671875,-0.013749999925494194,-0.8991125226020813,-0.025575000792741776
1779996513837916700,5.594916748046875,-0.011274999938905239,-0.7671124935150146,-0.008387500420212746
1779996513855192800,5.61219287109375,-0.003987499978393316,-0.19910000264644623,0.0037124999798834324
1779996513872469200,5.62946923828125,0.004674999974668026,0.48138749599456787,0.008662499487400055
1779996513889745700,5.64674560546875,0.008249999955296516,0.8845375180244446,0.012374999932944775
1779996513907021800,5.664021728515625,0.007012499962002039,0.7794874906539917,0.023375000804662704
1779996513924298200,5.68129833984375,-0.0015124999918043613,0.21381250023841858,0.00013749999925494194
1779996513941574700,5.69857470703125,-0.008799999952316284,-0.48372501134872437,-0.010862499475479126
1779996513967489300,5.7244892578125,-0.013749999925494194,-0.8856375217437744,-0.0193875003606081
1779996513984765700,5.741765625,-0.007562499959021807,-0.5191999673843384,-0.0010999999940395355
1779996514002041900,5.759041748046875,-0.0002749999985098839,0.13805000483989716,0.00494999997317791
1779996514027956500,5.78495654296875,0.008249999955296516,0.8552500009536743,0.011137500405311584
1779996514045233000,5.80223291015625,0.005912499967962503,0.7660124897956848,0.02213750034570694
1779996514062509300,5.81950927734375,0.0009624999947845936,0.22247499227523804,0.002612499985843897
1779996514079785700,5.83678564453125,-0.007562499959021807,-0.45691248774528503,-0.010862499475479126
1779996514097062000,5.854061767578125,-0.01251249946653843,-0.8490625023841858,-0.02186249941587448
1779996514114338300,5.87133837890625,-0.011274999938905239,-0.7463499903678894,-0.010862499475479126
1779996514131615000,5.888614990234375,-0.005224999971687794,-0.2223374992609024,0.0013749999925494194
1779996514148891100,5.90589111328125,0.002199999988079071,0.43133750557899475,0.007424999959766865
1779996514166167600,5.92316748046875,0.008249999955296516,0.8344874978065491,0.011137500405311584
1779996514192082000,5.94908203125,0.004537499975413084,0.5461499691009521,0.0147124994546175
1779996514209358300,5.9663583984375,-0.003987499978393316,-0.11110000312328339,-0.004812499973922968
1779996514226634800,5.983634765625,-0.010037500411272049,-0.6962999701499939,-0.018287500366568565
1779996514252549400,6.00954931640625,-0.010037500411272049,-0.7415375113487244,-0.009624999947845936
1779996514269825800,6.02682568359375,-0.003987499978393316,-0.2320999950170517,0.002612499985843897
1779996514287102000,6.04410205078125,0.0034374999813735485,0.40933749079704285,0.007424999959766865
1779996514313016600,6.0700166015625,0.007012499962002039,0.8430125117301941,0.015949999913573265
1779996514330293000,6.08729296875,0.0034374999813735485,0.5473874807357788,0.01347499992698431
1779996514347569400,6.1045693359375,-0.006324999965727329,-0.08538749814033508,-0.004812499973922968
1779996514373483800,6.13048388671875,-0.014987500384449959,-0.7988749742507935,-0.023099999874830246
1779996514390760200,6.14776025390625,-0.01251249946653843,-0.7255874872207642,-0.010862499475479126
1779996514408036900,6.165036865234375,-0.005224999971687794,-0.2381500005722046,-0.002337499987334013
1779996514425313000,6.18231298828125,0.002199999988079071,0.38128748536109924,0.008662499487400055
1779996514442589400,6.19958935546875,0.007012499962002039,0.781962513923645,0.00989999994635582
1779996514459865900,6.216865966796875,0.0057749999687075615,0.734250009059906,0.01966249942779541
1779996514477142000,6.23414208984375,-0.0002749999985098839,0.2529999911785126,0.006187499966472387
1779996514494418700,6.251418701171875,-0.006324999965727329,-0.3823874890804291,-0.010862499475479126
1779996514511694800,6.26869482421875,-0.011274999938905239,-0.7732999920845032,-0.018287500366568565
1779996514528971300,6.28597119140625,-0.008799999952316284,-0.7145875096321106,-0.009624999947845936
1779996514546247700,6.30324755859375,-0.003987499978393316,-0.25286251306533813,0.0013749999925494194
1779996514563523800,6.32052392578125,0.0034374999813735485,0.35062500834465027,0.007424999959766865
1779996514580800500,6.337800537109375,0.005912499967962503,0.7526749968528748,0.00989999994635582
1779996514598076700,6.35507666015625,0.005912499967962503,0.7244874835014343,0.01966249942779541
1779996514615353000,6.37235302734375,-0.0002749999985098839,0.2675749957561493,0.00494999997317791
1779996514632629500,6.38962939453125,-0.007562499959021807,-0.35186249017715454,-0.009624999947845936
1779996514649905700,6.40690576171875,-0.011274999938905239,-0.7475875020027161,-0.0193875003606081
1779996514667182000,6.42418212890625,-0.010037500411272049,-0.7073000073432922,-0.01209999993443489
1779996514693096700,6.4500966796875,-0.0015124999918043613,0.032999999821186066,0.00494999997317791
1779996514710373000,6.467373046875,0.0034374999813735485,0.571862518787384,0.006187499966472387
1779996514727649500,6.4846494140625,0.005912499967962503,0.7844374775886536,0.01347499992698431
1779996514753564200,6.510564208984375,0.002199999988079071,0.2870999872684479,0.006187499966472387
1779996514770840600,6.527840576171875,-0.005087499972432852,-0.32491248846054077,-0.007287499960511923
1779996514788116700,6.54511669921875,-0.011274999938905239,-0.7280625104904175,-0.0193875003606081
1779996514814031400,6.57103125,-0.008799999952316284,-0.5350124835968018,-0.006049999967217445
1779996514831307800,6.588307861328125,-0.0015124999918043613,0.015949999913573265,0.002612499985843897
1779996514848584200,6.605584228515625,0.004674999974668026,0.5498625040054321,0.008662499487400055
1779996514865860400,6.6228603515625,0.005912499967962503,0.7672500014305115,0.0147124994546175
1779996514883136800,6.64013671875,0.0034374999813735485,0.5461499691009521,0.01347499992698431
1779996514900413200,6.6574130859375,-0.002749999985098839,-0.0010999999940395355,-0.0010999999940395355
1779996514926327600,6.68332763671875,-0.010037500411272049,-0.7012500166893005,-0.0170499999076128
1779996514943604000,6.70060400390625,-0.010037500411272049,-0.6938250064849854,-0.010862499475479126
1779996514960880400,6.71788037109375,-0.006324999965727329,-0.29438748955726624,-0.002337499987334013
1779996514978156800,6.73515673828125,-0.0002749999985098839,0.27252501249313354,0.008662499487400055
1779996515004071200,6.7610712890625,0.007012499962002039,0.7477250099182129,0.01347499992698431
1779996515021347800,6.778347900390625,0.0034374999813735485,0.5473874807357788,0.0147124994546175
1779996515038624000,6.7956240234375,-0.002749999985098839,0.02199999988079071,-0.002337499987334013
1779996515055900400,6.812900390625,-0.006324999965727329,-0.5167250037193298,-0.013337500393390656
1779996515073176800,6.8301767578125,-0.010037500411272049,-0.7402999997138977,-0.015812499448657036
1779996515099091200,6.85609130859375,-0.006324999965727329,-0.3016749918460846,-0.0035749999806284904
1779996515116368000,6.873367919921875,-0.0002749999985098839,0.25052499771118164,0.00494999997317791
1779996515133644300,6.890644287109375,0.0057749999687075615,0.6621999740600586,0.00989999994635582
1779996515150920400,6.90792041015625,0.0057749999687075615,0.6951999664306641,0.01718750037252903
1779996515168196900,6.92519677734375,0.002199999988079071,0.3188624978065491,0.00989999994635582
1779996515185473300,6.942473388671875,-0.006324999965727329,-0.2564375102519989,-0.006049999967217445
1779996515211388000,6.968387939453125,-0.01251249946653843,-0.7330124974250793,-0.0170499999076128
1779996515228664000,6.9856640625,-0.008799999952316284,-0.5387250185012817,-0.006049999967217445
1779996515245940700,7.002940673828125,-0.002749999985098839,-0.037812501192092896,0.002612499985843897
1779996515271855000,7.028855224609375,0.0034374999813735485,0.64638751745224,0.00989999994635582
1779996515289131500,7.046131591796875,0.0057749999687075615,0.6866750121116638,0.0147124994546175
1779996515306408000,7.063407958984375,0.0009624999947845936,0.3310999870300293,0.007424999959766865
1779996515323684000,7.08068408203125,-0.003987499978393316,-0.22962500154972076,-0.007287499960511923
1779996515340960800,7.097960693359375,-0.010037500411272049,-0.6450124979019165,-0.0170499999076128
1779996515358237000,7.11523681640625,-0.010037500411272049,-0.6718249917030334,-0.010862499475479126
1779996515375513300,7.132513427734375,-0.005224999971687794,-0.3188624978065491,-0.002337499987334013
1779996515392790000,7.1497900390625,0.0009624999947845936,0.2125750035047531,0.008662499487400055
1779996515410066000,7.16706591796875,0.004537499975413084,0.6194375157356262,0.011137500405311584
1779996515427342600,7.184342529296875,0.004537499975413084,0.6719624996185303,0.015949999913573265
1779996515444618800,7.20161865234375,0.0009624999947845936,0.3348124921321869,0.008662499487400055
1779996515470533400,7.227533447265625,-0.007562499959021807,-0.44948750734329224,-0.01209999993443489
1779996515487809800,7.244809814453125,-0.010037500411272049,-0.6938250064849854,-0.014574999921023846
1779996515505086200,7.262086181640625,-0.007562499959021807,-0.5362499952316284,-0.008387500420212746
1779996515522362600,7.279362548828125,-0.002749999985098839,-0.07204999774694443,0.0013749999925494194
1779996515539639000,7.29663916015625,0.002199999988079071,0.43133750557899475,0.006187499966472387
1779996515556915500,7.31391552734375,0.0057749999687075615,0.6866750121116638,0.012374999932944775
1779996515574191600,7.331191650390625,0.004674999974668026,0.5436750054359436,0.01347499992698431
1779996515591468000,7.348468017578125,-0.0015124999918043613,0.08195000141859055,0.0013749999925494194
1779996515608744400,7.365744384765625,-0.008799999952316284,-0.4311999976634979,-0.010862499475479126
1779996515634658800,7.391658935546875,-0.011274999938905239,-0.6547750234603882,-0.01209999993443489
1779996515651935500,7.408935546875,-0.006324999965727329,-0.33096250891685486,-0.0035749999806284904
1779996515669211600,7.426211669921875,-0.0002749999985098839,0.17971250414848328,0.006187499966472387
1779996515686488000,7.443488037109375,0.004674999974668026,0.5852000117301941,0.00989999994635582
1779996515703764500,7.460764404296875,0.004674999974668026,0.6524375081062317,0.01347499992698431
1779996515721041000,7.478041015625,0.0009624999947845936,0.3445749878883362,0.006187499966472387
1779996515738317300,7.4953173828125,-0.005087499972432852,-0.1746249943971634,-0.007287499960511923
1779996515755593500,7.512593505859375,-0.010037500411272049,-0.5790125131607056,-0.0170499999076128
1779996515772870000,7.529869873046875,-0.011274999938905239,-0.6377249956130981,-0.01209999993443489
1779996515790146600,7.547146484375,-0.006324999965727329,-0.33096250891685486,-0.004812499973922968
1779996515807423000,7.564423095703125,0.0009624999947845936,0.16499999165534973,0.006187499966472387
1779996515833337300,7.59033740234375,0.005912499967962503,0.6487249732017517,0.01347499992698431
1779996515850613800,7.60761376953125,0.0034374999813735485,0.5266249775886536,0.01347499992698431
1779996515867890200,7.62489013671875,-0.002749999985098839,0.09418749809265137,0.0013749999925494194
1779996515893804500,7.650804443359375,-0.010037500411272049,-0.5607249736785889,-0.015812499448657036
1779996515911081000,7.6680810546875,-0.008799999952316284,-0.6217749714851379,-0.010862499475479126
1779996515928357400,7.685357421875,-0.006324999965727329,-0.3273875117301941,-0.002337499987334013
1779996515945633800,7.7026337890625,0.0009624999947845936,0.1527625024318695,0.0037124999798834324
1779996515962910200,7.71991015625,0.004674999974668026,0.5424374938011169,0.00989999994635582
1779996515980186600,7.7371865234375,0.005912499967962503,0.6219124794006348,0.015949999913573265
1779996516006101000,7.76310107421875,-0.0015124999918043613,0.10147500038146973,0.002612499985843897
1779996516023377700,7.780377685546875,-0.006324999965727329,-0.3749625086784363,-0.010862499475479126
1779996516040653800,7.79765380859375,-0.008799999952316284,-0.6230124831199646,-0.015812499448657036
1779996516057930200,7.81493017578125,-0.007562499959021807,-0.5106750130653381,-0.007287499960511923
1779996516075206700,7.83220654296875,-0.0037124999798834324,-0.10752499848604202,-0.0012374999932944775
1779996516092483000,7.849483154296875,0.0012374999932944775,0.35557499527931213,0.007287499960511923
1779996516109759500,7.866759521484375,0.0035749999806284904,0.6157249808311462,0.010999999940395355
1779996516127035600,7.88403564453125,0.002474999986588955,0.5191999673843384,0.01347499992698431
1779996516144312000,7.90131201171875,-0.002474999986588955,0.11728750169277191,0.0037124999798834324
1779996516161588500,7.91858837890625,-0.007287499960511923,-0.35791251063346863,-0.00976249948143959
1779996516187503000,7.944503173828125,-0.007287499960511923,-0.607200026512146,-0.010999999940395355
1779996516204779500,7.961779541015625,-0.007287499960511923,-0.340862512588501,-0.00494999997317791
1779996516222056000,7.979055908203125,0,0.11604999750852585,0.00494999997317791
1779996516247970600,8.004970458984374,0.004812499973922968,0.6011499762535095,0.00976249948143959
1779996516265247000,8.0222470703125,0.0035749999806284904,0.5191999673843384,0.01223750039935112
1779996516282523100,8.039523193359376,-0.0012374999932944775,0.13557499647140503,0.0012374999932944775
1779996516299799600,8.056799560546875,-0.006187499966472387,-0.33233749866485596,-0.0085249999538064
1779996516317076000,8.074075927734375,-0.0085249999538064,-0.5900124907493591,-0.0170499999076128
1779996516334352400,8.091352294921874,-0.007287499960511923,-0.5081999897956848,-0.006049999967217445
1779996516351628800,8.10862890625,-0.002474999986588955,-0.13433749973773956,-0.0012374999932944775
1779996516368905200,8.1259052734375,0.0012374999932944775,0.3115749955177307,0.007287499960511923
1779996516386181400,8.143181396484374,0.0035749999806284904,0.5754374861717224,0.00976249948143959
1779996516403458000,8.1604580078125,0.004812499973922968,0.5094375014305115,0.01223750039935112
1779996516420734200,8.177734130859376,0,0.14533749222755432,0.00494999997317791
1779996516446648800,8.20364892578125,-0.0085249999538064,-0.476437509059906,-0.010999999940395355
1779996516463925200,8.22092529296875,-0.00976249948143959,-0.5852000117301941,-0.00976249948143959
1779996516481201700,8.23820166015625,-0.006187499966472387,-0.35186249017715454,-0.006049999967217445
1779996516498478000,8.25547802734375,0,0.08057499676942825,0.00494999997317791
1779996516515754200,8.272754150390625,0.004812499973922968,0.46543750166893005,0.0085249999538064
1779996516533031000,8.290031005859374,0.004812499973922968,0.5791500210762024,0.01223750039935112
1779996516558945300,8.3159453125,-0.0012374999932944775,0.1527625024318695,0
1779996516576221700,8.3332216796875,-0.006462499964982271,-0.29067498445510864,-0.007287499960511923
1779996516593497900,8.350497802734376,-0.008799999952316284,-0.5545374751091003,-0.013337500393390656
1779996516610774500,8.3677744140625,-0.007562499959021807,-0.4959625005722046,-0.007287499960511923
1779996516628050700,8.38505078125,-0.003987499978393316,-0.1551000028848648,-0.0010999999940395355
1779996516653965300,8.41096533203125,0.0034374999813735485,0.4386250078678131,0.008662499487400055
1779996516671241700,8.42824169921875,0.0057749999687075615,0.5644375085830688,0.012374999932944775
1779996516688518100,8.44551806640625,0.0034374999813735485,0.3592875003814697,0.00989999994635582
1779996516705794300,8.462794189453126,-0.003987499978393316,-0.059812501072883606,0.00013749999925494194
1779996516723070700,8.48007080078125,-0.008799999952316284,-0.4409624934196472,-0.013337500393390656
1779996516740347100,8.49734716796875,-0.010037500411272049,-0.555774986743927,-0.010862499475479126
1779996516766261800,8.52326171875,-0.002749999985098839,-0.15757499635219574,-0.002337499987334013
1779996516783538200,8.5405380859375,0.002199999988079071,0.2639999985694885,0.00494999997317791
1779996516800814600,8.557814697265625,0.0034374999813735485,0.5291000008583069,0.00989999994635582
1779996516826729200,8.583729248046875,0.0009624999947845936,0.35557499527931213,0.007424999959766865
1779996516844005600,8.601005615234374,-0.002749999985098839,-0.05004999786615372,-0.0010999999940395355
1779996516861282000,8.618281982421875,-0.007562499959021807,-0.4226749837398529,-0.010862499475479126
1779996516887196400,8.644196533203125,-0.008799999952316284,-0.48372501134872437,-0.007287499960511923
1779996516904472800,8.661472900390624,-0.005224999971687794,-0.16609999537467957,-0.002337499987334013
1779996516921749200,8.678749267578125,0.0009624999947845936,0.24557499587535858,0.00494999997317791
1779996516947664000,8.704663818359375,0.004537499975413084,0.5461499691009521,0.012374999932944775
1779996516964940300,8.721940185546876,0.0009624999947845936,0.36162498593330383,0.00989999994635582
1779996516982216700,8.739216796875,-0.003987499978393316,-0.037812501192092896,-0.0035749999806284904
1779996517008131000,8.765131103515625,-0.007562499959021807,-0.5130124688148499,-0.010862499475479126
1779996517025407700,8.78240771484375,-0.007562499959021807,-0.4824874997138977,-0.008387500420212746
1779996517042684000,8.799683837890624,-0.005224999971687794,-0.17710000276565552,0.00013749999925494194
1779996517068598500,8.8255986328125,0.002199999988079071,0.3922874927520752,0.006187499966472387
1779996517085875000,8.842875,0.0034374999813735485,0.5326749682426453,0.011137500405311584
1779996517103151400,8.8601513671875,0.002199999988079071,0.36410000920295715,0.008662499487400055
1779996517129066000,8.88606591796875,-0.005087499972432852,-0.2246749997138977,-0.004812499973922968
1779996517146342400,8.90334228515625,-0.007562499959021807,-0.49720001220703125,-0.015812499448657036
1779996517163618600,8.92061865234375,-0.007562499959021807,-0.47891250252723694,-0.009624999947845936
1779996517180895200,8.937895263671875,-0.0038499999791383743,-0.18314999341964722,-0.0010999999940395355
1779996517206809600,8.9638095703125,0.002199999988079071,0.38005000352859497,0.007424999959766865
1779996517224086000,8.9810859375,0.0034374999813735485,0.520437479019165,0.012374999932944775
1779996517241362700,8.99836279296875,0.0034374999813735485,0.3605250120162964,0.007424999959766865
1779996517258638800,9.015638916015625,-0.0015124999918043613,-0.01209999993443489,0.0013749999925494194
1779996517284553500,9.041553466796875,-0.008799999952316284,-0.48496249318122864,-0.01209999993443489
1779996517301830000,9.058829833984374,-0.007562499959021807,-0.4727250039577484,-0.008387500420212746
1779996517319106300,9.076106201171875,-0.0038499999791383743,-0.18933749198913574,-0.004812499973922968
1779996517345020700,9.102020751953125,0.0034374999813735485,0.3665750026702881,0.008662499487400055
1779996517362297000,9.119297119140626,0.0034374999813735485,0.5131499767303467,0.011137500405311584
1779996517379573500,9.136573486328125,0.0009624999947845936,0.36162498593330383,0.007424999959766865
1779996517396850000,9.153849853515625,-0.0038499999791383743,-0.002337499987334013,-0.0010999999940395355
1779996517414126000,9.1711259765625,-0.006324999965727329,-0.36162498593330383,-0.009624999947845936
1779996517431402500,9.188402587890625,-0.007562499959021807,-0.5009124875068665,-0.009624999947845936
1779996517448679200,9.20567919921875,-0.006324999965727329,-0.35186249017715454,-0.004812499973922968
1779996517465955300,9.222955322265625,-0.0015124999918043613,-0.0035749999806284904,0.002612499985843897
1779996517483231700,9.240231689453125,0.002199999988079071,0.3433375060558319,0.006187499966472387
1779996517500508200,9.257508056640624,0.002199999988079071,0.4936249852180481,0.00989999994635582
1779996517526422800,9.2834228515625,-0.0002749999985098839,0.2040500044822693,0.002612499985843897
1779996517543699200,9.30069921875,-0.0038499999791383743,-0.17710000276565552,-0.004812499973922968
1779996517560975600,9.3179755859375,-0.008799999952316284,-0.44591251015663147,-0.01209999993443489
1779996517586890200,9.34389013671875,-0.006462499964982271,-0.3517250120639801,-0.006049999967217445
1779996517604166700,9.361166748046875,-0.0015124999918043613,-0.015812499448657036,0.00013749999925494194
1779996517621442800,9.37844287109375,0.002199999988079071,0.32628750801086426,0.008662499487400055
1779996517647357700,9.404357666015626,0.0034374999813735485,0.45210000872612,0.012374999932944775
1779996517664633900,9.4216337890625,-0.0002749999985098839,0.19923749566078186,0.006187499966472387
1779996517681910300,9.43891015625,-0.002749999985098839,-0.1685750037431717,-0.004812499973922968
1779996517707824600,9.46482470703125,-0.007562499959021807,-0.476437509059906,-0.008387500420212746
1779996517725101300,9.482101318359375,-0.006462499964982271,-0.3469125032424927,-0.006049999967217445
1779996517742377700,9.499377685546875,-0.0015124999918043613,-0.02186249941587448,0.0013749999925494194
1779996517759654000,9.51665380859375,0.0009624999947845936,0.31404998898506165,0.006187499966472387
1779996517776930600,9.5339306640625,0.0034374999813735485,0.4716250002384186,0.007424999959766865
1779996517794206700,9.551206787109376,0.0009624999947845936,0.35557499527931213,0.008662499487400055
1779996517811483100,9.568483154296874,-0.0015124999918043613,0.032999999821186066,-0.002337499987334013
1779996517828759600,9.585759521484375,-0.006462499964982271,-0.30896249413490295,-0.006049999967217445
1779996517846036000,9.603035888671876,-0.008799999952316284,-0.467912495136261,-0.010862499475479126
1779996517863312400,9.6203125,-0.007562499959021807,-0.3517250120639801,-0.007287499960511923
1779996517889226800,9.646226806640625,-0.0002749999985098839,0.14423750340938568,0.00494999997317791
1779996517906503200,9.663503173828126,0.0034374999813735485,0.4118124842643738,0.008662499487400055
1779996517923779800,9.68077978515625,0.0034374999813735485,0.44110000133514404,0.011137500405311584
1779996517941056300,9.69805615234375,-0.0002749999985098839,0.2102375030517578,0.0037124999798834324
1779996517958332400,9.71533251953125,-0.003987499978393316,-0.14409999549388885,-0.002337499987334013
1779996517975608800,9.73260888671875,-0.007562499959021807,-0.4092000126838684,-0.01209999993443489
1779996518001523500,9.7585234375,-0.005224999971687794,-0.34443750977516174,-0.004812499973922968
1779996518018799900,9.7757998046875,-0.002749999985098839,-0.04028749838471413,0.00013749999925494194
1779996518036076300,9.793076171875,0.0009624999947845936,0.28600001335144043,0.006187499966472387
1779996518053352700,9.810352783203125,0.002199999988079071,0.4496249854564667,0.008662499487400055
1779996518070629000,9.827629150390624,0.0009624999947845936,0.35062500834465027,0.007424999959766865
1779996518087905500,9.844905517578125,-0.002749999985098839,0.050187498331069946,0.00013749999925494194
1779996518105181700,9.862181640625,-0.006324999965727329,-0.28338751196861267,-0.007287499960511923
1779996518122458400,9.879458251953125,-0.007562499959021807,-0.44591251015663147,-0.009624999947845936
1779996518139734500,9.896734619140625,-0.006324999965727329,-0.34814998507499695,-0.004812499973922968
1779996518157011000,9.914010986328124,-0.003987499978393316,-0.05362499877810478,0.00013749999925494194
1779996518174287400,9.931287353515625,0.0009624999947845936,0.2712875008583069,0.006187499966472387
1779996518191563800,9.948563720703126,0.0034374999813735485,0.4423374831676483,0.007424999959766865
1779996518208840200,9.965840087890625,0.002199999988079071,0.35557499527931213,0.008662499487400055
1779996518226116400,9.983116455078125,-0.0015124999918043613,0.05871250107884407,0.0013749999925494194
1779996518243393000,10.00039306640625,-0.003987499978393316,-0.27114999294281006,-0.007287499960511923
1779996518260669200,10.017669189453125,-0.007562499959021807,-0.43972501158714294,-0.008387500420212746
1779996518286583800,10.043583740234375,-0.005224999971687794,-0.22591249644756317,-0.0010999999940395355
1779996518303860000,10.06085986328125,-0.0015124999918043613,0.10518749803304672,0.00494999997317791
1779996518321136600,10.07813671875,0.002199999988079071,0.3726249933242798,0.006187499966472387
1779996518338412800,10.095412841796875,0.002199999988079071,0.4300999939441681,0.00989999994635582
1779996518355689200,10.112689208984374,0.0009624999947845936,0.2358125001192093,0.00494999997317791
1779996518372965600,10.129965576171875,-0.002749999985098839,-0.09886249899864197,-0.002337499987334013
1779996518390242000,10.147241943359376,-0.007562499959021807,-0.3726249933242798,-0.009624999947845936
1779996518407518500,10.1645185546875,-0.008799999952316284,-0.428725004196167,-0.009624999947845936
1779996518424795000,10.181794921875,-0.005224999971687794,-0.23333749175071716,-0.002337499987334013
1779996518442071300,10.1990712890625,-0.0002749999985098839,0.09652499854564667,0.0013749999925494194
1779996518459347700,10.21634765625,0.002199999988079071,0.369049996137619,0.00989999994635582
1779996518485262000,10.242261962890625,0.002199999988079071,0.35557499527931213,0.008662499487400055
1779996518502538500,10.25953857421875,-0.0015124999918043613,0.07576250284910202,0.002612499985843897
1779996518519815200,10.276815185546875,-0.005224999971687794,-0.2516250014305115,-0.006049999967217445
1779996518545729500,10.3027294921875,-0.006324999965727329,-0.4251500070095062,-0.008387500420212746
1779996518563006000,10.320005859375,-0.005224999971687794,-0.23567499220371246,-0.002337499987334013
1779996518580282400,10.337282470703125,-0.002749999985098839,0.08676250278949738,0.002612499985843897
1779996518597558800,10.354558837890625,0.0009624999947845936,0.35557499527931213,0.006187499966472387
1779996518614835200,10.371835205078124,0.0034374999813735485,0.42157500982284546,0.008662499487400055
1779996518632111400,10.389111328125,0.0009624999947845936,0.24323749542236328,0.006187499966472387
1779996518649388000,10.406387939453126,-0.0038499999791383743,-0.07809999585151672,-0.002337499987334013
1779996518666664400,10.42366455078125,-0.007562499959021807,-0.3529624938964844,-0.009624999947845936
1779996518692578800,10.449578857421875,-0.007562499959021807,-0.35420000553131104,-0.008387500420212746
1779996518709855200,10.466855224609375,-0.002749999985098839,-0.08552499860525131,-0.0010999999940395355
1779996518727131600,10.484131591796874,0.0009624999947845936,0.2297624945640564,0.007424999959766865
1779996518753046300,10.51004638671875,0.002199999988079071,0.4141499996185303,0.008662499487400055
1779996518770322700,10.52732275390625,-0.0002749999985098839,0.24076250195503235,0.006187499966472387
1779996518787599000,10.54459912109375,-0.002749999985098839,-0.07452499866485596,-0.002337499987334013
1779996518804875500,10.56187548828125,-0.005087499972432852,-0.340862512588501,-0.009624999947845936
1779996518822152000,10.57915185546875,-0.006324999965727329,-0.4067249894142151,-0.006049999967217445
1779996518839428400,10.596428466796874,-0.005087499972432852,-0.2381500005722046,-0.0035749999806284904
1779996518865342700,10.6223427734375,-0.0002749999985098839,0.21381250023841858,0.006187499966472387
1779996518882619100,10.639619140625,0.002199999988079071,0.39957499504089355,0.008662499487400055
1779996518899895800,10.656895751953124,0.002199999988079071,0.35186249017715454,0.008662499487400055
1779996518917172000,10.674171875,-0.0002749999985098839,0.09776250272989273,0.002612499985843897
1779996518934448400,10.691448486328126,-0.006324999965727329,-0.2125750035047531,-0.004812499973922968
1779996518960363000,10.717363037109376,-0.008799999952316284,-0.4031499922275543,-0.01209999993443489
1779996518977639400,10.734639404296875,-0.006324999965727329,-0.2381500005722046,-0.004812499973922968
1779996518994915800,10.751915771484375,0.0009624999947845936,0.06476250290870667,0.002612499985843897
1779996519012192300,10.769192138671874,0.002199999988079071,0.32628750801086426,0.006187499966472387
1779996519029468400,10.786468505859375,0.002199999988079071,0.39957499504089355,0.008662499487400055
1779996519046744800,10.803744873046876,-0.0002749999985098839,0.23828749358654022,0.0037124999798834324
1779996519072659500,10.829659423828126,-0.003987499978393316,-0.20514999330043793,-0.004812499973922968
1779996519089936000,10.846935791015625,-0.005224999971687794,-0.3823874890804291,-0.008387500420212746
1779996519107212300,10.86421240234375,-0.005224999971687794,-0.3371500074863434,-0.004812499973922968
1779996519124488700,10.88148876953125,-0.002749999985098839,-0.10381250083446503,0.00013749999925494194
1779996519141764900,10.898764892578125,-0.0002749999985098839,0.18947499990463257,0.0037124999798834324
1779996519159041500,10.91604150390625,0.0009624999947845936,0.3750999867916107,0.00989999994635582
1779996519176318000,10.93331787109375,0.002199999988079071,0.340862512588501,0.00494999997317791
1779996519193594000,10.950593994140625,-0.0002749999985098839,0.10752499848604202,0.0013749999925494194
1779996519210870500,10.96787060546875,-0.005224999971687794,-0.1868624985218048,-0.0035749999806284904
1779996519228147200,10.985147216796875,-0.007562499959021807,-0.3726249933242798,-0.009624999947845936
1779996519245423400,11.00242333984375,-0.007562499959021807,-0.33838748931884766,-0.004812499973922968
1779996519262699800,11.01969970703125,-0.003987499978393316,-0.10986249893903732,-0.0035749999806284904
1779996519279976200,11.03697607421875,-0.0002749999985098839,0.18205000460147858,0.006187499966472387
1779996519297252600,11.054252685546874,0.002199999988079071,0.3665750026702881,0.006187499966472387
1779996519314529000,11.071529052734375,0.0034374999813735485,0.3385249972343445,0.008662499487400055
1779996519331805400,11.088805419921876,-0.0015124999918043613,0.11371249705553055,0.002612499985843897
1779996519349081600,11.10608154296875,-0.003987499978393316,-0.17710000276565552,-0.004812499973922968
1779996519366358300,11.123358154296875,-0.007562499959021807,-0.36162498593330383,-0.007287499960511923
1779996519392273000,11.14927294921875,-0.005224999971687794,-0.24310000240802765,-0.004812499973922968
1779996519409549000,11.166549072265624,-0.0002749999985098839,0.0317624993622303,0.0013749999925494194
1779996519426825500,11.183825439453125,0.002199999988079071,0.2870999872684479,0.006187499966472387
1779996519444102000,11.201101806640626,0.002199999988079071,0.3763374984264374,0.00989999994635582
1779996519470016500,11.2270166015625,-0.0015124999918043613,0.11495000123977661,0.002612499985843897
1779996519487293000,11.24429296875,-0.003987499978393316,-0.16609999537467957,-0.004812499973922968
1779996519504569300,11.2615693359375,-0.006324999965727329,-0.34814998507499695,-0.006049999967217445
1779996519530484000,11.28748388671875,-0.005224999971687794,-0.24062499403953552,-0.007287499960511923
1779996519547760400,11.304760498046875,-0.002749999985098839,0.02694999985396862,0.0013749999925494194
1779996519565036500,11.32203662109375,0.0009624999947845936,0.2773374915122986,0.0037124999798834324
1779996519582313000,11.33931298828125,0.0034374999813735485,0.3713875114917755,0.008662499487400055
1779996519599589400,11.35658935546875,0.0009624999947845936,0.25052499771118164,0.006187499966472387
1779996519625504000,11.38250390625,-0.005087499972432852,-0.15757499635219574,0.00013749999925494194
1779996519642780400,11.399780517578124,-0.006324999965727329,-0.345674991607666,-0.010862499475479126
1779996519660056800,11.417056884765625,-0.006324999965727329,-0.32862499356269836,-0.0035749999806284904
1779996519677333200,11.434333251953126,-0.002749999985098839,-0.12581250071525574,0.0013749999925494194
1779996519694609700,11.451609619140624,0.0009624999947845936,0.14781250059604645,0.0013749999925494194
1779996519711885800,11.4688857421875,0.0009624999947845936,0.33605000376701355,0.012374999932944775
1779996519737800700,11.49480078125,-0.0002749999985098839,0.24557499587535858,0.0037124999798834324
1779996519755077000,11.5120771484375,-0.0038499999791383743,-0.0085249999538064,0.002612499985843897
1779996519772353300,11.529353271484375,-0.005087499972432852,-0.2564375102519989,-0.009624999947845936
1779996519789630000,11.5466298828125,-0.006324999965727329,-0.35186249017715454,-0.004812499973922968
1779996519806906400,11.56390625,-0.0038499999791383743,-0.24310000240802765,-0.004812499973922968
1779996519824182500,11.5811826171875,-0.002749999985098839,0.00494999997317791,0.0037124999798834324
1779996519850097200,11.60709716796875,0.0009624999947845936,0.32010000944137573,0.002612499985843897
1779996519867373600,11.62437353515625,0.0009624999947845936,0.32133749127388,0.007424999959766865
1779996519884650000,11.64164990234375,-0.0002749999985098839,0.1344749927520752,0.002612499985843897
1779996519910564600,11.667564697265625,-0.005087499972432852,-0.24186250567436218,-0.0035749999806284904
1779996519927841000,11.684841064453124,-0.007562499959021807,-0.3431999981403351,-0.008387500420212746
1779996519945117200,11.7021171875,-0.005087499972432852,-0.24557499587535858,-0.0035749999806284904
1779996519962393600,11.7193935546875,-0.002749999985098839,-0.007287499960511923,0.00013749999925494194
1779996519979670000,11.736669921875,0.0009624999947845936,0.2358125001192093,0.00494999997317791
1779996519996946400,11.753946533203125,0.002199999988079071,0.3433375060558319,0.006187499966472387
1779996520014223000,11.77122314453125,0.002199999988079071,0.25052499771118164,0.007424999959766865
1779996520031499000,11.7884990234375,-0.002749999985098839,0.00976249948143959,0.0013749999925494194
1779996520048775700,11.805775634765626,-0.005087499972432852,-0.23938749730587006,-0.006049999967217445
1779996520066052000,11.823052001953124,-0.006324999965727329,-0.3419624865055084,-0.007287499960511923
1779996520091966700,11.848966796875,-0.003987499978393316,-0.13805000483989716,-0.0035749999806284904
1779996520109243100,11.8662431640625,-0.0015124999918043613,0.11852499842643738,0.0037124999798834324
1779996520126519600,11.88351953125,0.0009624999947845936,0.305525004863739,0.007424999959766865
1779996520143796000,11.9007958984375,0.0009624999947845936,0.31652501225471497,0.007424999959766865
1779996520169710600,11.926710693359375,-0.0015124999918043613,0.018424998968839645,-0.0010999999940395355
1779996520186987000,11.943987060546876,-0.005224999971687794,-0.22110000252723694,-0.004812499973922968
1779996520204263400,11.961263427734375,-0.006324999965727329,-0.3334375023841858,-0.008387500420212746
1779996520230178000,11.987177978515625,-0.003987499978393316,-0.14533749222755432,-0.0010999999940395355
1779996520247454200,12.0044541015625,-0.0015124999918043613,0.10752499848604202,0.002612499985843897
1779996520264731000,12.02173095703125,0.002199999988079071,0.2957625091075897,0.006187499966472387
1779996520290645200,12.047645263671875,0.0009624999947845936,0.25052499771118164,0.007424999959766865
1779996520307921700,12.064921630859375,-0.002749999985098839,0.02199999988079071,0.0013749999925494194
1779996520325198000,12.082197998046874,-0.006324999965727329,-0.2186249941587448,-0.006049999967217445
1779996520351112700,12.10811279296875,-0.006324999965727329,-0.30896249413490295,-0.006049999967217445
1779996520368389000,12.12538916015625,-0.002749999985098839,-0.14533749222755432,-0.0010999999940395355
1779996520385665500,12.14266552734375,-0.0015124999918043613,0.10147500038146973,0.002612499985843897
1779996520411580200,12.168580078125,0.0009624999947845936,0.32133749127388,0.00494999997317791
1779996520428856600,12.185856689453125,0.0009624999947845936,0.2480500042438507,0.0037124999798834324
1779996520446133000,12.203133056640626,-0.002749999985098839,0.029424998909235,0.0013749999925494194
1779996520472047600,12.229047607421874,-0.005224999971687794,-0.282150000333786,-0.007287499960511923
1779996520489324000,12.246323974609375,-0.006324999965727329,-0.3016749918460846,-0.004812499973922968
1779996520506600400,12.263600341796876,-0.005224999971687794,-0.14781250059604645,-0.002337499987334013
1779996520532514800,12.289514892578126,-0.0002749999985098839,0.19923749566078186,0.006187499966472387
1779996520549791200,12.306791259765625,0.002199999988079071,0.31404998898506165,0.006187499966472387
1779996520567067600,12.324067626953125,0.0009624999947845936,0.24681249260902405,0.00494999997317791
1779996520592982300,12.349982177734375,-0.003987499978393316,-0.08552499860525131,-0.002337499987334013
1779996520610258700,12.3672587890625,-0.005224999971687794,-0.2723875045776367,-0.007287499960511923
1779996520627535000,12.38453515625,-0.005224999971687794,-0.29919999837875366,-0.006049999967217445
1779996520653449700,12.41044970703125,-0.0015124999918043613,-0.03904999792575836,0.00013749999925494194
1779996520670726100,12.42772607421875,0.0009624999947845936,0.18947499990463257,0.006187499966472387
1779996520688002600,12.44500244140625,0.0009624999947845936,0.305525004863739,0.007424999959766865
1779996520705279000,12.462279052734376,-0.0002749999985098839,0.24323749542236328,0.00494999997317791
1779996520722555400,12.479555419921875,-0.002749999985098839,0.042762499302625656,0.00013749999925494194
1779996520739831800,12.496831787109375,-0.005224999971687794,-0.18438750505447388,-0.004812499973922968
1779996520765746400,12.522746337890625,-0.005224999971687794,-0.29315000772476196,-0.006049999967217445
1779996520783022600,12.540022705078124,-0.003987499978393316,-0.15386250615119934,-0.002337499987334013
1779996520800299300,12.55729931640625,-0.0015124999918043613,0.07218749821186066,0.002612499985843897
1779996520826213600,12.583213623046875,0.002199999988079071,0.29809999465942383,0.00494999997317791
1779996520843490300,12.600490234375,0.002199999988079071,0.24681249260902405,0.007424999959766865
1779996520860766500,12.617766357421875,-0.0015124999918043613,0.04895000159740448,0.002612499985843897
1779996520886681000,12.64368115234375,-0.006324999965727329,-0.2576749920845032,-0.007287499960511923
1779996520903957800,12.660957763671876,-0.006324999965727329,-0.2919124960899353,-0.004812499973922968
1779996520921234000,12.67823388671875,-0.003987499978393316,-0.1551000028848648,-0.002337499987334013
1779996520947148500,12.7041484375,0.0009624999947845936,0.1722874939441681,0.0037124999798834324
1779996520964425000,12.721425048828126,0.0009624999947845936,0.2895750105381012,0.006187499966472387
1779996520981701400,12.738701416015624,-0.0002749999985098839,0.24199999868869781,0.006187499966472387
1779996520998977500,12.7559775390625,-0.002749999985098839,0.05376249924302101,0.00013749999925494194
1779996521016254200,12.773254150390626,-0.005224999971687794,-0.16609999537467957,-0.0035749999806284904
1779996521033530400,12.7905302734375,-0.006324999965727329,-0.2870999872684479,-0.007287499960511923
1779996521050806800,12.807806884765625,-0.005224999971687794,-0.23938749730587006,-0.006049999967217445
1779996521068083500,12.82508349609375,-0.0015124999918043613,-0.05252499878406525,0.00013749999925494194
1779996521093997800,12.850997802734375,0.0009624999947845936,0.24323749542236328,0.00494999997317791
1779996521111274200,12.868274169921875,-0.0002749999985098839,0.28228750824928284,0.006187499966472387
1779996521128551000,12.885551025390624,-0.0002749999985098839,0.16005000472068787,0.002612499985843897
1779996521145827000,12.9028271484375,-0.003987499978393316,-0.05609999969601631,-0.0010999999940395355
1779996521163103500,12.920103515625,-0.006324999965727329,-0.23938749730587006,-0.006049999967217445
1779996521180380000,12.9373798828125,-0.005087499972432852,-0.2796750068664551,-0.006049999967217445
1779996521197656300,12.95465625,-0.003987499978393316,-0.15633749961853027,-0.0035749999806284904
1779996521214932700,12.9719326171875,-0.0015124999918043613,0.054999999701976776,0.002612499985843897
1779996521232209200,12.989209228515625,-0.0002749999985098839,0.23223750293254852,0.00494999997317791
1779996521249485600,13.006485595703126,0.0009624999947845936,0.2750000059604645,0.00494999997317791
1779996521266762000,13.023761962890624,-0.0015124999918043613,0.15771250426769257,0.00494999997317791
1779996521292676600,13.049676513671875,-0.003987499978393316,-0.15262499451637268,-0.0035749999806284904
1779996521309953000,13.066953125,-0.006324999965727329,-0.273624986410141,-0.0035749999806284904
1779996521327229400,13.0842294921875,-0.005087499972432852,-0.2320999950170517,-0.006049999967217445
1779996521344505900,13.101505859375,-0.002749999985098839,-0.057337500154972076,0.0013749999925494194
1779996521361782300,13.1187822265625,0.0009624999947845936,0.15152500569820404,0.0037124999798834324
1779996521387697000,13.14469677734375,0.0009624999947845936,0.26881250739097595,0.007424999959766865
1779996521404973300,13.161973388671875,-0.0015124999918043613,0.15399999916553497,0.002612499985843897
1779996521422249700,13.179249755859376,-0.002749999985098839,-0.047575000673532486,-0.0010999999940395355
1779996521448164000,13.2051640625,-0.003987499978393316,-0.2601499855518341,-0.006049999967217445
1779996521465440500,13.2224404296875,-0.005087499972432852,-0.22591249644756317,-0.002337499987334013
1779996521482717000,13.239717041015625,-0.002749999985098839,-0.06104999780654907,-0.0010999999940395355
1779996521499993300,13.256993408203124,-0.0002749999985098839,0.13928750157356262,0.002612499985843897
1779996521525908000,13.282907958984374,0.0009624999947845936,0.2639999985694885,0.006187499966472387
1779996521543184400,13.300184326171875,-0.0015124999918043613,0.15771250426769257,0.00494999997317791
1779996521560460800,13.317460693359376,-0.003987499978393316,-0.04152499884366989,-0.0010999999940395355
1779996521586375400,13.34337548828125,-0.00494999997317791,-0.2578125,-0.00494999997317791
1779996521603651800,13.36065185546875,-0.00494999997317791,-0.22481249272823334,-0.0037124999798834324
1779996521620928300,13.37792822265625,-0.002474999986588955,-0.06476250290870667,0
1779996521646843000,13.4038427734375,0,0.20886249840259552,0.00494999997317791
1779996521664119300,13.421119384765625,0,0.25905001163482666,0.00494999997317791
1779996521681395500,13.4383955078125,0,0.15757499635219574,0.002474999986588955
1779996521707310300,13.464310302734376,-0.0037124999798834324,-0.12828749418258667,-0.002474999986588955
1779996521724586500,13.48158642578125,-0.006187499966472387,-0.2503874897956848,-0.007287499960511923
1779996521741863200,13.49886328125,-0.006187499966472387,-0.22481249272823334,-0.006049999967217445
1779996521759139600,13.5161396484375,-0.002474999986588955,-0.06847500056028366,0.0012374999932944775
1779996521776415700,13.533415771484375,0.0012374999932944775,0.1270499974489212,0.002474999986588955
1779996521793692200,13.550692138671875,0.002474999986588955,0.24928750097751617,0.007287499960511923
1779996521810968600,13.567968505859374,0.0012374999932944775,0.22481249272823334,0.00494999997317791
1779996521828245000,13.585244873046875,-0.002474999986588955,0.0672374963760376,0.0012374999932944775
1779996521845521400,13.602521484375,-0.002474999986588955,-0.1270499974489212,-0.002474999986588955
1779996521862797800,13.6197978515625,-0.0037124999798834324,-0.24557499587535858,-0.00494999997317791
1779996521888712400,13.64571240234375,-0.0037124999798834324,-0.1551000028848648,-0.0037124999798834324
1779996521905989000,13.662989013671876,-0.002474999986588955,0.028049999848008156,0.0012374999932944775
1779996521923265300,13.680265380859375,-0.0012374999932944775,0.19676250219345093,0.0037124999798834324
1779996521949180000,13.706179931640625,0,0.22357499599456787,0.006049999967217445
1779996521966456300,13.723456298828125,0,0.07452499866485596,0.0012374999932944775
1779996521983732700,13.740732666015624,-0.0037124999798834324,-0.11976250261068344,-0.002474999986588955
1779996522001009200,13.758009033203125,-0.006187499966472387,-0.24310000240802765,-0.00494999997317791
1779996522026923800,13.783923828125,-0.00494999997317791,-0.1588124930858612,-0.002474999986588955
1779996522044200200,13.8012001953125,-0.0012374999932944775,0.028049999848008156,0.0012374999932944775
1779996522061476400,13.818476318359375,0.0012374999932944775,0.19552500545978546,0.00494999997317791
1779996522087391000,13.844390869140625,-0.0002749999985098839,0.21752500534057617,0.002612499985843897
1779996522104667400,13.86166748046875,-0.0015124999918043613,0.07095000147819519,0.0013749999925494194
1779996522121943800,13.87894384765625,-0.002749999985098839,-0.11728750169277191,-0.0035749999806284904
1779996522147858400,13.9048583984375,-0.005087499972432852,-0.24543750286102295,-0.0035749999806284904
1779996522165134800,13.922134765625,-0.003987499978393316,-0.15757499635219574,-0.004812499973922968
1779996522182411500,13.93941162109375,-0.002749999985098839,0.02199999988079071,0.0013749999925494194
1779996522199688000,13.95668798828125,-0.0002749999985098839,0.1882375031709671,0.006187499966472387
1779996522225602600,13.9826025390625,-0.0002749999985098839,0.21752500534057617,0.0037124999798834324
1779996522242878700,13.999878662109374,-0.0015124999918043613,0.07576250284910202,0.00013749999925494194
1779996522260155100,14.017155029296875,-0.002749999985098839,-0.10862500220537186,-0.004812499973922968
1779996522286070000,14.043070068359375,-0.005087499972432852,-0.23938749730587006,-0.004812499973922968
1779996522303346200,14.06034619140625,-0.003987499978393316,-0.15386250615119934,-0.004812499973922968
1779996522320622600,14.07762255859375,-0.0015124999918043613,0.018424998968839645,0.002612499985843897
1779996522346537200,14.103537109375,0.0009624999947845936,0.22728750109672546,0.00494999997317791
1779996522363813600,14.120813720703126,0.0009624999947845936,0.2125750035047531,0.00494999997317791
1779996522381090300,14.13809033203125,-0.002749999985098839,0.07452499866485596,0.0013749999925494194
1779996522398366500,14.155366455078125,-0.003987499978393316,-0.1073874980211258,-0.002337499987334013
1779996522415643000,14.172642822265624,-0.005087499972432852,-0.22357499599456787,-0.004812499973922968
1779996522432919300,14.189919189453125,-0.005087499972432852,-0.20762500166893005,-0.0035749999806284904
1779996522450195700,14.20719580078125,-0.0015124999918043613,-0.07562500238418579,-0.002337499987334013
1779996522467472100,14.22447216796875,-0.0002749999985098839,0.10147500038146973,0.002612499985843897
1779996522484748500,14.24174853515625,-0.0002749999985098839,0.22123749554157257,0.00494999997317791
1779996522510663200,14.2676630859375,-0.0015124999918043613,0.15399999916553497,0.002612499985843897
1779996522527939600,14.284939697265624,-0.003987499978393316,-0.013337500393390656,-0.0010999999940395355
1779996522545216000,14.302216064453125,-0.006324999965727329,-0.16981250047683716,-0.004812499973922968
1779996522571130600,14.328130615234375,-0.003987499978393316,-0.20391249656677246,-0.006049999967217445
1779996522588407000,14.345406982421874,-0.002749999985098839,-0.07328750193119049,-0.0010999999940395355
1779996522605683500,14.362683349609375,-0.0015124999918043613,0.09652499854564667,0.0037124999798834324
1779996522622959900,14.3799599609375,-0.0015124999918043613,0.2102375030517578,0.00494999997317791
1779996522640236300,14.397236328125,-0.0002749999985098839,0.20157499611377716,0.0037124999798834324
1779996522657512700,14.4145126953125,-0.0015124999918043613,0.07823749631643295,0.0013749999925494194
1779996522674789000,14.4317890625,-0.002749999985098839,-0.09033749997615814,0.00013749999925494194
1779996522692065300,14.449065185546875,-0.0038499999791383743,-0.2063875049352646,-0.006049999967217445
1779996522709342000,14.466342041015626,-0.005087499972432852,-0.20391249656677246,-0.0035749999806284904
1779996522726618400,14.483618408203125,-0.0038499999791383743,-0.08304999768733978,-0.0010999999940395355
1779996522752533000,14.509532958984375,-0.0002749999985098839,0.16005000472068787,0.0037124999798834324
1779996522769809400,14.526809326171875,0.0009624999947845936,0.22357499599456787,0.00494999997317791
1779996522787085600,14.54408544921875,-0.0002749999985098839,0.1564749926328659,0.0037124999798834324
1779996522813000400,14.57000048828125,-0.002749999985098839,-0.08662500232458115,-0.0035749999806284904
1779996522830276900,14.58727685546875,-0.005087499972432852,-0.20157499611377716,-0.0035749999806284904
1779996522847553300,14.60455322265625,-0.005087499972432852,-0.20157499611377716,-0.004812499973922968
1779996522873467600,14.630467529296874,-0.002749999985098839,-0.0010999999940395355,0.0013749999925494194
1779996522890744300,14.647744384765625,-0.0002749999985098839,0.15523749589920044,0.002612499985843897
1779996522908020700,14.665020751953126,0.0009624999947845936,0.22123749554157257,0.00494999997317791
1779996522925297000,14.682296875,-0.0002749999985098839,0.15771250426769257,0.00494999997317791
1779996522942573600,14.699573486328125,-0.002749999985098839,0.0012374999932944775,-0.0010999999940395355
1779996522959850000,14.71685009765625,-0.005087499972432852,-0.15262499451637268,-0.0035749999806284904
1779996522985764600,14.7427646484375,-0.0038499999791383743,-0.2003374993801117,-0.004812499973922968
1779996523003041000,14.760041015625,-0.0038499999791383743,-0.08181250095367432,-0.0010999999940395355
1779996523020317700,14.777317626953124,-0.0015124999918043613,0.07947500050067902,0.002612499985843897
1779996523037594000,14.794593994140625,-0.0015124999918043613,0.19676250219345093,0.00494999997317791
1779996523054870300,14.811870361328126,-0.0002749999985098839,0.19923749566078186,0.0037124999798834324
1779996523072147000,14.82914697265625,-0.0015124999918043613,0.08799999952316284,0.00013749999925494194
1779996523089423400,14.84642333984375,-0.0037124999798834324,-0.07452499866485596,-0.002474999986588955
1779996523106699800,14.86369970703125,-0.004812499973922968,-0.19304999709129333,-0.0037124999798834324
1779996523123976200,14.88097607421875,-0.0037124999798834324,-0.19676250219345093,-0.0037124999798834324
1779996523149890600,14.906890625,-0.0012374999932944775,-0.0085249999538064,0.0012374999932944775
1779996523167167200,14.924167236328126,0,0.1405249983072281,0.0037124999798834324
1779996523184443600,14.941443603515625,0,0.20762500166893005,0.006049999967217445
1779996523201720000,14.958719970703125,0,0.1551000028848648,0.002474999986588955
1779996523218996500,14.97599658203125,-0.002474999986588955,0.01223750039935112,0.0012374999932944775
1779996523244911000,15.0019111328125,-0.0037124999798834324,-0.18328750133514404,-0.00494999997317791
1779996523262187500,15.0191875,-0.004812499973922968,-0.19181250035762787,-0.0037124999798834324
1779996523279464000,15.0364638671875,-0.002474999986588955,-0.08923749625682831,0
1779996523305378600,15.062378662109374,0,0.13433749973773956,0.0037124999798834324
1779996523322655000,15.079655029296875,0,0.2003374993801117,0.00494999997317791
1779996523339931400,15.096931396484376,0,0.15028749406337738,0.0037124999798834324
1779996523365846000,15.122845947265626,-0.002474999986588955,-0.0635249987244606,-0.0012374999932944775
1779996523383122400,15.140122314453125,-0.0037124999798834324,-0.17710000276565552,-0.0037124999798834324
1779996523400398800,15.15739892578125,-0.0037124999798834324,-0.18809999525547028,-0.0012374999932944775
1779996523417675500,15.174675537109374,-0.0037124999798834324,-0.09157499670982361,-0.0012374999932944775
1779996523443590000,15.20058984375,-0.0012374999932944775,0.1270499974489212,0.002474999986588955
1779996523460866300,15.2178662109375,0,0.19552500545978546,0.00494999997317791
1779996523478142700,15.235142822265624,0.0012374999932944775,0.15152500569820404,0.0037124999798834324
1779996523504057300,15.261057373046874,-0.0037124999798834324,-0.05623750016093254,-0.0012374999932944775
1779996523521334000,15.278333984375,-0.0037124999798834324,-0.17104999721050262,-0.0037124999798834324
1779996523538610400,15.2956103515625,-0.004812499973922968,-0.18576249480247498,-0.00494999997317791
1779996523555886800,15.312886962890625,-0.002474999986588955,-0.09157499670982361,0
1779996523573163300,15.330163330078125,-0.0012374999932944775,0.05623750016093254,0.0012374999932944775
1779996523590439700,15.347439697265624,0.0009624999947845936,0.16981250047683716,0.0037124999798834324
1779996523607716000,15.364716064453125,-0.0002749999985098839,0.1845249980688095,0.0037124999798834324
1779996523624992500,15.381992431640626,-0.0015124999918043613,0.09047500044107437,0.002612499985843897
1779996523642269000,15.39926904296875,-0.0038499999791383743,-0.05609999969601631,-0.002337499987334013
1779996523659545300,15.41654541015625,-0.005087499972432852,-0.16609999537467957,-0.0035749999806284904
1779996523676821800,15.43382177734375,-0.0038499999791383743,-0.17833749949932098,-0.0035749999806284904
1779996523694098200,15.45109814453125,-0.002749999985098839,-0.08910000324249268,-0.0010999999940395355
1779996523711374600,15.46837451171875,-0.002749999985098839,0.05252499878406525,0.002612499985843897
1779996523728651000,15.485651123046875,-0.0002749999985098839,0.16376249492168427,0.0037124999798834324
1779996523745927400,15.502927490234375,-0.0002749999985098839,0.17971250414848328,0.00494999997317791
1779996523771842000,15.528842041015626,-0.002749999985098839,0.020762499421834946,-0.0010999999940395355
1779996523797756700,15.554756591796876,-0.005087499972432852,-0.1611499935388565,-0.0035749999806284904
1779996523815033300,15.572033447265625,-0.0038499999791383743,-0.17833749949932098,-0.004812499973922968
1779996523832309800,15.589309814453125,-0.002749999985098839,-0.08662500232458115,-0.002337499987334013
1779996523849586200,15.606586181640624,-0.0002749999985098839,0.054999999701976776,0.0037124999798834324
1779996523866862600,15.623862548828125,-0.0002749999985098839,0.16005000472068787,0.0037124999798834324
1779996523884139300,15.64113916015625,-0.0002749999985098839,0.17476250231266022,0.0037124999798834324
1779996523901415400,15.65841552734375,-0.0015124999918043613,0.08923749625682831,0.002612499985843897
1779996523927330300,15.684330322265625,-0.0038499999791383743,-0.11357499659061432,-0.002337499987334013
1779996523944606500,15.7016064453125,-0.0038499999791383743,-0.17957499623298645,-0.0035749999806284904
1779996523961883100,15.718883056640625,-0.0038499999791383743,-0.14409999549388885,-0.002337499987334013
1779996523979159300,15.7361591796875,-0.002749999985098839,-0.02433750033378601,-0.0010999999940395355
1779996523996435700,15.753435791015624,-0.0015124999918043613,0.10752499848604202,0.002612499985843897
1779996524013712400,15.77071240234375,-0.0002749999985098839,0.17847499251365662,0.0037124999798834324
1779996524030988800,15.78798876953125,-0.0015124999918043613,0.14300000667572021,0.0013749999925494194
1779996524048265200,15.80526513671875,-0.002749999985098839,0.025712499395012856,0.0013749999925494194
1779996524065541600,15.822541748046875,-0.0038499999791383743,-0.10628750175237656,-0.0035749999806284904
1779996524082818300,15.839818359375,-0.003987499978393316,-0.1746249943971634,-0.0035749999806284904
1779996524100094500,15.857094482421875,-0.003987499978393316,-0.1391499936580658,-0.002337499987334013
1779996524117371000,15.874370849609376,-0.002749999985098839,-0.02433750033378601,-0.0010999999940395355
1779996524143285800,15.90028564453125,-0.0015124999918043613,0.14904999732971191,0.0013749999925494194
1779996524160562200,15.917562255859375,-0.0015124999918043613,0.17104999721050262,0.0037124999798834324
1779996524177838600,15.934838623046875,-0.0015124999918043613,0.0929500013589859,0.0013749999925494194
1779996524203753200,15.960753173828126,-0.002749999985098839,-0.10009999573230743,-0.0010999999940395355
1779996524221029600,15.978029541015625,-0.005087499972432852,-0.17215000092983246,-0.0035749999806284904
1779996524238306000,15.99530615234375,-0.003987499978393316,-0.1428624987602234,-0.0010999999940395355
1779996524264220700,16.021220703125,-0.0015124999918043613,0.03671250119805336,0.0013749999925494194
1779996524281497300,16.038497314453124,-0.0002749999985098839,0.1467124968767166,0.00494999997317791
1779996524298773500,16.0557734375,-0.0002749999985098839,0.1722874939441681,0.0037124999798834324
1779996524316050200,16.07305029296875,-0.0015124999918043613,0.09652499854564667,0.002612499985843897
1779996524333326300,16.090326416015625,-0.002749999985098839,-0.03657500073313713,-0.0010999999940395355
1779996524350603000,16.10760302734375,-0.002749999985098839,-0.14657500386238098,-0.0035749999806284904
1779996524367879400,16.12487939453125,-0.005087499972432852,-0.1685750037431717,-0.002337499987334013
1779996524385155800,16.14215576171875,-0.002749999985098839,-0.09281250089406967,-0.0010999999940395355
1779996524402432300,16.159432373046876,-0.0015124999918043613,0.03423750028014183,0.002612499985843897
1779996524419708700,16.176708740234375,-0.0002749999985098839,0.14300000667572021,0.0037124999798834324
1779996524445623300,16.202623291015627,-0.0015124999918043613,0.14176249504089355,0.0037124999798834324
1779996524462899700,16.219899658203126,-0.002749999985098839,0.0317624993622303,0.0013749999925494194
1779996524480176400,16.23717626953125,-0.005087499972432852,-0.0952875018119812,-0.002337499987334013
1779996524506090800,16.2630908203125,-0.005087499972432852,-0.16609999537467957,-0.004812499973922968
1779996524523367400,16.280367431640624,-0.002749999985098839,-0.09157499670982361,-0.0010999999940395355
1779996524540643800,16.297643798828126,-0.0002749999985098839,0.035475000739097595,0.00013749999925494194
1779996524566558500,16.323558349609375,-0.0002749999985098839,0.16376249492168427,0.006187499966472387
1779996524583835100,16.340835205078125,-0.0012374999932944775,0.1368124932050705,0.002474999986588955
1779996524601111600,16.358111572265624,-0.0012374999932944775,0.028049999848008156,0.0012374999932944775
1779996524627026200,16.384026123046876,-0.002474999986588955,-0.1368124932050705,-0.0037124999798834324
1779996524644302600,16.401302490234375,-0.0037124999798834324,-0.16128750145435333,-0.0012374999932944775
1779996524661579000,16.4185791015625,-0.0037124999798834324,-0.09281250089406967,-0.0037124999798834324
1779996524687493600,16.44449365234375,-0.0012374999932944775,0.09047500044107437,0.002474999986588955
1779996524704770300,16.461770263671873,0,0.16499999165534973,0.00494999997317791
1779996524722046700,16.479046630859376,0,0.13928750157356262,0.002474999986588955
1779996524747961300,16.50496142578125,-0.002474999986588955,-0.0317624993622303,-0.0012374999932944775
1779996524765237800,16.52223779296875,-0.00494999997317791,-0.1368124932050705,-0.002474999986588955
1779996524782514200,16.53951416015625,-0.0037124999798834324,-0.16128750145435333,-0.0037124999798834324
1779996524799790600,16.55679052734375,-0.0037124999798834324,-0.09033749997615814,0
1779996524825705200,16.582705322265625,-0.0012374999932944775,0.09047500044107437,0.0012374999932944775
1779996524842981600,16.599981689453124,0,0.16005000472068787,0.0037124999798834324
1779996524860258000,16.617258056640626,0,0.13557499647140503,0.0012374999932944775
1779996524886172700,16.643172607421874,-0.002474999986588955,-0.02928750030696392,-0.0012374999932944775
1779996524903449300,16.660449462890625,-0.00494999997317791,-0.1331000030040741,-0.002474999986588955
1779996524920725500,16.6777255859375,-0.0037124999798834324,-0.1588124930858612,-0.00494999997317791
1779996524946640400,16.703640380859376,-0.0012374999932944775,-0.032999999821186066,-0.0012374999932944775
1779996524963916800,16.720916748046875,-0.0012374999932944775,0.08799999952316284,0.002474999986588955
1779996524981193200,16.738193115234374,-0.0012374999932944775,0.15757499635219574,0.00494999997317791
1779996524998469600,16.7554697265625,-0.0012374999932944775,0.13433749973773956,0.002474999986588955
1779996525015746000,16.77274609375,-0.002474999986588955,0.032999999821186066,0.0037124999798834324
1779996525041661000,16.798660888671876,-0.0037124999798834324,-0.12952500581741333,-0.0037124999798834324
1779996525058937300,16.815937255859374,-0.00494999997317791,-0.15386250615119934,0
1779996525076213800,16.8332138671875,-0.0037124999798834324,-0.09157499670982361,-0.002474999986588955
1779996525093490200,16.850490234375,-0.002749999985098839,0.025712499395012856,0.00013749999925494194
1779996525110766600,16.8677666015625,0.0009624999947845936,0.12952500581741333,0.0037124999798834324
1779996525128043000,16.88504296875,0.002199999988079071,0.15771250426769257,0.00494999997317791
1779996525145319400,16.9023193359375,0.0009624999947845936,0.08923749625682831,0.0037124999798834324
1779996525171234300,16.928234375,-0.002749999985098839,-0.08662500232458115,-0.0035749999806284904
1779996525188510500,16.945510498046875,-0.0038499999791383743,-0.15138749778270721,-0.0035749999806284904
1779996525205787100,16.962787109375,-0.002749999985098839,-0.12581250071525574,-0.0035749999806284904
1779996525223063600,16.9800634765625,-0.002749999985098839,-0.02681249938905239,0.0013749999925494194
1779996525240340000,16.997340087890624,-0.002749999985098839,0.08676250278949738,0.0013749999925494194
1779996525257616400,17.014616455078126,-0.0015124999918043613,0.14904999732971191,0.002612499985843897
1779996525274893000,17.03189306640625,-0.0015124999918043613,0.1270499974489212,0.002612499985843897
1779996525292169200,17.049169189453124,-0.002749999985098839,0.03423750028014183,0.0013749999925494194
1779996525309446000,17.06644580078125,-0.0038499999791383743,-0.08181250095367432,-0.0010999999940395355
1779996525326722300,17.083722412109374,-0.005087499972432852,-0.14904999732971191,-0.004812499973922968
1779996525352637000,17.109636962890626,-0.002749999985098839,-0.08552499860525131,-0.002337499987334013
1779996525369913300,17.126913330078125,-0.0002749999985098839,0.029424998909235,0.0013749999925494194
1779996525387189800,17.144189697265624,-0.0002749999985098839,0.12594999372959137,0.0037124999798834324
1779996525404466200,17.161466064453126,-0.0002749999985098839,0.14547500014305115,0.002612499985843897
1779996525421742800,17.178742919921874,-0.0015124999918043613,0.08318749815225601,0.002612499985843897
1779996525439019000,17.19601904296875,-0.002749999985098839,-0.02681249938905239,-0.0010999999940395355
1779996525456295700,17.213295654296875,-0.002749999985098839,-0.11838749796152115,-0.002337499987334013
1779996525473572000,17.230572021484374,-0.0038499999791383743,-0.14038750529289246,-0.0035749999806284904
1779996525490848500,17.2478486328125,-0.002749999985098839,-0.08304999768733978,0.00013749999925494194
1779996525508125000,17.265125,-0.0015124999918043613,0.023237500339746475,0.0013749999925494194
1779996525525401600,17.282401611328126,-0.0002749999985098839,0.11728750169277191,0.0037124999798834324
1779996525551316000,17.30831591796875,-0.0015124999918043613,0.11976250261068344,0.002612499985843897
1779996525568592600,17.325592529296873,-0.002749999985098839,0.030662499368190765,0.00013749999925494194
1779996525585869000,17.342869140625,-0.0037124999798834324,-0.07452499866485596,0
1779996525603145500,17.3601455078125,-0.0037124999798834324,-0.13805000483989716,-0.0037124999798834324
1779996525629060000,17.38606005859375,-0.002474999986588955,-0.07947500050067902,0
1779996525646336500,17.40333642578125,-0.002474999986588955,0.02447500079870224,0
1779996525663613000,17.420613037109376,-0.0012374999932944775,0.11357499659061432,0.002474999986588955
1779996525689527800,17.44652783203125,-0.0012374999932944775,0.11728750169277191,0.002474999986588955
1779996525706804500,17.463804443359376,-0.0012374999932944775,0.032999999821186066,0
1779996525724080600,17.48108056640625,-0.002474999986588955,-0.0695749968290329,-0.0012374999932944775
1779996525749995500,17.50699560546875,-0.0037124999798834324,-0.13805000483989716,-0.0037124999798834324
1779996525767272000,17.52427197265625,-0.004812499973922968,-0.08428750187158585,0
1779996525784548000,17.541548095703124,-0.0012374999932944775,0.0170499999076128,0
1779996525801824800,17.55882470703125,0,0.10752499848604202,0.002474999986588955
1779996525819101000,17.576100830078126,0,0.13557499647140503,0.0037124999798834324
1779996525836377600,17.593377685546876,-0.0012374999932944775,0.08304999768733978,0
1779996525853654000,17.610654052734375,-0.002474999986588955,-0.0147124994546175,0.0012374999932944775
1779996525870930400,17.627930419921874,-0.0037124999798834324,-0.1050499975681305,-0.00494999997317791
1779996525888206800,17.645206787109377,-0.0037124999798834324,-0.1307625025510788,-0.002474999986588955
1779996525914121500,17.67112158203125,-0.0037124999798834324,-0.035475000739097595,-0.002474999986588955
1779996525931398000,17.68839794921875,-0.0012374999932944775,0.0635249987244606,0.002474999986588955
1779996525948674600,17.705674560546875,-0.0012374999932944775,0.1270499974489212,0.0012374999932944775
1779996525965951000,17.722950927734374,-0.0012374999932944775,0.11976250261068344,0.002474999986588955
1779996525983227400,17.740227294921876,-0.0012374999932944775,0.03904999792575836,0.0012374999932944775
1779996526000503800,17.75750390625,-0.002474999986588955,-0.06476250290870667,-0.002474999986588955
1779996526026418400,17.78341845703125,-0.002474999986588955,-0.13199999928474426,-0.0037124999798834324
1779996526043694800,17.80069482421875,-0.0037124999798834324,-0.08304999768733978,-0.002474999986588955
1779996526060971500,17.817971435546873,-0.002474999986588955,0.01223750039935112,0.0012374999932944775
1779996526078248000,17.835248046875,-0.002474999986588955,0.1013374999165535,0.0012374999932944775
1779996526104162600,17.86116259765625,-0.0002749999985098839,0.11976250261068344,0.0013749999925494194
1779996526121439000,17.87843896484375,-0.0015124999918043613,0.04399999976158142,0.002612499985843897
1779996526138715400,17.89571533203125,-0.0015124999918043613,-0.059812501072883606,0.00013749999925494194
1779996526164630000,17.921630126953126,-0.002749999985098839,-0.13805000483989716,-0.0010999999940395355
1779996526181906700,17.93890673828125,-0.002749999985098839,-0.09157499670982361,-0.0010999999940395355
1779996526199183000,17.95618310546875,-0.002749999985098839,0.007424999959766865,0.0013749999925494194
1779996526225097700,17.98209765625,-0.0015124999918043613,0.1270499974489212,0.0013749999925494194
1779996526242374100,17.9993740234375,-0.0015124999918043613,0.12347500026226044,0.0013749999925494194
1779996526259650600,18.016650634765625,-0.002749999985098839,0.047712501138448715,0.00013749999925494194
1779996526285565200,18.042565185546874,-0.0038499999791383743,-0.09404999762773514,-0.0010999999940395355
1779996526302841600,18.059841552734376,-0.0038499999791383743,-0.13062499463558197,-0.004812499973922968
1779996526320118000,18.077117919921875,-0.0038499999791383743,-0.09033749997615814,-0.0035749999806284904
1779996526346033000,18.103032958984375,-0.0015124999918043613,0.05376249924302101,0.0013749999925494194
1779996526363309300,18.120309326171874,-0.0015124999918043613,0.12099999934434891,0.00494999997317791
1779996526380585500,18.13758544921875,-0.0002749999985098839,0.11976250261068344,0.0013749999925494194
1779996526406500400,18.163500244140625,-0.002749999985098839,0.002474999986588955,-0.014574999921023846
1779996526423777000,18.180777099609376,-0.0038499999791383743,-0.07809999585151672,0.007424999959766865
1779996526441053400,18.198053466796875,-0.0038499999791383743,-0.11728750169277191,0.00494999997317791
1779996526466967800,18.2239677734375,-0.0038499999791383743,-0.0635249987244606,0.0037124999798834324
1779996526484244500,18.241244384765626,-0.0015124999918043613,0.025712499395012856,0.00013749999925494194
1779996526501521000,18.25852099609375,0.0009624999947845936,0.09652499854564667,0.0037124999798834324
1779996526518797300,18.27579736328125,-0.0002749999985098839,0.10999999940395355,0.002612499985843897
1779996526544712200,18.301712158203124,-0.0015124999918043613,0.018424998968839645,0.00013749999925494194
1779996526561988600,18.318988525390626,-0.002749999985098839,-0.0635249987244606,-0.004812499973922968
1779996526579265000,18.33626513671875,-0.0038499999791383743,-0.10862500220537186,0.00013749999925494194
1779996526605179600,18.3621796875,-0.0037124999798834324,-0.059812501072883606,-0.00494999997317791
1779996526622456000,18.3794560546875,-0.002474999986588955,0.02681249938905239,0.002474999986588955
1779996526639732500,18.396732421875,0,0.09776250272989273,0.0012374999932944775
1779996526665647000,18.422647216796875,-0.0012374999932944775,0.09157499670982361,0.0037124999798834324
1779996526682923500,18.439923583984374,-0.002474999986588955,0.015949999913573265,-0.002474999986588955
1779996526700200000,18.457199951171877,-0.0037124999798834324,-0.06599999964237213,0
1779996526726114800,18.48311474609375,-0.0037124999798834324,-0.10381250083446503,-0.0037124999798834324
1779996526743391200,18.50039111328125,-0.002474999986588955,-0.05623750016093254,0
1779996526760667600,18.517667724609375,-0.0012374999932944775,0.023237500339746475,0.0012374999932944775
1779996526786582300,18.543582275390627,0,0.10381250083446503,0.0037124999798834324
1779996526803858700,18.560858642578125,-0.002474999986588955,0.08428750187158585,0.0012374999932944775
1779996526821135000,18.578135009765624,-0.002474999986588955,0.015949999913573265,0.002474999986588955
1779996526847049700,18.6040498046875,-0.002474999986588955,-0.08799999952316284,-0.0037124999798834324
1779996526864326100,18.621326171875,-0.002474999986588955,-0.0989999994635582,-0.0012374999932944775
1779996526881602800,18.638602783203126,-0.0037124999798834324,-0.054999999701976776,-0.0012374999932944775
1779996526898879200,18.655879150390625,-0.0012374999932944775,0.023237500339746475,0
1779996526916155600,18.67315576171875,-0.0012374999932944775,0.08799999952316284,0.0012374999932944775
1779996526933432000,18.69043212890625,-0.0012374999932944775,0.10023749619722366,0.002474999986588955
1779996526950708700,18.707708740234374,-0.002474999986588955,0.054999999701976776,0.0012374999932944775
1779996526976623000,18.733623046875,-0.002474999986588955,-0.057475000619888306,-0.0012374999932944775
1779996526993899800,18.750899658203124,-0.002474999986588955,-0.09652499854564667,-0.002474999986588955
1779996527011176200,18.76817626953125,-0.002474999986588955,-0.07947500050067902,0.006049999967217445
1779996527028452600,18.78545263671875,-0.0012374999932944775,-0.015812499448657036,-0.00976249948143959
1779996527045729000,18.80272900390625,-0.0012374999932944775,0.05252499878406525,-0.0085249999538064
1779996527063005400,18.82000537109375,-0.0012374999932944775,0.08181250095367432,0.0037124999798834324
1779996527080282000,18.8372822265625,-0.002474999986588955,0.054999999701976776,-0.00976249948143959
1779996527106196700,18.86319677734375,-0.002474999986588955,-0.037812501192092896,0.00494999997317791
1779996527123473000,18.880472900390625,-0.002474999986588955,-0.07328750193119049,0.006049999967217445
1779996527149387800,18.9063876953125,-0.002474999986588955,-0.02447500079870224,-0.007287499960511923
1779996527166664200,18.923664306640624,-0.0012374999932944775,0.04152499884366989,-0.0170499999076128
1779996527183940600,18.940940673828123,-0.0012374999932944775,0.07452499866485596,-0.006049999967217445
1779996527209855200,18.966855224609375,-0.0012374999932944775,0.030524998903274536,-0.010999999940395355
1779996527227132000,18.9841318359375,-0.002474999986588955,-0.023237500339746475,0.006049999967217445
1779996527244408000,19.001407958984377,-0.002474999986588955,-0.0317624993622303,-0.01347499992698431
1779996527270323000,19.027322998046873,0,0.05623750016093254,0.0085249999538064
1779996527287599400,19.044599365234376,-0.0012374999932944775,0.1013374999165535,0.010999999940395355
1779996527304875800,19.061875732421875,0,0.08676250278949738,-0.00976249948143959
1779996527330790400,19.087790283203127,-0.0012374999932944775,0.002474999986588955,0.007287499960511923
1779996527348066800,19.10506689453125,-0.002474999986588955,-0.0037124999798834324,-0.02928750030696392
1779996527365343200,19.12234326171875,0,0.047575000673532486,-0.0012374999932944775
1779996527382619600,19.13961962890625,0,0.09281250089406967,-0.00494999997317791
1779996527399896300,19.156896240234374,-0.0012374999932944775,0.09281250089406967,-0.0085249999538064
1779996527417172500,19.17417236328125,-0.0012374999932944775,0.05004999786615372,-0.00494999997317791
1779996527434449000,19.191448974609376,0,0.006049999967217445,0
1779996527451725600,19.2087255859375,0.03904999792575836,-0.0012374999932944775,-0.030524998903274536
1779996527477640200,19.23464013671875,0.015949999913573265,0.07452499866485596,-0.030524998903274536
1779996527494916600,19.25191650390625,0.00494999997317791,0.09281250089406967,-0.01952499896287918
1779996527512193000,19.269193115234376,0,0.05376249924302101,-0.02199999988079071
1779996527529469700,19.2864697265625,0,-0.007287499960511923,0.0012374999932944775
1779996527546745900,19.303745849609374,0.0085249999538064,-0.045237500220537186,0.01952499896287918
1779996527564022500,19.3210224609375,0.00494999997317791,-0.02694999985396862,-0.002474999986588955
1779996527581299000,19.338298828125,0.007287499960511923,0.047575000673532486,-0.03904999792575836
1779996527598575400,19.355575439453126,0.002199999988079071,0.11247500032186508,-0.02681249938905239
1779996527615851800,19.372851806640625,-0.0002749999985098839,0.11618749797344208,-0.020624998956918716
1779996527641766400,19.398766357421874,-0.0002749999985098839,0.050187498331069946,0.0013749999925494194
1779996527659042800,19.416042724609376,0.01677500084042549,0.030662499368190765,0.01718750037252903
1779996527676319200,19.4333193359375,0.0009624999947845936,0.07823749631643295,0.03671250119805336
1779996527693595600,19.450595703125,-0.0002749999985098839,0.12952500581741333,0.042899999767541885
1779996527710872000,19.4678720703125,-0.0002749999985098839,0.1344749927520752,-0.007287499960511923
1779996527728148700,19.485148681640624,-0.0002749999985098839,0.07699999958276749,-0.015812499448657036
1779996527754063000,19.51106298828125,0.002199999988079071,0.037950001657009125,-0.020624998956918716
1779996527771339800,19.52833984375,0.0034374999813735485,0.04647500067949295,-0.01209999993443489
1779996527788616200,19.5456162109375,-0.0002749999985098839,0.07699999958276749,-0.028049999848008156
1779996527805892600,19.562892578125,-0.0002749999985098839,0.11123749613761902,-0.010862499475479126
1779996527823169000,19.5801689453125,-0.002749999985098839,0.10518749803304672,-0.013337500393390656
1779996527840445700,19.59744580078125,-0.002749999985098839,0.06971249729394913,-0.010862499475479126
1779996527866360000,19.623360107421874,-0.007562499959021807,0.0611874982714653,-0.014574999921023846
1779996527883636700,19.64063671875,-0.006324999965727329,0.08923749625682831,-0.08291249722242355
1779996527900913200,19.6579130859375,-0.005087499972432852,0.1247124969959259,-0.08291249722242355
1779996527926827800,19.683827880859376,-0.007562499959021807,0.11852499842643738,-0.023099999874830246
1779996527944104400,19.7011044921875,-0.008799999952316284,0.08195000141859055,0.007424999959766865
1779996527961380600,19.718380615234373,-0.007562499959021807,0.040424998849630356,0.055137500166893005
1779996527987295500,19.74429541015625,-0.0015124999918043613,0.04647500067949295,-0.04262499883770943
1779996528004572000,19.761572021484376,-0.003987499978393316,0.10395000129938126,-0.045099999755620956
1779996528021848300,19.778848388671875,-0.007562499959021807,0.13695000112056732,0.002612499985843897
1779996528047763000,19.804762939453123,-0.005087499972432852,0.13928750157356262,0.04413750022649765
1779996528065039400,19.822039306640626,-0.0015124999918043613,0.11852499842643738,0.07342500239610672
1779996528082315800,19.839315673828125,0.0034374999813735485,0.10395000129938126,0.04166249930858612
1779996528099592400,19.856592529296876,0.0035749999806284904,0.10147500038146973,-0.0012374999932944775
1779996528116868900,19.873868896484375,-0.0012374999932944775,0.09404999762773514,-0.0170499999076128
1779996528134145300,19.891145263671874,-0.002474999986588955,0.08181250095367432,-0.01952499896287918
1779996528151421700,19.908421630859376,-0.002474999986588955,0.07204999774694443,0.01347499992698431
1779996528168698000,19.925697998046875,0.0012374999932944775,0.0672374963760376,0.01952499896287918
1779996528185974500,19.942974609375,0.006049999967217445,0.06104999780654907,0.015812499448657036
1779996528211889200,19.96888916015625,0.0012374999932944775,0.0672374963760376,0.028049999848008156
1779996528229165600,19.98616552734375,-0.002474999986588955,0.08676250278949738,0.0147124994546175
1779996528246442200,20.003442138671875,-0.002474999986588955,0.08181250095367432,-0.018287500366568565
1779996528272356600,20.029356689453124,0.004812499973922968,0.06228749826550484,0.007287499960511923
1779996528289633300,20.04663330078125,0.007287499960511923,0.0695749968290329,0.030524998903274536
1779996528306909700,20.06390966796875,0,0.09047500044107437,0.047712501138448715
1779996528324185900,20.081185791015624,-0.0037124999798834324,0.11481250077486038,0.030524998903274536
1779996528350100700,20.107100830078124,-0.002474999986588955,0.12952500581741333,0.025712499395012856
1779996528367377200,20.124377197265623,0.0012374999932944775,0.10876250267028809,0.025712499395012856
1779996528384653800,20.14165380859375,0.0012374999932944775,0.07081250101327896,0.02199999988079071
1779996528401930200,20.15893017578125,0,0.035475000739097595,0.02928750030696392
1779996528427844900,20.184844970703125,0,-0.00976249948143959,0.037812501192092896
1779996528445121300,20.202121337890624,0,-0.02928750030696392,0.01347499992698431
1779996528462397700,20.219397705078126,-0.0012374999932944775,-0.02199999988079071,-0.03671250119805336
1779996528479674400,20.23667431640625,-0.00494999997317791,-0.007287499960511923,-0.032999999821186066
1779996528505588700,20.262588623046874,0,-0.004812499973922968,0.00976249948143959
1779996528522865400,20.279865478515624,-0.0012374999932944775,0.010999999940395355,-0.006049999967217445
1779996528540141600,20.2971416015625,-0.0012374999932944775,0.0317624993622303,-0.002474999986588955
1779996528557418200,20.314418212890626,0,0.05376249924302101,0.0037124999798834324
1779996528583332600,20.34033251953125,-0.0012374999932944775,0.07204999774694443,-0.002474999986588955
1779996528600609300,20.357609375,0,0.06971249729394913,0.0147124994546175
1779996528617885700,20.3748857421875,0.0012374999932944775,0.06971249729394913,0.01952499896287918
1779996528635161900,20.392161865234375,0.0012374999932944775,0.06228749826550484,0.032999999821186066
1779996528652438500,20.4094384765625,-0.0012374999932944775,0.05871250107884407,0.02447500079870224
1779996528669715000,20.42671484375,-0.0012374999932944775,0.04881250113248825,0.0170499999076128
1779996528686991400,20.443991455078127,0,0.02694999985396862,0.00494999997317791
1779996528704267800,20.461267822265626,0,-0.00976249948143959,0.01347499992698431
1779996528721544200,20.478544189453125,-0.002474999986588955,-0.030524998903274536,0.00494999997317791
1779996528747459000,20.504458984375,-0.0037124999798834324,0.015949999913573265,-0.002474999986588955
1779996528764735200,20.5217353515625,-0.002474999986588955,0.047712501138448715,-0.015949999913573265
1779996528782012000,20.539011962890626,0,0.04152499884366989,-0.0012374999932944775
1779996528799288300,20.556288330078125,0,0.0317624993622303,-0.002474999986588955
1779996528816564700,20.573564697265624,-0.0012374999932944775,0.02447500079870224,-0.0037124999798834324
1779996528833841200,20.590841064453127,0.0012374999932944775,0.0147124994546175,0.01347499992698431
1779996528851117600,20.60811767578125,0.0035749999806284904,0.007287499960511923,0.03671250119805336
1779996528885670400,20.64267041015625,-0.0012374999932944775,0.010999999940395355,-0.007287499960511923
1779996528902947000,20.659947021484374,-0.002474999986588955,0.0085249999538064,-0.020762499421834946
1779996528920223200,20.67722314453125,-0.0012374999932944775,-0.004812499973922968,-0.015949999913573265
1779996528946138000,20.70313818359375,0,-0.04399999976158142,0.025712499395012856
1779996528963414500,20.72041455078125,-0.0012374999932944775,-0.04647500067949295,0.035475000739097595
1779996528980691000,20.73769091796875,-0.002474999986588955,-0.02447500079870224,0.01347499992698431
1779996529006605600,20.76360546875,-0.0012374999932944775,0.023237500339746475,-0.006049999967217445
1779996529023882000,20.780882080078126,0,0.047712501138448715,0.00494999997317791
1779996529041158400,20.798158447265624,-0.0012374999932944775,0.07081250101327896,-0.0037124999798834324
1779996529067073300,20.8240732421875,-0.0012374999932944775,0.06599999964237213,0.02928750030696392
1779996529084349700,20.841349609375,-0.0012374999932944775,0.04647500067949295,0.030524998903274536
1779996529101626000,20.858626220703126,0,0.02928750030696392,0.025712499395012856
1779996529118902500,20.875902587890625,0,0.01223750039935112,0.00494999997317791
1779996529136179200,20.89317919921875,-0.0012374999932944775,-0.00494999997317791,0.0012374999932944775
1779996529153455400,20.910455322265626,-0.002474999986588955,-0.01347499992698431,-0.010999999940395355
1779996529170732000,20.92773193359375,-0.002474999986588955,-0.006049999967217445,-0.03423750028014183
1779996529188008400,20.945008544921876,-0.002474999986588955,-0.006049999967217445,-0.015949999913573265
1779996529205284900,20.962284912109375,-0.0012374999932944775,-0.0147124994546175,0.015812499448657036
1779996529222561300,20.979561279296874,-0.0012374999932944775,-0.01223750039935112,0.01347499992698431
1779996529239837700,20.996837646484376,-0.002474999986588955,0,-0.002474999986588955
1779996529265752600,21.022752685546877,-0.002474999986588955,-0.0037124999798834324,-0.0170499999076128
1779996529283028700,21.04002880859375,0.0012374999932944775,-0.007287499960511923,0.002474999986588955
1779996529300305400,21.057305419921875,-0.0012374999932944775,-0.0037124999798834324,0.0037124999798834324
1779996529326219800,21.0832197265625,-0.0012374999932944775,0.02199999988079071,-0.006049999967217445
1779996529343496400,21.100496337890625,-0.002474999986588955,0.028049999848008156,-0.007287499960511923
1779996529360772900,21.11777294921875,-0.0012374999932944775,0.02199999988079071,0.007287499960511923
1779996529386687500,21.1436875,-0.0012374999932944775,0.01347499992698431,0.00494999997317791
1779996529403964200,21.160964111328123,-0.0012374999932944775,0.015949999913573265,-0.010999999940395355
1779996529421240300,21.178240234375,-0.002474999986588955,0.01347499992698431,-0.0085249999538064
1779996529447155200,21.2041552734375,0,-0.01223750039935112,0.02447500079870224
1779996529464431600,21.221431640625,0,-0.01223750039935112,0.01952499896287918
1779996529481707800,21.238707763671876,-0.0012374999932944775,0.0085249999538064,0.0170499999076128
1779996529498984400,21.255984375,-0.002474999986588955,0.0147124994546175,0.0037124999798834324
1779996529516260900,21.2732607421875,-0.0012374999932944775,0.0037124999798834324,0.0037124999798834324
1779996529533537300,21.290537353515624,-0.002474999986588955,-0.0012374999932944775,-0.002474999986588955
1779996529550813700,21.307813720703123,-0.0037124999798834324,0.007287499960511923,-0.02199999988079071
1779996529568090400,21.32509033203125,0,0.0037124999798834324,-0.006049999967217445
1779996529585366500,21.342366455078125,0,0.002474999986588955,0.00976249948143959
1779996529602643000,21.359642822265624,-0.0012374999932944775,0.0170499999076128,0.00976249948143959
1779996529628557800,21.385557861328124,-0.0012374999932944775,0.04399999976158142,0.002474999986588955
1779996529645834200,21.402834228515626,-0.0012374999932944775,0.042762499302625656,0.01952499896287918
1779996529663110700,21.420110595703125,0,0.02447500079870224,0.02928750030696392
1779996529689025300,21.446025390625,0,0.018287500366568565,0
1779996529706301700,21.4633017578125,-0.0012374999932944775,0.025712499395012856,-0.0012374999932944775
1779996529723578000,21.480578125,-0.0012374999932944775,0.02447500079870224,0.007287499960511923
1779996529740854500,21.4978544921875,-0.0012374999932944775,0.0170499999076128,0.002474999986588955
1779996529766769400,21.523769287109374,-0.002474999986588955,0.002474999986588955,-0.0037124999798834324
1779996529784045600,21.541045654296877,-0.002474999986588955,0.0012374999932944775,0.0147124994546175
1779996529801322200,21.558322265625,-0.0012374999932944775,-0.0012374999932944775,0.0170499999076128
1779996529827236900,21.58423681640625,-0.002474999986588955,0.0012374999932944775,0
1779996529844513300,21.60151318359375,-0.0037124999798834324,-0.0012374999932944775,-0.02447500079870224
1779996529861789700,21.618789794921874,-0.0037124999798834324,-0.01952499896287918,-0.010999999940395355
1779996529887704300,21.644704345703126,-0.0037124999798834324,-0.02681249938905239,-0.00976249948143959
1779996529904980700,21.661980712890625,-0.0037124999798834324,-0.01952499896287918,-0.0147124994546175
1779996529922257200,21.679257080078123,-0.00494999997317791,-0.035475000739097595,-0.037812501192092896
1779996529948171800,21.705171875,-0.0085249999538064,-0.12581250071525574,-0.10257499665021896
1779996529965448400,21.722448486328126,-0.01223750039935112,-0.26633748412132263,-0.12581250071525574
1779996529982724600,21.739724609375,-0.007287499960511923,-0.6011499762535095,0.18933749198913574
1779996530000001300,21.757001220703124,-0.07576250284910202,-1.7445999383926392,0.9895874857902527
1779996530025916000,21.782916015625,-0.02447500079870224,-3.4611499309539795,-1.613837480545044
1779996530043192300,21.8001923828125,-0.04028749838471413,-2.447087526321411,1.3462624549865723
1779996530060468700,21.81746875,0.05004999786615372,-0.11481250077486038,1.6651250123977661
1779996530077745400,21.834745361328125,-0.02681249938905239,1.8691749572753906,1.8154125213623047
1779996530103659800,21.86065966796875,-0.1676124930381775,2.4765124320983887,-1.4220249652862549
1779996530120936400,21.8779365234375,-0.13337500393390656,0.8137249946594238,-4.6472249031066895
1779996530138212900,21.895212890625,0.021724998950958252,-0.9040625095367432,2.280987501144409
1779996530155489300,21.9124892578125,0.1317249983549118,-1.884987473487854,2.107599973678589
1779996530172765700,21.929765625,0.07672499865293503,-2.649899959564209,-0.5582500100135803
1779996530190042000,21.9470419921875,0.002199999988079071,-1.5978875160217285,-1.2020249366760254
1779996530207318500,21.964318603515625,-0.01251249946653843,0.31652501225471497,-0.4739624857902527
1779996530224595000,21.981594970703124,-0.0002749999985098839,2.0561749935150146,0.16499999165534973
1779996530241871600,21.99887158203125,-0.0015124999918043613,2.645087480545044,-0.5912500023841858
1779996530259147800,22.016147705078126,0.027912499383091927,1.800837516784668,-0.008387500420212746
1779996530285062400,22.0420625,-0.035750001668930054,-1.4843125343322754,-0.7915874719619751
1779996530302338800,22.0593388671875,-0.03932499885559082,-2.625425100326538,0.2652375102043152
1779996530319615500,22.076615478515624,-0.008799999952316284,-2.201512575149536,0.3910500109195709
1779996530345529900,22.10252978515625,0.01691249944269657,0.27252501249313354,0.7429124712944031
1779996530362806500,22.119806640625,-0.02708750031888485,1.9388874769210815,0.8724374771118164
1779996530380082700,22.137082763671874,-0.06503749638795853,2.454512596130371,-0.5277249813079834
1779996530397359400,22.154359375,-0.09927500039339066,1.3964500427246094,-3.006574869155884
1779996530414635500,22.171635498046875,0.029012499377131462,-0.3053874969482422,1.9133124351501465
1779996530431912000,22.188911865234374,0.018012499436736107,-1.876462459564209,0.42281249165534973
1779996530449188600,22.206188720703125,-0.043037500232458115,-2.7304749488830566,-2.003512382507324
1779996530466465000,22.223465087890624,-0.030799999833106995,-1.7469375133514404,0.7501999735832214
1779996530483741700,22.24074169921875,0.07672499865293503,0.38981249928474426,1.692212462425232
1779996530501017900,22.258017822265625,-0.016087500378489494,1.8167874813079834,1.5369750261306763
1779996530526932700,22.2839326171875,-0.09184999763965607,1.714074969291687,-1.6369374990463257
1779996530544209200,22.301209228515624,-0.06861250102519989,0.7331500053405762,-3.806687593460083
1779996530561485600,22.318485595703127,0.02667500078678131,-0.7463499903678894,3.177762508392334
1779996530587400200,22.344400146484375,0.03396249935030937,-2.0230374336242676,-0.40796250104904175
1779996530604676600,22.361676513671874,-0.05156249925494194,-1.713937520980835,-1.5538874864578247
1779996530621953000,22.378953125,0.0009624999947845936,0.059950001537799835,-0.7121124863624573
1779996530647868000,22.404867919921877,0.01924999989569187,2.004887580871582,1.0019625425338745
1779996530665144000,22.42214404296875,-0.007562499959021807,2.0024125576019287,-0.6327750086784363
1779996530682420700,22.439420654296875,0.009487500414252281,1.1741124391555786,-0.691349983215332
1779996530699697200,22.456697265625,0.009487500414252281,-0.4776749908924103,1.2462999820709229
1779996530725611800,22.48261181640625,-0.038087498396635056,-1.9692749977111816,-0.5422999858856201
1779996530742888200,22.49988818359375,-0.028324998915195465,-1.411025047302246,1.0324875116348267
1779996530760164600,22.51716455078125,0.004674999974668026,-0.02681249938905239,0.7416750192642212
1779996530786079200,22.543079345703124,-0.033275000751018524,1.5992624759674072,0.10271249711513519
1779996530803355600,22.560355712890626,-0.052799999713897705,1.6652624607086182,-1.5025999546051025
1779996530820632000,22.577632080078125,0.037675000727176666,1.3292125463485718,-0.957687497138977
1779996530850866000,22.607865966796876,-0.016087500378489494,-1.45131254196167,-0.8086374998092651
1779996530868142300,22.625142333984375,-0.043037500232458115,-1.6296499967575073,-0.822112500667572
1779996530885418800,22.642418701171874,-0.02708750031888485,-1.1349250078201294,1.4491125345230103
1779996530902695200,22.659695068359376,-0.006324999965727329,0.10876250267028809,1.0287749767303467
1779996530919971800,22.676971923828123,-0.03203750029206276,1.1533499956130981,0.41552498936653137
1779996530937248000,22.694248046875,-0.052799999713897705,1.4942125082015991,-1.027400016784668
1779996530954524400,22.7115244140625,-0.035750001668930054,1.1558250188827515,-2.5814249515533447
1779996530971801000,22.728801025390624,0.03519999980926514,0.11371249705553055,2.1564126014709473
1779996530989077200,22.7460771484375,0.0034374999813735485,-1.1129250526428223,-0.09638749808073044
1779996531006354000,22.76335400390625,-0.050324998795986176,-1.7286499738693237,-1.7836500406265259
1779996531023630300,22.78063037109375,-0.01732499897480011,-1.3059749603271484,1.4709750413894653
1779996531049545000,22.806544921875,-0.01251249946653843,0.404387503862381,0.8639125227928162
1779996531066821400,22.8238212890625,-0.02956249937415123,1.2046375274658203,-0.11591249704360962
1779996531084097800,22.841097900390626,-0.057612501084804535,1.2486374378204346,-1.693174958229065
1779996531101374200,22.858374267578125,0.029012499377131462,1.1448249816894531,-0.6168249845504761
1779996531118650600,22.875650634765623,0.008249999955296516,0.03423750028014183,1.709262490272522
1779996531135927000,22.892927001953126,-0.01732499897480011,-1.3132624626159668,-1.4097875356674194
1779996531153203500,22.910203369140625,-0.038087498396635056,-1.3829749822616577,0.11866249889135361
1779996531170480000,22.927480224609376,0.0034374999813735485,-0.6962999701499939,1.159537434577942
1779996531187756500,22.944756591796875,-0.010037500411272049,0.17847499251365662,0.507099986076355
