time,seconds_elapsed,z,y,x
1779996508473618200,0.2306181640625,0.0017874999903142452,0.02419999986886978,-0.010999999940395355
1779996508490894300,0.247894287109375,0.0030249999836087227,0.020487500354647636,-0.00976249948143959
1779996508508170800,0.265170654296875,0.0030249999836087227,0.0009624999947845936,-0.002474999986588955
1779996508525447000,0.282447021484375,0.0017874999903142452,-0.02956249937415123,-0.0037124999798834324
1779996508542723300,0.299723388671875,0.0042624999769032,-0.03451250120997429,-0.002474999986588955
1779996508559999700,0.316999755859375,0.0030249999836087227,-0.028324998915195465,-0.00494999997317791
1779996508577276000,0.33427587890625,0.0017874999903142452,-0.025987500324845314,0.002474999986588955
1779996508594552300,0.35155224609375,0.0017874999903142452,-0.028324998915195465,0
1779996508611828500,0.368828369140625,0.0030249999836087227,-0.02474999986588955,-0.007287499960511923
1779996508629105000,0.38610498046875,0.0030249999836087227,-0.003987499978393316,-0.0085249999538064
1779996508646381000,0.403381103515625,0.0042624999769032,0.014437500387430191,-0.0037124999798834324
1779996508672295700,0.429295654296875,0.0017874999903142452,0.011962499469518661,0
1779996508689571800,0.44657177734375,0.0017874999903142452,-0.0015124999918043613,0.0012374999932944775
1779996508706848300,0.46384814453125,0.0030249999836087227,-0.008799999952316284,0.0012374999932944775
1779996508732762600,0.4897626953125,0.0030249999836087227,-0.016224998980760574,0.006049999967217445
1779996508750039000,0.5070390625,0.0005499999970197678,-0.011274999938905239,-0.010999999940395355
1779996508767315200,0.524315185546875,0.0017874999903142452,-0.016224998980760574,0.007287499960511923
1779996508784591600,0.541591552734375,0.0005499999970197678,-0.025987500324845314,-0.007287499960511923
1779996508801867800,0.55886767578125,0.0042624999769032,-0.02722499892115593,-0.007287499960511923
1779996508819144200,0.576144287109375,0.0005499999970197678,-0.02474999986588955,-0.030524998903274536
1779996508836420400,0.59342041015625,-0.0006874999962747097,-0.02474999986588955,-0.01347499992698431
1779996508853696800,0.61069677734375,0.0017874999903142452,-0.016224998980760574,0.025712499395012856
1779996508870973000,0.627972900390625,0.0017874999903142452,-0.010037500411272049,0.023237500339746475
1779996508888249300,0.645249267578125,0.0017874999903142452,-0.006462499964982271,-0.007287499960511923
1779996508905525800,0.66252587890625,0.0005499999970197678,-0.008799999952316284,-0.02447500079870224
1779996508922802000,0.679802001953125,0.0017874999903142452,-0.0015124999918043613,-0.01223750039935112
1779996508940078300,0.697078369140625,0.0017874999903142452,0.008249999955296516,0.006049999967217445
1779996508957354500,0.7143544921875,0.0030249999836087227,0.021724998950958252,0.015949999913573265
1779996508974631000,0.731630859375,0.0030249999836087227,0.026537500321865082,0.006049999967217445
1779996508991907000,0.748906982421875,0.0017874999903142452,0.01924999989569187,-0.006049999967217445
1779996509009183500,0.76618359375,0.0030249999836087227,0.004537499975413084,-0.007287499960511923
1779996509026460000,0.7834599609375,0.0017874999903142452,0.002199999988079071,0.010999999940395355
1779996509043736000,0.800736083984375,0.0005499999970197678,0.0034374999813735485,-0.0037124999798834324
1779996509061012500,0.818012451171875,-0.0006874999962747097,-0.0015124999918043613,-0.02681249938905239
1779996509078288400,0.835288330078125,0.0005499999970197678,-0.0015124999918043613,-0.028049999848008156
1779996509095564800,0.852564697265625,0.0005499999970197678,0.002199999988079071,-0.007287499960511923
1779996509112841000,0.869841064453125,0.0017874999903142452,0.002199999988079071,0.01952499896287918
1779996509130117400,0.887117431640625,-0.0006874999962747097,0.008249999955296516,0.010999999940395355
1779996509147393800,0.904393798828125,-0.0006874999962747097,0.015537500381469727,-0.006049999967217445
1779996509164670000,0.921669921875,-0.0019249999895691872,0.013199999928474426,-0.010999999940395355
1779996509181946400,0.9389462890625,0.0005499999970197678,-0.0015124999918043613,0.0037124999798834324
1779996509199222500,0.956222412109375,0.0017874999903142452,0.027775000780820847,0.030524998903274536
1779996509216499000,0.9734990234375,0.0005499999970197678,0.05953750014305115,0.007287499960511923
1779996509233775400,0.990775390625,-0.0006874999962747097,0.021724998950958252,-0.002474999986588955
1779996509251051500,1.008051513671875,-0.0019249999895691872,-0.01251249946653843,-0.01347499992698431
1779996509268328000,1.025327880859375,-0.0006874999962747097,-0.04427500069141388,-0.002474999986588955
1779996509285604400,1.042604248046875,0.0017874999903142452,-0.040562499314546585,0.02681249938905239
1779996509302880500,1.059880615234375,0.0005499999970197678,0.002199999988079071,0.020762499421834946
1779996509320157000,1.077156982421875,-0.0006874999962747097,0.021724998950958252,-0.0085249999538064
1779996509337433000,1.09443310546875,-0.0019249999895691872,0.007012499962002039,-0.02681249938905239
1779996509354709500,1.11170947265625,-0.0019249999895691872,-0.013749999925494194,-0.0170499999076128
1779996509371985700,1.128985595703125,-0.0031624999828636646,-0.021037500351667404,-0.0037124999798834324
1779996509389262000,1.146261962890625,-0.004399999976158142,-0.023512499406933784,-0.010999999940395355
1779996509406538500,1.16353857421875,-0.006737499963492155,-0.021037500351667404,-0.02681249938905239
1779996509423814700,1.180814697265625,-0.006737499963492155,-0.008799999952316284,-0.00976249948143959
1779996509441091000,1.198091064453125,-0.004399999976158142,0.009487500414252281,0.0317624993622303
1779996509458367200,1.2153671875,-0.0056374999694526196,0.025437500327825546,0.0317624993622303
1779996509475643600,1.2326435546875,-0.007974999956786633,0.029012499377131462,-0.0037124999798834324
1779996509492919800,1.249919921875,-0.007974999956786633,0.014437500387430191,-0.020762499421834946
1779996509510196200,1.2671962890625,-0.007974999956786633,0.013199999928474426,-0.02447500079870224
1779996509527472400,1.284472412109375,-0.007974999956786633,0.01924999989569187,-0.00976249948143959
1779996509544748800,1.301748779296875,-0.007974999956786633,0.013199999928474426,-0.00494999997317791
1779996509562025000,1.31902490234375,-0.007974999956786633,-0.002749999985098839,0.002474999986588955
1779996509579301400,1.33630126953125,-0.006737499963492155,-0.018562499433755875,-0.006049999967217445
1779996509596577800,1.353577880859375,-0.005499999970197678,-0.011274999938905239,0.00494999997317791
1779996509613854000,1.37085400390625,-0.0019249999895691872,0.014437500387430191,0.05376249924302101
1779996509631130400,1.38813037109375,-0.005499999970197678,0.03519999980926514,0.01347499992698431
1779996509648406500,1.405406494140625,-0.005499999970197678,0.0387750007212162,-0.007287499960511923
1779996509665683000,1.422682861328125,-0.004399999976158142,0.03272499889135361,-0.023237500339746475
1779996509682959400,1.43995947265625,-0.0006874999962747097,0.026537500321865082,-0.0037124999798834324
1779996509700235500,1.457235595703125,0.0005499999970197678,0.02419999986886978,0.03671250119805336
1779996509717511700,1.47451171875,0.0005499999970197678,0.014437500387430191,0.04028749838471413
1779996509734788000,1.4917880859375,-0.0019249999895691872,0.0057749999687075615,0.015812499448657036
1779996509752064500,1.509064453125,0.0005499999970197678,0.018012499436736107,0.01347499992698431
1779996509769340700,1.526340576171875,0.0030249999836087227,0.026537500321865082,0.015812499448657036
1779996509786616800,1.543616943359375,0.005362499970942736,0.01924999989569187,0.035475000739097595
1779996509803893200,1.560893310546875,0.0030249999836087227,0.0057749999687075615,0.01223750039935112
1779996509821169700,1.578169677734375,0.0005499999970197678,-0.006324999965727329,-0.020762499421834946
1779996509838446000,1.595446044921875,-0.0006874999962747097,-0.018562499433755875,-0.030524998903274536
1779996509855722200,1.61272216796875,0.0017874999903142452,-0.01732499897480011,-0.0037124999798834324
1779996509872998400,1.629998291015625,0.0042624999769032,0.002199999988079071,0.03671250119805336
1779996509890274800,1.64727490234375,0.0030249999836087227,0.018012499436736107,0.02928750030696392
1779996509907551000,1.664551025390625,0.0030249999836087227,0.01924999989569187,0.018287500366568565
1779996509924827400,1.681827392578125,0.0030249999836087227,0.029012499377131462,0.01347499992698431
1779996509942103800,1.699103759765625,0.0042624999769032,0.03396249935030937,0.015812499448657036
1779996509959380000,1.7163798828125,0.0030249999836087227,0.01924999989569187,0
1779996509976656400,1.733656494140625,0.0005499999970197678,0.007012499962002039,-0.00494999997317791
1779996509993932800,1.750932861328125,0.0005499999970197678,0.0057749999687075615,-0.002474999986588955
1779996510011208700,1.768208740234375,0.0017874999903142452,0.014437500387430191,-0.0037124999798834324
1779996510028485000,1.785485107421875,0.0017874999903142452,0.0009624999947845936,0.00976249948143959
1779996510045761500,1.802761474609375,-0.0006874999962747097,-0.025987500324845314,0
1779996510063037700,1.82003759765625,-0.0006874999962747097,-0.04179999977350235,0.01347499992698431
1779996510080314000,1.837314208984375,-0.0019249999895691872,-0.03698749840259552,-0.01952499896287918
1779996510097590300,1.85459033203125,-0.0031624999828636646,-0.007562499959021807,-0.02447500079870224
1779996510114866700,1.87186669921875,-0.0006874999962747097,0.01924999989569187,0.0170499999076128
1779996510132143000,1.88914306640625,-0.0006874999962747097,0.04001250118017197,0.02199999988079071
1779996510149419300,1.906419189453125,-0.0019249999895691872,0.03753750026226044,0.0085249999538064
1779996510166695400,1.9236953125,-0.004399999976158142,0.014437500387430191,-0.023237500339746475
1779996510183971800,1.940971923828125,-0.005499999970197678,-0.011274999938905239,-0.04647500067949295
1779996510201248300,1.958248291015625,-0.0019249999895691872,-0.02474999986588955,-0.006049999967217445
1779996510227163000,1.984162841796875,-0.004399999976158142,-0.060087498277425766,-0.020762499421834946
1779996510244439000,2.00143896484375,-0.006737499963492155,-0.09803749620914459,-0.04399999976158142
1779996510261715200,2.018715087890625,-0.0006874999962747097,-0.06379999965429306,0.07452499866485596
1779996510287629800,2.0446298828125,-0.028737500309944153,-0.1260875016450882,0.07452499866485596
1779996510304906000,2.061906005859375,-0.04702499881386757,-0.8970500230789185,-0.7049624919891357
1779996510322182400,2.079182373046875,-0.2853125035762787,-2.601362466812134,0.35186249017715454
1779996510348097000,2.105096923828125,-0.06421250104904175,-3.38566255569458,-0.3091000020503998
1779996510365373000,2.122373046875,-0.060499999672174454,-1.4370124340057373,-0.2516250014305115
1779996510382649600,2.139649658203125,0.0005499999970197678,0.8683124780654907,0.8320124745368958
1779996510399925800,2.15692578125,-0.03973750025033951,2.735150098800659,1.1826374530792236
1779996510417202000,2.174201904296875,-0.08373750001192093,3.079587459564209,-0.5974375009536743
1779996510434478300,2.191478271484375,-0.09968750178813934,1.5305124521255493,-3.375624895095825
1779996510451754800,2.208754638671875,0.04702499881386757,-0.8542875051498413,2.6877124309539795
1779996510469031000,2.226031005859375,0.011549999937415123,-2.7906999588012695,-0.10999999940395355
1779996510486307000,2.24330712890625,-0.06668750196695328,-3.2426624298095703,-2.1025125980377197
1779996510503583700,2.260583740234375,-0.023924998939037323,-1.696062445640564,1.018875002861023
1779996510520860200,2.277860107421875,0.08002500236034393,0.8342124819755554,2.0134124755859375
1779996510538136300,2.29513623046875,-0.05197500064969063,2.572624921798706,1.866837501525879
1779996510564051000,2.321051025390625,-0.16802500188350677,2.1034750938415527,-2.2357499599456787
1779996510581327000,2.3383271484375,-0.09350000321865082,0.7180249691009521,-4.245450019836426
1779996510598603500,2.355603515625,0.03355000168085098,-1.3149124383926392,4.0524001121521
1779996510615879700,2.372879638671875,0.141075000166893,-2.512125015258789,1.0628750324249268
1779996510633156000,2.390156005859375,0.05555000156164169,-2.645362377166748,-0.9407749772071838
1779996510650432300,2.407432373046875,0.012787500396370888,-0.9666249752044678,-0.9480624794960022
1779996510667708700,2.424708740234375,-0.0030249999836087227,0.9831249713897705,-0.1013374999165535
1779996510684984800,2.44198486328125,-0.006737499963492155,2.489574909210205,0.10876250267028809
1779996510702261200,2.45926123046875,-0.020212499424815178,2.4798123836517334,-1.1972124576568604
1779996510719537700,2.47653759765625,0.03726249933242798,1.019837498664856,0.8038250207901001
1779996510736813800,2.493813720703125,-0.018975000828504562,-1.187862515449524,-0.23086249828338623
1779996510754090200,2.51109033203125,-0.048262499272823334,-2.5451250076293945,-0.4544374942779541
1779996510771366400,2.528366455078125,-0.03726249933242798,-2.3777875900268555,0.7904874682426453
1779996510788642800,2.545642822265625,0.023787500336766243,-0.7919999957084656,0.5534374713897705
1779996510805919200,2.562919189453125,0.0030249999836087227,0.9490249752998352,0.9993500113487244
1779996510823195400,2.5801953125,-0.08002500236034393,2.2805750370025635,0.5253875255584717
1779996510840471800,2.597471923828125,-0.08607500046491623,2.218287467956543,-1.4757875204086304
1779996510857748200,2.614748291015625,-0.027499999850988388,1.2299374341964722,-2.746424913406372
1779996510875024400,2.6320244140625,0.05678749829530716,-0.6539499759674072,3.0273375511169434
1779996510892300500,2.649300537109375,0.023787500336766243,-2.260499954223633,-0.4311999976634979
1779996510909577000,2.666576904296875,-0.07150000333786011,-2.452312469482422,-1.9839874505996704
1779996510926853400,2.683853271484375,-0.022549999877810478,-1.1646250486373901,1.1704000234603882
1779996510944129500,2.701129638671875,0.060499999672174454,0.9795500040054321,1.7445999383926392
1779996510961406000,2.718406005859375,-0.029975000768899918,2.1682374477386475,1.2266374826431274
1779996510978682400,2.735682373046875,-0.08373750001192093,2.0484750270843506,-0.9895874857902527
1779996510995958500,2.75295849609375,-0.11783749610185623,0.7057874798774719,-3.727487564086914
1779996511013235000,2.77023486328125,0.022549999877810478,-0.7577624917030334,2.1562750339508057
1779996511030511000,2.787510986328125,0.08249999582767487,-1.5823500156402588,1.264449954032898
1779996511047787500,2.80478759765625,0.022549999877810478,-2.2409749031066895,-1.0909249782562256
1779996511065063700,2.822063720703125,-0.05073750019073486,-1.3026750087738037,-1.5100250244140625
1779996511082340000,2.839340087890625,0.011549999937415123,0.3026374876499176,0.5473874807357788
1779996511108254500,2.86525439453125,-0.0042624999769032,2.171950101852417,0.5619624853134155
1779996511125531100,2.88253125,-0.011687500402331352,1.6368000507354736,-1.4550249576568604
1779996511142807300,2.899807373046875,0.022549999877810478,0.4273499846458435,0.5302000045776367
1779996511160083700,2.917083740234375,-0.006737499963492155,-1.0998624563217163,0.3983374834060669
1779996511177360100,2.934360107421875,-0.048262499272823334,-2.1334500312805176,-1.307212471961975
1779996511194636300,2.95163623046875,-0.018975000828504562,-1.7863999605178833,1.1336874961853027
1779996511211912700,2.96891259765625,0.045787498354911804,-0.29589998722076416,0.8405374884605408
1779996511229188900,2.98618896484375,0.009212499484419823,1.0345499515533447,0.6975374817848206
1779996511246465300,3.00346533203125,-0.04097500070929527,1.8016624450683594,-0.3359124958515167
1779996511272379600,3.029379638671875,0.0017874999903142452,1.294700026512146,-1.9571750164031982
1779996511289656000,3.046656005859375,0.04455000162124634,-0.043037500232458115,2.33956241607666
1779996511306932500,3.063932373046875,-0.012787500396370888,-1.5200624465942383,-0.8967750072479248
1779996511332846800,3.089846923828125,-0.027499999850988388,-1.8561124801635742,0.9933000206947327
1779996511350123300,3.107123291015625,0.07383749634027481,-0.3656125068664551,1.1741124391555786
1779996511367399400,3.1243994140625,0.012787500396370888,0.8047875165939331,0.808775007724762
1779996511393313800,3.150313720703125,-0.060499999672174454,1.4412750005722046,-1.1521124839782715
1779996511410590200,3.167590087890625,-0.02502499893307686,1.145650029182434,-2.4433748722076416
1779996511427866400,3.184866455078125,0.03973750025033951,0.07906249910593033,2.3115124702453613
1779996511453781000,3.210781005859375,-0.023787500336766243,-1.6753000020980835,-1.635837435722351
1779996511471057400,3.228057373046875,-0.04702499881386757,-1.5615874528884888,0.24062499403953552
1779996511488333600,3.24533349609375,0.017737500369548798,-0.5634750127792358,1.280400037765503
1779996511514248400,3.27124853515625,0.0005499999970197678,1.0223125219345093,0.3433375060558319
1779996511531524600,3.288524658203125,-0.04702499881386757,1.311887502670288,-1.0005874633789062
1779996511548801000,3.305801025390625,-0.016499999910593033,1.1175999641418457,-2.1269874572753906
1779996511566077400,3.323077392578125,0.03478749841451645,0.22206249833106995,2.027987480163574
1779996511583353600,3.340353515625,-0.006737499963492155,-0.926337480545044,-0.4544374942779541
1779996511600630000,3.357630126953125,-0.031212499365210533,-1.2904374599456787,-1.123924970626831
1779996511626544400,3.38354443359375,0.03231250122189522,-0.6917625069618225,0.935824990272522
1779996511643820800,3.40082080078125,0.0030249999836087227,0.2073500007390976,0.29686251282691956
1779996511661097000,3.418096923828125,-0.012924999929964542,0.989312469959259,-0.49472498893737793
1779996511687011600,3.444011474609375,0.026262499392032623,1.3534125089645386,-0.6084374785423279
1779996511704287700,3.461287841796875,0.018837500363588333,0.5678749680519104,1.2351624965667725
1779996511721564400,3.478564453125,-0.028737500309944153,-0.7137625217437744,-1.2827374935150146
1779996511747478800,3.504478759765625,-0.010449999943375587,-1.2159124612808228,0.9553499817848206
1779996511764755200,3.521755126953125,-0.0042624999769032,-0.8481000065803528,-0.29438748955726624
1779996511782031400,3.53903125,-0.016499999910593033,0.09872499853372574,-0.4996750056743622
1779996511807946000,3.564946044921875,0.015262499451637268,1.286175012588501,0.4081000089645386
1779996511825222400,3.582222412109375,0.009074999950826168,1.2177000045776367,-0.38733750581741333
1779996511842498600,3.59949853515625,0.011549999937415123,0.4969249963760376,0.3371500074863434
1779996511868413200,3.6254130859375,-0.020212499424815178,-1.0203875303268433,-0.3713875114917755
1779996511885689300,3.642689453125,-0.012924999929964542,-1.3112000226974487,0.29686251282691956
1779996511902965800,3.6599658203125,-0.009212499484419823,-0.9202874898910522,-0.17352500557899475
1779996511928880400,3.68588037109375,0.009074999950826168,0.5531625151634216,0.1625249981880188
1779996511946156500,3.703156494140625,0.012787500396370888,1.2396999597549438,-0.0147124994546175
1779996511963433000,3.720432861328125,0.014024999924004078,1.2141250371932983,-0.047712501138448715
1779996511997985500,3.754985595703125,-0.010449999943375587,-0.5549499988555908,-0.17104999721050262
1779996512015262000,3.772261962890625,-0.012924999929964542,-1.226912498474121,0.11604999750852585
1779996512032538400,3.789538330078125,-0.014162499457597733,-1.1877249479293823,-0.1307625025510788
1779996512049814500,3.806814453125,-0.0042624999769032,-0.44618749618530273,0.04399999976158142
1779996512067091000,3.824091064453125,0.005499999970197678,0.5091624855995178,0.08676250278949738
1779996512084367400,3.841367431640625,0.012787500396370888,1.1726000308990479,-0.12099999934434891
1779996512110281700,3.86728173828125,0.010312499478459358,0.92826247215271,0.12828749418258667
1779996512127558400,3.884558349609375,-0.0030249999836087227,-0.016224998980760574,-0.11604999750852585
1779996512144834300,3.901834228515625,-0.011549999937415123,-0.9250999689102173,0.07947500050067902
1779996512162111000,3.919111083984375,-0.016499999910593033,-1.2647249698638916,-0.11123749613761902
1779996512179387100,3.93638720703125,-0.009212499484419823,-0.8738124966621399,0.035475000739097595
1779996512205301800,3.9623017578125,0.006737499963492155,0.4676375091075897,-0.00976249948143959
1779996512222578000,3.979577880859375,0.012787500396370888,1.1444125175476074,-0.04881250113248825
1779996512239854300,3.996854248046875,0.014024999924004078,1.1761749982833862,0.10381250083446503
1779996512265768700,4.022768798828125,-0.0006874999962747097,0.021724998950958252,-0.03423750028014183
1779996512283045400,4.04004541015625,-0.011549999937415123,-0.8835750222206116,0.02199999988079071
1779996512300321500,4.057321533203125,-0.016499999910593033,-1.2329624891281128,-0.08552499860525131
1779996512326236200,4.083236083984375,-0.0042624999769032,-0.47437500953674316,0.032999999821186066
1779996512343512300,4.10051220703125,0.005499999970197678,0.4358749985694885,-0.01347499992698431
1779996512360788700,4.117788818359375,0.014024999924004078,1.106600046157837,-0.0037124999798834324
1779996512386703000,4.143703125,0.010312499478459358,0.9135500192642212,0.02199999988079071
1779996512403979500,4.1609794921875,-0.0006874999962747097,0.04124999791383743,-0.006049999967217445
1779996512421256000,4.178255859375,-0.011549999937415123,-0.8530499935150146,-0.0147124994546175
1779996512438532000,4.195531982421875,-0.015262499451637268,-1.201200008392334,-0.04399999976158142
1779996512455808500,4.21280859375,-0.010449999943375587,-0.8640499711036682,0.010999999940395355
1779996512473085000,4.2300849609375,0.0005499999970197678,-0.04675000160932541,0.01347499992698431
1779996512490361300,4.247361328125,0.010312499478459358,0.7877374887466431,-0.002474999986588955
1779996512507637500,4.264637451171875,0.014024999924004078,1.1761749982833862,0.01347499992698431
1779996512524914000,4.281913818359375,0.011549999937415123,0.9037874937057495,0.04152499884366989
1779996512542190300,4.2991904296875,-0.0006874999962747097,0.06324999779462814,-0.01952499896287918
1779996512559466500,4.316466552734375,-0.011687500402331352,-0.8115249872207642,-0.007287499960511923
1779996512576743000,4.333742919921875,-0.015262499451637268,-1.1682000160217285,-0.042762499302625656
1779996512594019300,4.351019287109375,-0.009212499484419823,-0.855525016784668,0.0012374999932944775
1779996512611295500,4.36829541015625,-0.0006874999962747097,-0.06132499873638153,0.018287500366568565
1779996512628572200,4.385572265625,0.009074999950826168,0.7547374963760376,-0.006049999967217445
1779996512645848600,4.4028486328125,0.012787500396370888,1.145650029182434,0.018287500366568565
1779996512671763000,4.428762939453125,0.005499999970197678,0.5152124762535095,0
1779996512689039400,4.446039306640625,-0.006737499963492155,-0.37537500262260437,-0.006049999967217445
1779996512706315500,4.4633154296875,-0.012924999929964542,-1.0338624715805054,-0.028049999848008156
1779996512723592000,4.480592041015625,-0.014024999924004078,-1.0693374872207642,-0.025712499395012856
1779996512740868000,4.4978681640625,-0.005499999970197678,-0.4987125098705292,0.01347499992698431
1779996512758144500,4.51514453125,0.005499999970197678,0.346637487411499,0.006049999967217445
1779996512775421000,4.5324208984375,0.012787500396370888,0.9953625202178955,-0.006049999967217445
1779996512792697300,4.549697265625,0.014024999924004078,1.0773124694824219,0.042762499302625656
1779996512809973500,4.566973388671875,0.006737499963492155,0.5201625227928162,0.002474999986588955
1779996512827250000,4.58425,-0.0042624999769032,-0.35089999437332153,-0.006049999967217445
1779996512853164500,4.61016455078125,-0.014024999924004078,-1.1083874702453613,-0.04028749838471413
1779996512870440700,4.627440673828125,-0.011687500402331352,-0.8395749926567078,0.002474999986588955
1779996512887717000,4.644717041015625,-0.0019249999895691872,-0.09556250274181366,0.0085249999538064
1779996512913631700,4.6706318359375,0.011549999937415123,0.9660750031471252,-0.002474999986588955
1779996512930908200,4.687908203125,0.012787500396370888,1.0588874816894531,0.035475000739097595
1779996512948184600,4.7051845703125,0.0042624999769032,0.5238749980926514,0.00976249948143959
1779996512965460700,4.722460693359375,-0.005499999970197678,-0.328900009393692,-0.00976249948143959
1779996512982737200,4.739737060546875,-0.012924999929964542,-0.9715750217437744,-0.025712499395012856
1779996513000013300,4.757013427734375,-0.011687500402331352,-1.031387448310852,-0.02199999988079071
1779996513017290000,4.7742900390625,-0.0042624999769032,-0.5024250149726868,0.007287499960511923
1779996513034566100,4.791566162109375,0.0030249999836087227,0.29906249046325684,0.00976249948143959
1779996513051842600,4.808842529296875,0.010312499478459358,0.9257875084877014,-0.0012374999932944775
1779996513077757000,4.8347568359375,0.009212499484419823,0.8525000214576721,0.032999999821186066
1779996513095033300,4.852033447265625,0.0005499999970197678,0.13048750162124634,-0.007287499960511923
1779996513112309800,4.869309814453125,-0.009212499484419823,-0.6734749674797058,-0.010999999940395355
1779996513138224000,4.89522412109375,-0.012787500396370888,-1.0106250047683716,-0.025712499395012856
1779996513155500800,4.912500732421875,-0.0042624999769032,-0.5084750056266785,0.006049999967217445
1779996513172776700,4.929776611328125,0.0042624999769032,0.27582499384880066,0.0085249999538064
1779996513190053400,4.947053466796875,0.011549999937415123,0.897599995136261,0.0012374999932944775
1779996513207329800,4.964329833984375,0.012787500396370888,1.0100749731063843,0.02928750030696392
1779996513233244200,4.990244140625,0.0005499999970197678,0.1438249945640564,-0.007287499960511923
1779996513250520600,5.0075205078125,-0.009212499484419823,-0.6392375230789185,-0.01347499992698431
1779996513267797000,5.024796875,-0.012787500396370888,-1.0168124437332153,-0.02928750030696392
1779996513293711600,5.050711669921875,-0.005499999970197678,-0.5084750056266785,0.0037124999798834324
1779996513310987800,5.06798779296875,0.0030249999836087227,0.25011250376701355,0.0085249999538064
1779996513328264200,5.08526416015625,0.010449999943375587,0.862262487411499,0.002474999986588955
1779996513345540600,5.10254052734375,0.010449999943375587,0.9855999946594238,0.02928750030696392
1779996513362816800,5.119816650390625,0.0042624999769032,0.5299249887466431,0.01223750039935112
1779996513380093400,5.137093505859375,-0.005499999970197678,-0.24832500517368317,-0.00976249948143959
1779996513397369600,5.15436962890625,-0.011549999937415123,-0.8652874827384949,-0.01952499896287918
1779996513414646000,5.17164599609375,-0.010449999943375587,-0.964287519454956,-0.02199999988079071
1779996513431922400,5.18892236328125,-0.0042624999769032,-0.5134249925613403,0.0037124999798834324
1779996513449198600,5.206198486328125,0.0030249999836087227,0.22206249833106995,0.007287499960511923
1779996513466475000,5.22347509765625,0.009212499484419823,0.8255500197410583,0.00494999997317791
1779996513483751200,5.240751220703125,0.010449999943375587,0.9611250162124634,0.023237500339746475
1779996513509666000,5.266666015625,0.0017874999903142452,0.179299995303154,-0.0012374999932944775
1779996513526942200,5.283942138671875,-0.006737499963492155,-0.5647125244140625,-0.01223750039935112
1779996513544218600,5.301218505859375,-0.011549999937415123,-0.9532874822616577,-0.02681249938905239
1779996513570133000,5.327133056640625,-0.005499999970197678,-0.5219500064849854,0.0012374999932944775
1779996513587409400,5.344409423828125,0.0030249999836087227,0.19277499616146088,0.007287499960511923
1779996513604685800,5.361685791015625,0.009074999950826168,0.7937874794006348,0.006049999967217445
1779996513621962200,5.378962158203125,0.010312499478459358,0.94159996509552,0.02681249938905239
1779996513639238700,5.39623876953125,0.005499999970197678,0.5421624779701233,0.01347499992698431
1779996513665153000,5.422153076171875,-0.007974999956786633,-0.5389999747276306,-0.01223750039935112
1779996513682429400,5.439429443359375,-0.011687500402331352,-0.9250999689102173,-0.02681249938905239
1779996513699705600,5.45670556640625,-0.009212499484419823,-0.7760499715805054,-0.0085249999538064
1779996513725620200,5.4826201171875,0.0017874999903142452,0.1755875051021576,0.006049999967217445
1779996513742896600,5.499896728515625,0.007974999956786633,0.762024998664856,0.006049999967217445
1779996513760172800,5.5171728515625,0.009074999950826168,0.9147874712944031,0.02199999988079071
1779996513786087400,5.54308740234375,0.0017874999903142452,0.20377500355243683,0.002474999986588955
1779996513803364000,5.560364013671875,-0.006737499963492155,-0.5084750056266785,-0.01347499992698431
1779996513820640300,5.57764013671875,-0.011687500402331352,-0.899524986743927,-0.025712499395012856
1779996513837916700,5.594916748046875,-0.009212499484419823,-0.7675250172615051,-0.0085249999538064
1779996513855192800,5.61219287109375,-0.0017874999903142452,-0.1993750035762787,0.0037124999798834324
1779996513872469200,5.62946923828125,0.006737499963492155,0.4811125099658966,0.0085249999538064
1779996513889745700,5.64674560546875,0.010312499478459358,0.8842625021934509,0.01223750039935112
1779996513907021800,5.664021728515625,0.009074999950826168,0.779212474822998,0.023237500339746475
1779996513924298200,5.68129833984375,0.0005499999970197678,0.21353749930858612,0
1779996513941574700,5.69857470703125,-0.006737499963492155,-0.48413750529289246,-0.010999999940395355
1779996513967489300,5.7244892578125,-0.011687500402331352,-0.8860499858856201,-0.01952499896287918
1779996513984765700,5.741765625,-0.005499999970197678,-0.519474983215332,-0.0012374999932944775
1779996514002041900,5.759041748046875,0.0017874999903142452,0.1377750039100647,0.00494999997317791
1779996514027956500,5.78495654296875,0.010312499478459358,0.8548374772071838,0.010999999940395355
1779996514045233000,5.80223291015625,0.007974999956786633,0.7657374739646912,0.02199999988079071
1779996514062509300,5.81950927734375,0.0030249999836087227,0.22206249833106995,0.002474999986588955
1779996514079785700,5.83678564453125,-0.005499999970197678,-0.4571875035762787,-0.010999999940395355
1779996514097062000,5.854061767578125,-0.010449999943375587,-0.8493375182151794,-0.02199999988079071
1779996514114338300,5.87133837890625,-0.009212499484419823,-0.7467625141143799,-0.010999999940395355
1779996514131615000,5.888614990234375,-0.0031624999828636646,-0.22261250019073486,0.0012374999932944775
1779996514148891100,5.90589111328125,0.0042624999769032,0.43092501163482666,0.007287499960511923
1779996514166167600,5.92316748046875,0.010312499478459358,0.8340749740600586,0.010999999940395355
1779996514183444000,5.94044384765625,0.009074999950826168,0.762024998664856,0.02199999988079071
1779996514200720100,5.95772021484375,0.0017874999903142452,0.23430000245571136,0.0037124999798834324
1779996514217996800,5.974996826171875,-0.005499999970197678,-0.43642500042915344,-0.01223750039935112
1779996514235273000,5.99227294921875,-0.010449999943375587,-0.8322874903678894,-0.020762499421834946
1779996514252549400,6.00954931640625,-0.007974999956786633,-0.7418124675750732,-0.00976249948143959
1779996514269825800,6.02682568359375,-0.0019249999895691872,-0.23237499594688416,0.002474999986588955
1779996514287102000,6.04410205078125,0.005499999970197678,0.40892499685287476,0.007287499960511923
1779996514313016600,6.0700166015625,0.009074999950826168,0.8427374958992004,0.015812499448657036
1779996514330293000,6.08729296875,0.005499999970197678,0.5469750165939331,0.01347499992698431
1779996514347569400,6.1045693359375,-0.0042624999769032,-0.08579999953508377,-0.00494999997317791
1779996514373483800,6.13048388671875,-0.012924999929964542,-0.7992874979972839,-0.023237500339746475
1779996514390760200,6.14776025390625,-0.010449999943375587,-0.7260000109672546,-0.010999999940395355
1779996514408036900,6.165036865234375,-0.0031624999828636646,-0.23856249451637268,-0.002474999986588955
1779996514425313000,6.18231298828125,0.0042624999769032,0.38087499141693115,0.0085249999538064
1779996514442589400,6.19958935546875,0.009074999950826168,0.7815499901771545,0.00976249948143959
1779996514459865900,6.216865966796875,0.007837500423192978,0.7339749932289124,0.01952499896287918
1779996514477142000,6.23414208984375,0.0017874999903142452,0.2525874972343445,0.006049999967217445
1779996514494418700,6.251418701171875,-0.0042624999769032,-0.38266250491142273,-0.010999999940395355
1779996514511694800,6.26869482421875,-0.009212499484419823,-0.7735750079154968,-0.018287500366568565
1779996514528971300,6.28597119140625,-0.006737499963492155,-0.7149999737739563,-0.00976249948143959
1779996514546247700,6.30324755859375,-0.0019249999895691872,-0.2531374990940094,0.0012374999932944775
1779996514563523800,6.32052392578125,0.005499999970197678,0.3503499925136566,0.007287499960511923
1779996514580800500,6.337800537109375,0.007974999956786633,0.7522624731063843,0.00976249948143959
1779996514598076700,6.35507666015625,0.007974999956786633,0.7242124676704407,0.01952499896287918
1779996514615353000,6.37235302734375,0.0017874999903142452,0.267300009727478,0.00494999997317791
1779996514632629500,6.38962939453125,-0.005499999970197678,-0.3521375060081482,-0.00976249948143959
1779996514649905700,6.40690576171875,-0.009212499484419823,-0.7480000257492065,-0.01952499896287918
1779996514667182000,6.42418212890625,-0.007974999956786633,-0.7077124714851379,-0.01223750039935112
1779996514693096700,6.4500966796875,0.0005499999970197678,0.03272499889135361,0.00494999997317791
1779996514710373000,6.467373046875,0.005499999970197678,0.5714499950408936,0.006049999967217445
1779996514727649500,6.4846494140625,0.007974999956786633,0.7840250134468079,0.01347499992698431
1779996514753564200,6.510564208984375,0.0042624999769032,0.2868250012397766,0.006049999967217445
1779996514770840600,6.527840576171875,-0.0030249999836087227,-0.32532501220703125,-0.007287499960511923
1779996514788116700,6.54511669921875,-0.009212499484419823,-0.7284749746322632,-0.01952499896287918
1779996514814031400,6.57103125,-0.006737499963492155,-0.5354250073432922,-0.006049999967217445
1779996514831307800,6.588307861328125,0.0005499999970197678,0.015537500381469727,0.002474999986588955
1779996514848584200,6.605584228515625,0.006737499963492155,0.5494499802589417,0.0085249999538064
1779996514865860400,6.6228603515625,0.007974999956786633,0.7669749855995178,0.0147124994546175
1779996514883136800,6.64013671875,0.005499999970197678,0.5458750128746033,0.01347499992698431
1779996514900413200,6.6574130859375,-0.0006874999962747097,-0.0015124999918043613,-0.0012374999932944775
1779996514926327600,6.68332763671875,-0.007974999956786633,-0.7015249729156494,-0.0170499999076128
1779996514943604000,6.70060400390625,-0.007974999956786633,-0.694237470626831,-0.010999999940395355
1779996514960880400,6.71788037109375,-0.0042624999769032,-0.2946625053882599,-0.002474999986588955
1779996514978156800,6.73515673828125,0.0017874999903142452,0.27211248874664307,0.0085249999538064
1779996514995433200,6.75243310546875,0.007974999956786633,0.682687520980835,0.0085249999538064
1779996515012709600,6.769709716796875,0.009212499484419823,0.6997374892234802,0.0170499999076128
1779996515029986000,6.786986083984375,0.0030249999836087227,0.30758750438690186,0.0085249999538064
1779996515047262200,6.80426220703125,-0.0030249999836087227,-0.27390000224113464,-0.00976249948143959
1779996515064538600,6.82153857421875,-0.006737499963492155,-0.677049994468689,-0.015949999913573265
1779996515081815000,6.83881494140625,-0.007974999956786633,-0.6819999814033508,-0.01223750039935112
1779996515099091200,6.85609130859375,-0.0042624999769032,-0.3020874857902527,-0.0037124999798834324
1779996515116368000,6.873367919921875,0.0017874999903142452,0.25011250376701355,0.00494999997317791
1779996515133644300,6.890644287109375,0.007837500423192978,0.6619250178337097,0.00976249948143959
1779996515150920400,6.90792041015625,0.007837500423192978,0.6949250102043152,0.0170499999076128
1779996515168196900,6.92519677734375,0.0042624999769032,0.3185875117778778,0.00976249948143959
1779996515185473300,6.942473388671875,-0.0042624999769032,-0.256850004196167,-0.006049999967217445
1779996515211388000,6.968387939453125,-0.010449999943375587,-0.733287513256073,-0.0170499999076128
1779996515228664000,6.9856640625,-0.006737499963492155,-0.5389999747276306,-0.006049999967217445
1779996515245940700,7.002940673828125,-0.0006874999962747097,-0.038224998861551285,0.002474999986588955
1779996515271855000,7.028855224609375,0.005499999970197678,0.6459749937057495,0.00976249948143959
1779996515289131500,7.046131591796875,0.007837500423192978,0.6862624883651733,0.0147124994546175
1779996515306408000,7.063407958984375,0.0030249999836087227,0.33082500100135803,0.007287499960511923
1779996515323684000,7.08068408203125,-0.0019249999895691872,-0.22990000247955322,-0.007287499960511923
1779996515340960800,7.097960693359375,-0.007974999956786633,-0.6452875137329102,-0.0170499999076128
1779996515358237000,7.11523681640625,-0.007974999956786633,-0.6722375154495239,-0.010999999940395355
1779996515375513300,7.132513427734375,-0.0031624999828636646,-0.31913748383522034,-0.002474999986588955
1779996515392790000,7.1497900390625,0.0030249999836087227,0.21230000257492065,0.0085249999538064
1779996515410066000,7.16706591796875,0.006737499963492155,0.6191624999046326,0.010999999940395355
1779996515427342600,7.184342529296875,0.006737499963492155,0.6716874837875366,0.015812499448657036
1779996515444618800,7.20161865234375,0.0030249999836087227,0.3343999981880188,0.0085249999538064
1779996515470533400,7.227533447265625,-0.005499999970197678,-0.4499000012874603,-0.01223750039935112
1779996515487809800,7.244809814453125,-0.007974999956786633,-0.694237470626831,-0.0147124994546175
1779996515505086200,7.262086181640625,-0.005499999970197678,-0.5366625189781189,-0.0085249999538064
1779996515522362600,7.279362548828125,-0.0006874999962747097,-0.07232499867677689,0.0012374999932944775
1779996515539639000,7.29663916015625,0.0042624999769032,0.43092501163482666,0.006049999967217445
1779996515556915500,7.31391552734375,0.007837500423192978,0.6862624883651733,0.01223750039935112
1779996515574191600,7.331191650390625,0.006737499963492155,0.54339998960495,0.01347499992698431
1779996515591468000,7.348468017578125,0.0005499999970197678,0.08153750002384186,0.0012374999932944775
1779996515608744400,7.365744384765625,-0.006737499963492155,-0.431612491607666,-0.010999999940395355
1779996515626020600,7.3830205078125,-0.009212499484419823,-0.6819999814033508,-0.015949999913573265
1779996515643297000,7.400297119140625,-0.006737499963492155,-0.5366625189781189,-0.007287499960511923
1779996515660573400,7.417573486328125,-0.0006874999962747097,-0.08332499861717224,0
1779996515686488000,7.443488037109375,0.006737499963492155,0.5849249958992004,0.00976249948143959
1779996515703764500,7.460764404296875,0.006737499963492155,0.652162492275238,0.01347499992698431
1779996515721041000,7.478041015625,0.0030249999836087227,0.3441624939441681,0.006049999967217445
1779996515738317300,7.4953173828125,-0.0030249999836087227,-0.17503750324249268,-0.007287499960511923
1779996515755593500,7.512593505859375,-0.007974999956786633,-0.5794249773025513,-0.0170499999076128
1779996515772870000,7.529869873046875,-0.009212499484419823,-0.6380000114440918,-0.01223750039935112
1779996515790146600,7.547146484375,-0.0042624999769032,-0.33137500286102295,-0.00494999997317791
1779996515807423000,7.564423095703125,0.0030249999836087227,0.16458749771118164,0.006049999967217445
1779996515833337300,7.59033740234375,0.007974999956786633,0.6484500169754028,0.01347499992698431
1779996515850613800,7.60761376953125,0.005499999970197678,0.5262125134468079,0.01347499992698431
1779996515867890200,7.62489013671875,-0.0006874999962747097,0.09377499669790268,0.0012374999932944775
1779996515893804500,7.650804443359375,-0.007974999956786633,-0.5609999895095825,-0.015949999913573265
1779996515911081000,7.6680810546875,-0.006737499963492155,-0.6221874952316284,-0.010999999940395355
1779996515928357400,7.685357421875,-0.0042624999769032,-0.32766249775886536,-0.002474999986588955
1779996515945633800,7.7026337890625,0.0030249999836087227,0.15248750150203705,0.0037124999798834324
1779996515962910200,7.71991015625,0.006737499963492155,0.5421624779701233,0.00976249948143959
1779996515980186600,7.7371865234375,0.007974999956786633,0.6215000152587891,0.015949999913573265
1779996516006101000,7.76310107421875,0.0005499999970197678,0.10106249898672104,0.002474999986588955
1779996516023377700,7.780377685546875,-0.0042624999769032,-0.37537500262260437,-0.010999999940395355
1779996516040653800,7.79765380859375,-0.006737499963492155,-0.6234250068664551,-0.015949999913573265
1779996516057930200,7.81493017578125,-0.005499999970197678,-0.510949969291687,-0.007287499960511923
1779996516075206700,7.83220654296875,-0.0016499999910593033,-0.10779999941587448,-0.0013749999925494194
1779996516092483000,7.849483154296875,0.0032999999821186066,0.35516250133514404,0.007287499960511923
1779996516109759500,7.866759521484375,0.0057749999687075615,0.6154500246047974,0.010862499475479126
1779996516127035600,7.88403564453125,0.004537499975413084,0.5189250111579895,0.013337500393390656
1779996516144312000,7.90131201171875,-0.0004124999977648258,0.11687500029802322,0.0035749999806284904
1779996516161588500,7.91858837890625,-0.005224999971687794,-0.3583250045776367,-0.00989999994635582
1779996516187503000,7.944503173828125,-0.005224999971687794,-0.6074749827384949,-0.011137500405311584
1779996516204779500,7.961779541015625,-0.005224999971687794,-0.34113749861717224,-0.00494999997317791
1779996516222056000,7.979055908203125,0.002062499988824129,0.11577499657869339,0.004812499973922968
1779996516247970600,8.004970458984374,0.006874999962747097,0.6007375121116638,0.009624999947845936
1779996516265247000,8.0222470703125,0.0057749999687075615,0.5189250111579895,0.01209999993443489
1779996516282523100,8.039523193359376,0.0008249999955296516,0.13529999554157257,0.0010999999940395355
1779996516299799600,8.056799560546875,-0.004124999977648258,-0.3326124846935272,-0.008662499487400055
1779996516317076000,8.074075927734375,-0.006462499964982271,-0.5904250144958496,-0.01718750037252903
1779996516334352400,8.091352294921874,-0.005224999971687794,-0.5086125135421753,-0.006187499966472387
1779996516351628800,8.10862890625,-0.0004124999977648258,-0.13474999368190765,-0.0013749999925494194
1779996516368905200,8.1259052734375,0.0032999999821186066,0.3111625015735626,0.007287499960511923
1779996516386181400,8.143181396484374,0.0057749999687075615,0.5750250220298767,0.009624999947845936
1779996516403458000,8.1604580078125,0.006874999962747097,0.5091624855995178,0.01209999993443489
1779996516420734200,8.177734130859376,0.002062499988824129,0.14506250619888306,0.004812499973922968
1779996516446648800,8.20364892578125,-0.006462499964982271,-0.4768500030040741,-0.011137500405311584
1779996516463925200,8.22092529296875,-0.007699999958276749,-0.5856124758720398,-0.00989999994635582
1779996516481201700,8.23820166015625,-0.004124999977648258,-0.3521375060081482,-0.006187499966472387
1779996516507116000,8.264115966796876,0.0057749999687075615,0.29411250352859497,0.008387500420212746
1779996516524392400,8.281392333984375,0.008112499490380287,0.5640249848365784,0.009624999947845936
1779996516541668900,8.2986689453125,0.004537499975413084,0.5066875219345093,0.01209999993443489
1779996516567583500,8.32458349609375,-0.0006874999962747097,-0.07232499867677689,-0.0037124999798834324
1779996516584859600,8.341859619140624,-0.005499999970197678,-0.4571875035762787,-0.01223750039935112
1779996516602136300,8.35913623046875,-0.006737499963492155,-0.5659499764442444,-0.010999999940395355
1779996516619412500,8.37641259765625,-0.0042624999769032,-0.34966251254081726,-0.0037124999798834324
1779996516636689000,8.39368896484375,0.0005499999970197678,0.0644875019788742,0.002474999986588955
1779996516653965300,8.41096533203125,0.005499999970197678,0.43834999203681946,0.0085249999538064
1779996516671241700,8.42824169921875,0.007837500423192978,0.5641624927520752,0.01223750039935112
1779996516688518100,8.44551806640625,0.005499999970197678,0.35887500643730164,0.00976249948143959
1779996516705794300,8.462794189453126,-0.0019249999895691872,-0.060087498277425766,0
1779996516723070700,8.48007080078125,-0.006737499963492155,-0.4413749873638153,-0.01347499992698431
1779996516740347100,8.49734716796875,-0.007974999956786633,-0.5561875104904175,-0.010999999940395355
1779996516766261800,8.52326171875,-0.0006874999962747097,-0.1578499972820282,-0.002474999986588955
1779996516783538200,8.5405380859375,0.0042624999769032,0.26358750462532043,0.00494999997317791
1779996516800814600,8.557814697265625,0.005499999970197678,0.5286874771118164,0.00976249948143959
1779996516826729200,8.583729248046875,0.0030249999836087227,0.35516250133514404,0.007287499960511923
1779996516844005600,8.601005615234374,-0.0006874999962747097,-0.050324998795986176,-0.0012374999932944775
1779996516861282000,8.618281982421875,-0.005499999970197678,-0.42294999957084656,-0.010999999940395355
1779996516887196400,8.644196533203125,-0.006737499963492155,-0.48413750529289246,-0.007287499960511923
1779996516904472800,8.661472900390624,-0.0031624999828636646,-0.16637499630451202,-0.002474999986588955
1779996516921749200,8.678749267578125,0.0030249999836087227,0.24529999494552612,0.00494999997317791
1779996516947664000,8.704663818359375,0.006737499963492155,0.5458750128746033,0.01223750039935112
1779996516964940300,8.721940185546876,0.0030249999836087227,0.36134999990463257,0.00976249948143959
1779996516982216700,8.739216796875,-0.0019249999895691872,-0.038224998861551285,-0.0037124999798834324
1779996517008131000,8.765131103515625,-0.005499999970197678,-0.5134249925613403,-0.010999999940395355
1779996517025407700,8.78240771484375,-0.005499999970197678,-0.4828999936580658,-0.0085249999538064
1779996517042684000,8.799683837890624,-0.0031624999828636646,-0.17737500369548798,0
1779996517068598500,8.8255986328125,0.0042624999769032,0.3918749988079071,0.006049999967217445
1779996517085875000,8.842875,0.005499999970197678,0.5324000120162964,0.010999999940395355
1779996517103151400,8.8601513671875,0.0042624999769032,0.3638249933719635,0.0085249999538064
1779996517129066000,8.88606591796875,-0.0030249999836087227,-0.2250874936580658,-0.00494999997317791
1779996517146342400,8.90334228515625,-0.005499999970197678,-0.4974749982357025,-0.015812499448657036
1779996517163618600,8.92061865234375,-0.005499999970197678,-0.4791874885559082,-0.00976249948143959
1779996517180895200,8.937895263671875,-0.0017874999903142452,-0.1835625022649765,-0.0012374999932944775
1779996517206809600,8.9638095703125,0.0042624999769032,0.3796375095844269,0.007287499960511923
1779996517224086000,8.9810859375,0.005499999970197678,0.5201625227928162,0.01223750039935112
1779996517241362700,8.99836279296875,0.005499999970197678,0.3601124882698059,0.007287499960511923
1779996517258638800,9.015638916015625,0.0005499999970197678,-0.01251249946653843,0.0012374999932944775
1779996517284553500,9.041553466796875,-0.006737499963492155,-0.48537498712539673,-0.01223750039935112
1779996517301830000,9.058829833984374,-0.005499999970197678,-0.4731374979019165,-0.0085249999538064
1779996517319106300,9.076106201171875,-0.0017874999903142452,-0.1896124929189682,-0.00494999997317791
1779996517345020700,9.102020751953125,0.005499999970197678,0.36616250872612,0.0085249999538064
1779996517362297000,9.119297119140626,0.005499999970197678,0.5128750205039978,0.010999999940395355
1779996517379573500,9.136573486328125,0.0030249999836087227,0.36134999990463257,0.007287499960511923
1779996517396850000,9.153849853515625,-0.0017874999903142452,-0.002749999985098839,-0.0012374999932944775
1779996517414126000,9.1711259765625,-0.0042624999769032,-0.3619000017642975,-0.00976249948143959
1779996517431402500,9.188402587890625,-0.005499999970197678,-0.5011875033378601,-0.00976249948143959
1779996517448679200,9.20567919921875,-0.0042624999769032,-0.3521375060081482,-0.00494999997317791
1779996517465955300,9.222955322265625,0.0005499999970197678,-0.003987499978393316,0.002474999986588955
1779996517483231700,9.240231689453125,0.0042624999769032,0.34306249022483826,0.006049999967217445
1779996517500508200,9.257508056640624,0.0042624999769032,0.49321249127388,0.00976249948143959
1779996517526422800,9.2834228515625,0.0017874999903142452,0.20377500355243683,0.002474999986588955
1779996517543699200,9.30069921875,-0.0017874999903142452,-0.1775124967098236,-0.00494999997317791
1779996517560975600,9.3179755859375,-0.006737499963492155,-0.44618749618530273,-0.01223750039935112
1779996517586890200,9.34389013671875,-0.0042624999769032,-0.3521375060081482,-0.006049999967217445
1779996517604166700,9.361166748046875,0.0005499999970197678,-0.016224998980760574,0
1779996517621442800,9.37844287109375,0.0042624999769032,0.3258749842643738,0.0085249999538064
1779996517647357700,9.404357666015626,0.005499999970197678,0.4516874849796295,0.01223750039935112
1779996517664633900,9.4216337890625,0.0017874999903142452,0.19882500171661377,0.006049999967217445
1779996517681910300,9.43891015625,-0.0006874999962747097,-0.16885000467300415,-0.00494999997317791
1779996517707824600,9.46482470703125,-0.005499999970197678,-0.47671249508857727,-0.0085249999538064
1779996517725101300,9.482101318359375,-0.0042624999769032,-0.34718748927116394,-0.006049999967217445
1779996517742377700,9.499377685546875,0.0005499999970197678,-0.02227500081062317,0.0012374999932944775
1779996517768292000,9.5252919921875,0.0042624999769032,0.4248749911785126,0.006049999967217445
1779996517785568800,9.54256884765625,0.0042624999769032,0.44440001249313354,0.00976249948143959
1779996517802845000,9.559844970703125,0.0030249999836087227,0.20982499420642853,0.0037124999798834324
1779996517828759600,9.585759521484375,-0.0042624999769032,-0.30937498807907104,-0.006049999967217445
1779996517846036000,9.603035888671876,-0.006737499963492155,-0.46818751096725464,-0.010999999940395355
1779996517863312400,9.6203125,-0.005499999970197678,-0.3521375060081482,-0.007287499960511923
1779996517889226800,9.646226806640625,0.0017874999903142452,0.1438249945640564,0.00494999997317791
1779996517906503200,9.663503173828126,0.005499999970197678,0.4113999903202057,0.0085249999538064
1779996517923779800,9.68077978515625,0.005499999970197678,0.44068750739097595,0.010999999940395355
1779996517941056300,9.69805615234375,0.0017874999903142452,0.20982499420642853,0.0037124999798834324
1779996517958332400,9.71533251953125,-0.0019249999895691872,-0.14451250433921814,-0.002474999986588955
1779996517975608800,9.73260888671875,-0.005499999970197678,-0.4096125066280365,-0.01223750039935112
1779996517992885200,9.74988525390625,-0.0042624999769032,-0.43271249532699585,-0.007287499960511923
1779996518010161700,9.76716162109375,-0.0019249999895691872,-0.20803749561309814,-0.0012374999932944775
1779996518027438000,9.78443798828125,0.0017874999903142452,0.1340624988079071,0.002474999986588955
1779996518044714200,9.80171435546875,0.0030249999836087227,0.39916250109672546,0.0085249999538064
1779996518061991000,9.818990966796875,0.005499999970197678,0.43463748693466187,0.00976249948143959
1779996518087905500,9.844905517578125,-0.0006874999962747097,0.04977500066161156,0
1779996518105181700,9.862181640625,-0.0042624999769032,-0.28366249799728394,-0.007287499960511923
1779996518122458400,9.879458251953125,-0.005499999970197678,-0.44618749618530273,-0.00976249948143959
1779996518148372700,9.905372802734375,-0.0030249999836087227,-0.21779999136924744,-0.0037124999798834324
1779996518165649200,9.922649169921876,0.0005499999970197678,0.11824999749660492,0.0037124999798834324
1779996518182925300,9.93992529296875,0.005499999970197678,0.3858250081539154,0.007287499960511923
1779996518208840200,9.965840087890625,0.0042624999769032,0.35516250133514404,0.0085249999538064
1779996518226116400,9.983116455078125,0.0005499999970197678,0.05829999968409538,0.0012374999932944775
1779996518243393000,10.00039306640625,-0.0019249999895691872,-0.27156248688697815,-0.007287499960511923
1779996518260669200,10.017669189453125,-0.005499999970197678,-0.44013750553131104,-0.0085249999538064
1779996518286583800,10.043583740234375,-0.0030249999836087227,-0.22632500529289246,-0.0012374999932944775
1779996518303860000,10.06085986328125,0.0005499999970197678,0.10477499663829803,0.00494999997317791
1779996518321136600,10.07813671875,0.0042624999769032,0.3723500072956085,0.006049999967217445
1779996518338413000,10.0954130859375,0.0042624999769032,0.4296875,0.00976249948143959
1779996518355689200,10.112689208984374,0.0030249999836087227,0.23553749918937683,0.00494999997317791
1779996518372965600,10.129965576171875,-0.0006874999962747097,-0.09927500039339066,-0.002474999986588955
1779996518390242000,10.147241943359376,-0.005499999970197678,-0.37290000915527344,-0.00976249948143959
1779996518407518500,10.1645185546875,-0.006737499963492155,-0.4291374981403351,-0.00976249948143959
1779996518424795000,10.181794921875,-0.0030249999836087227,-0.23361249268054962,-0.002474999986588955
1779996518442071300,10.1990712890625,0.0017874999903142452,0.09624999761581421,0.0012374999932944775
1779996518459347700,10.21634765625,0.0042624999769032,0.3686375021934509,0.00976249948143959
1779996518485262300,10.242262451171875,0.0042624999769032,0.35516250133514404,0.0085249999538064
1779996518502538500,10.25953857421875,0.0005499999970197678,0.07548750191926956,0.002474999986588955
1779996518519815200,10.276815185546875,-0.0030249999836087227,-0.25189998745918274,-0.006049999967217445
1779996518545729500,10.3027294921875,-0.0042624999769032,-0.4254249930381775,-0.0085249999538064
1779996518563006000,10.320005859375,-0.0030249999836087227,-0.23608750104904175,-0.002474999986588955
1779996518580282400,10.337282470703125,-0.0006874999962747097,0.08648750185966492,0.002474999986588955
1779996518597558800,10.354558837890625,0.0030249999836087227,0.35516250133514404,0.006049999967217445
1779996518614835200,10.371835205078124,0.005499999970197678,0.421162486076355,0.0085249999538064
1779996518632111400,10.389111328125,0.0030249999836087227,0.2428250014781952,0.006049999967217445
1779996518649388000,10.406387939453126,-0.0017874999903142452,-0.07851249724626541,-0.002474999986588955
1779996518666664400,10.42366455078125,-0.005499999970197678,-0.35337498784065247,-0.00976249948143959
1779996518692578800,10.449578857421875,-0.005499999970197678,-0.3546124994754791,-0.0085249999538064
1779996518709855200,10.466855224609375,-0.0006874999962747097,-0.08579999953508377,-0.0012374999932944775
1779996518727131600,10.484131591796874,0.0030249999836087227,0.2293500006198883,0.007287499960511923
1779996518753046300,10.51004638671875,0.0042624999769032,0.4138749837875366,0.0085249999538064
1779996518770322700,10.52732275390625,0.0017874999903142452,0.24034999310970306,0.006049999967217445
1779996518787599000,10.54459912109375,-0.0006874999962747097,-0.07479999959468842,-0.002474999986588955
1779996518813513700,10.570513671875,-0.0042624999769032,-0.40466248989105225,-0.010999999940395355
1779996518830790000,10.587789794921875,-0.0042624999769032,-0.3484250009059906,-0.0037124999798834324
1779996518848066600,10.605066650390626,-0.0017874999903142452,-0.09556250274181366,-0.002474999986588955
1779996518865342700,10.6223427734375,0.0017874999903142452,0.21353749930858612,0.006049999967217445
1779996518882619100,10.639619140625,0.0042624999769032,0.39916250109672546,0.0085249999538064
1779996518899895800,10.656895751953124,0.0042624999769032,0.3515875041484833,0.0085249999538064
1779996518917172000,10.674171875,0.0017874999903142452,0.09748750180006027,0.002474999986588955
1779996518934448400,10.691448486328126,-0.0042624999769032,-0.21285000443458557,-0.00494999997317791
1779996518960363000,10.717363037109376,-0.006737499963492155,-0.403425008058548,-0.01223750039935112
1779996518977639400,10.734639404296875,-0.0042624999769032,-0.23856249451637268,-0.00494999997317791
1779996518994915800,10.751915771484375,0.0030249999836087227,0.0644875019788742,0.002474999986588955
1779996519012192300,10.769192138671874,0.0042624999769032,0.3258749842643738,0.006049999967217445
1779996519029468400,10.786468505859375,0.0042624999769032,0.39916250109672546,0.0085249999538064
1779996519046744800,10.803744873046876,0.0017874999903142452,0.23787499964237213,0.0037124999798834324
1779996519072659500,10.829659423828126,-0.0019249999895691872,-0.2055625021457672,-0.00494999997317791
1779996519089936000,10.846935791015625,-0.0031624999828636646,-0.38266250491142273,-0.0085249999538064
1779996519107212300,10.86421240234375,-0.0031624999828636646,-0.33742499351501465,-0.00494999997317791
1779996519133126700,10.890126708984376,0.0005499999970197678,0.04619999974966049,0.0012374999932944775
1779996519150403000,10.907403076171875,0.0017874999903142452,0.3051125109195709,0.007287499960511923
1779996519167679700,10.9246796875,0.0042624999769032,0.3870624899864197,0.0085249999538064
1779996519184956000,10.941955810546874,0.0030249999836087227,0.2428250014781952,0.00494999997317791
1779996519210870500,10.96787060546875,-0.0031624999828636646,-0.1872749924659729,-0.0037124999798834324
1779996519228147200,10.985147216796875,-0.005499999970197678,-0.37290000915527344,-0.00976249948143959
1779996519245423400,11.00242333984375,-0.005499999970197678,-0.3386625051498413,-0.00494999997317791
1779996519262699800,11.01969970703125,-0.0019249999895691872,-0.11027500033378601,-0.0037124999798834324
1779996519279976200,11.03697607421875,0.0017874999903142452,0.18177500367164612,0.006049999967217445
1779996519297252600,11.054252685546874,0.0042624999769032,0.36616250872612,0.006049999967217445
1779996519314529000,11.071529052734375,0.005499999970197678,0.3381125032901764,0.0085249999538064
1779996519331805400,11.088805419921876,0.0005499999970197678,0.11329999566078186,0.002474999986588955
1779996519349081600,11.10608154296875,-0.0019249999895691872,-0.17737500369548798,-0.00494999997317791
1779996519366358300,11.123358154296875,-0.005499999970197678,-0.3619000017642975,-0.007287499960511923
1779996519383634700,11.140634765625,-0.005499999970197678,-0.33508750796318054,-0.007287499960511923
1779996519400910800,11.157910888671875,-0.0006874999962747097,-0.11508750170469284,0
1779996519418187500,11.1751875,0.0030249999836087227,0.17201249301433563,0.002474999986588955
1779996519435463700,11.192463623046875,0.005499999970197678,0.3564000129699707,0.007287499960511923
1779996519452740000,11.209739990234375,0.0042624999769032,0.33082500100135803,0.007287499960511923
1779996519470016500,11.2270166015625,0.0005499999970197678,0.11453749984502792,0.002474999986588955
1779996519487293000,11.24429296875,-0.0019249999895691872,-0.16637499630451202,-0.00494999997317791
1779996519504569300,11.2615693359375,-0.0042624999769032,-0.3484250009059906,-0.006049999967217445
1779996519530484000,11.28748388671875,-0.0031624999828636646,-0.24089999496936798,-0.007287499960511923
1779996519547760400,11.304760498046875,-0.0006874999962747097,0.026537500321865082,0.0012374999932944775
1779996519565036500,11.32203662109375,0.0030249999836087227,0.2770625054836273,0.0037124999798834324
1779996519582313000,11.33931298828125,0.005499999970197678,0.37111249566078186,0.0085249999538064
1779996519599589400,11.35658935546875,0.0030249999836087227,0.25011250376701355,0.006049999967217445
1779996519625504000,11.38250390625,-0.0030249999836087227,-0.1578499972820282,0
1779996519642780400,11.399780517578124,-0.0042624999769032,-0.3460874855518341,-0.010999999940395355
1779996519660056800,11.417056884765625,-0.0042624999769032,-0.328900009393692,-0.0037124999798834324
1779996519677333200,11.434333251953126,-0.0005499999970197678,-0.1260875016450882,0.0012374999932944775
1779996519694609700,11.451609619140624,0.0030249999836087227,0.147537499666214,0.0012374999932944775
1779996519711885800,11.4688857421875,0.0030249999836087227,0.33563750982284546,0.01223750039935112
1779996519737800700,11.49480078125,0.0017874999903142452,0.24529999494552612,0.0037124999798834324
1779996519755077000,11.5120771484375,-0.0017874999903142452,-0.008799999952316284,0.002474999986588955
1779996519772353300,11.529353271484375,-0.0030249999836087227,-0.256850004196167,-0.00976249948143959
1779996519789630000,11.5466298828125,-0.0042624999769032,-0.3521375060081482,-0.00494999997317791
1779996519806906400,11.56390625,-0.0017874999903142452,-0.2433750033378601,-0.00494999997317791
1779996519824182500,11.5811826171875,-0.0005499999970197678,0.004537499975413084,0.0037124999798834324
1779996519850097200,11.60709716796875,0.0030249999836087227,0.3198249936103821,0.002474999986588955
1779996519867373600,11.62437353515625,0.0030249999836087227,0.32106250524520874,0.007287499960511923
1779996519884650000,11.64164990234375,0.0017874999903142452,0.1340624988079071,0.002474999986588955
1779996519910564600,11.667564697265625,-0.0030249999836087227,-0.24213749170303345,-0.0037124999798834324
1779996519927841000,11.684841064453124,-0.005499999970197678,-0.3436124920845032,-0.0085249999538064
1779996519945117200,11.7021171875,-0.0030249999836087227,-0.24584999680519104,-0.0037124999798834324
1779996519962393600,11.7193935546875,-0.0005499999970197678,-0.007562499959021807,0
1779996519979670000,11.736669921875,0.0030249999836087227,0.23553749918937683,0.00494999997317791
1779996519996946400,11.753946533203125,0.0042624999769032,0.34306249022483826,0.006049999967217445
1779996520014223000,11.77122314453125,0.0042624999769032,0.25011250376701355,0.007287499960511923
1779996520031499000,11.7884990234375,-0.0005499999970197678,0.009487500414252281,0.0012374999932944775
1779996520048775700,11.805775634765626,-0.0030249999836087227,-0.23980000615119934,-0.006049999967217445
1779996520066052000,11.823052001953124,-0.0042624999769032,-0.3423750102519989,-0.007287499960511923
1779996520091966700,11.848966796875,-0.0019249999895691872,-0.13832500576972961,-0.0037124999798834324
1779996520109243100,11.8662431640625,0.0005499999970197678,0.11824999749660492,0.0037124999798834324
1779996520126519600,11.88351953125,0.0030249999836087227,0.3051125109195709,0.007287499960511923
1779996520143796000,11.9007958984375,0.0030249999836087227,0.3161124885082245,0.007287499960511923
1779996520169710600,11.926710693359375,0.0005499999970197678,0.018012499436736107,-0.0012374999932944775
1779996520186987000,11.943987060546876,-0.0031624999828636646,-0.2213750034570694,-0.00494999997317791
1779996520204263400,11.961263427734375,-0.0042624999769032,-0.3338499963283539,-0.0085249999538064
1779996520230178000,11.987177978515625,-0.0019249999895691872,-0.14561249315738678,-0.0012374999932944775
1779996520247454200,12.0044541015625,0.0005499999970197678,0.10724999755620956,0.002474999986588955
1779996520264731000,12.02173095703125,0.0042624999769032,0.29534998536109924,0.006049999967217445
1779996520290645200,12.047645263671875,0.0030249999836087227,0.25011250376701355,0.007287499960511923
1779996520307921700,12.064921630859375,-0.0006874999962747097,0.021724998950958252,0.0012374999932944775
1779996520325198000,12.082197998046874,-0.0042624999769032,-0.2190375030040741,-0.006049999967217445
1779996520351112700,12.10811279296875,-0.0042624999769032,-0.30937498807907104,-0.006049999967217445
1779996520368389000,12.12538916015625,-0.0006874999962747097,-0.14561249315738678,-0.0012374999932944775
1779996520385665500,12.14266552734375,0.0005499999970197678,0.10106249898672104,0.002474999986588955
1779996520411580200,12.168580078125,0.0030249999836087227,0.32106250524520874,0.00494999997317791
1779996520428856600,12.185856689453125,0.0030249999836087227,0.24777500331401825,0.0037124999798834324
1779996520446133000,12.203133056640626,-0.0006874999962747097,0.029012499377131462,0.0012374999932944775
1779996520472047600,12.229047607421874,-0.0031624999828636646,-0.2825624942779541,-0.007287499960511923
1779996520489324000,12.246323974609375,-0.0042624999769032,-0.3020874857902527,-0.00494999997317791
1779996520506600400,12.263600341796876,-0.0031624999828636646,-0.1480875015258789,-0.002474999986588955
1779996520532514800,12.289514892578126,0.0017874999903142452,0.19882500171661377,0.006049999967217445
1779996520549791200,12.306791259765625,0.0042624999769032,0.31363749504089355,0.006049999967217445
1779996520567067600,12.324067626953125,0.0030249999836087227,0.2465374916791916,0.00494999997317791
1779996520584344000,12.341343994140624,-0.0006874999962747097,0.03519999980926514,0.0012374999932944775
1779996520601620500,12.358620361328125,-0.0019249999895691872,-0.19456249475479126,-0.0037124999798834324
1779996520618897000,12.37589697265625,-0.0042624999769032,-0.3106124997138977,-0.006049999967217445
1779996520636173300,12.39317333984375,-0.0030249999836087227,-0.24584999680519104,-0.0037124999798834324
1779996520653449700,12.41044970703125,0.0005499999970197678,-0.03932499885559082,0
1779996520670726100,12.42772607421875,0.0030249999836087227,0.18906250596046448,0.006049999967217445
1779996520688002600,12.44500244140625,0.0030249999836087227,0.3051125109195709,0.007287499960511923
1779996520705279000,12.462279052734376,0.0017874999903142452,0.2428250014781952,0.00494999997317791
1779996520722555400,12.479555419921875,-0.0006874999962747097,0.0424874983727932,0
1779996520739831800,12.496831787109375,-0.0030249999836087227,-0.18479999899864197,-0.00494999997317791
1779996520765746400,12.522746337890625,-0.0030249999836087227,-0.29356250166893005,-0.006049999967217445
1779996520783022600,12.540022705078124,-0.0019249999895691872,-0.15427500009536743,-0.002474999986588955
1779996520800299300,12.55729931640625,0.0005499999970197678,0.07177499681711197,0.002474999986588955
1779996520826213600,12.583213623046875,0.0042624999769032,0.29782500863075256,0.00494999997317791
1779996520843490300,12.600490234375,0.0042624999769032,0.2465374916791916,0.007287499960511923
1779996520860766500,12.617766357421875,0.0005499999970197678,0.04853750020265579,0.002474999986588955
1779996520886681000,12.64368115234375,-0.0042624999769032,-0.25808748602867126,-0.007287499960511923
1779996520903957800,12.660957763671876,-0.0042624999769032,-0.2923249900341034,-0.00494999997317791
1779996520921234000,12.67823388671875,-0.0019249999895691872,-0.1555124968290329,-0.002474999986588955
1779996520947148500,12.7041484375,0.0030249999836087227,0.17201249301433563,0.0037124999798834324
1779996520964425000,12.721425048828126,0.0030249999836087227,0.28929999470710754,0.006049999967217445
1779996520981701400,12.738701416015624,0.0017874999903142452,0.24158750474452972,0.006049999967217445
1779996520998977500,12.7559775390625,-0.0006874999962747097,0.05348749831318855,0
1779996521016254200,12.773254150390626,-0.0030249999836087227,-0.16637499630451202,-0.0037124999798834324
1779996521033530400,12.7905302734375,-0.0042624999769032,-0.28737500309944153,-0.007287499960511923
1779996521050806800,12.807806884765625,-0.0030249999836087227,-0.23980000615119934,-0.006049999967217445
1779996521068083500,12.82508349609375,0.0005499999970197678,-0.052799999713897705,0
1779996521093997800,12.850997802734375,0.0030249999836087227,0.2428250014781952,0.00494999997317791
1779996521111274200,12.868274169921875,0.0017874999903142452,0.28187498450279236,0.006049999967217445
1779996521128551000,12.885551025390624,0.0017874999903142452,0.1597750037908554,0.002474999986588955
1779996521145827000,12.9028271484375,-0.0019249999895691872,-0.056512501090765,-0.0012374999932944775
1779996521163103500,12.920103515625,-0.0042624999769032,-0.23980000615119934,-0.006049999967217445
1779996521180380000,12.9373798828125,-0.0030249999836087227,-0.28008750081062317,-0.006049999967217445
1779996521197656300,12.95465625,-0.0019249999895691872,-0.15661250054836273,-0.0037124999798834324
1779996521214932700,12.9719326171875,0.0005499999970197678,0.05472499877214432,0.002474999986588955
1779996521232209200,12.989209228515625,0.0017874999903142452,0.23182499408721924,0.00494999997317791
1779996521249485600,13.006485595703126,0.0030249999836087227,0.2745875120162964,0.00494999997317791
1779996521266762000,13.023761962890624,0.0005499999970197678,0.15729999542236328,0.00494999997317791
1779996521292676600,13.049676513671875,-0.0019249999895691872,-0.15303750336170197,-0.0037124999798834324
1779996521309953000,13.066953125,-0.0042624999769032,-0.27390000224113464,-0.0037124999798834324
1779996521327229400,13.0842294921875,-0.0030249999836087227,-0.23237499594688416,-0.006049999967217445
1779996521344505900,13.101505859375,-0.0006874999962747097,-0.057750001549720764,0.0012374999932944775
1779996521361782300,13.1187822265625,0.0030249999836087227,0.15125000476837158,0.0037124999798834324
1779996521387697000,13.14469677734375,0.0030249999836087227,0.2685374915599823,0.007287499960511923
1779996521404973300,13.161973388671875,0.0005499999970197678,0.15358750522136688,0.002474999986588955
1779996521422249700,13.179249755859376,-0.0006874999962747097,-0.047987498342990875,-0.0012374999932944775
1779996521448164000,13.2051640625,-0.0019249999895691872,-0.2605625092983246,-0.006049999967217445
1779996521465440500,13.2224404296875,-0.0030249999836087227,-0.22632500529289246,-0.002474999986588955
1779996521482717000,13.239717041015625,-0.0006874999962747097,-0.06132499873638153,-0.0012374999932944775
1779996521499993300,13.256993408203124,0.0017874999903142452,0.13901250064373016,0.002474999986588955
1779996521525908000,13.282907958984374,0.0030249999836087227,0.26358750462532043,0.006049999967217445
1779996521543184400,13.300184326171875,0.0005499999970197678,0.15729999542236328,0.00494999997317791
1779996521560460800,13.317460693359376,-0.0019249999895691872,-0.04179999977350235,-0.0012374999932944775
1779996521586375400,13.34337548828125,-0.0028874999843537807,-0.25808748602867126,-0.00494999997317791
1779996521603651800,13.36065185546875,-0.0028874999843537807,-0.2250874936580658,-0.0037124999798834324
1779996521620928300,13.37792822265625,-0.0004124999977648258,-0.06503749638795853,-0.00013749999925494194
1779996521646843000,13.4038427734375,0.002062499988824129,0.20858749747276306,0.004812499973922968
1779996521664119300,13.421119384765625,0.002062499988824129,0.2586374878883362,0.004812499973922968
1779996521681395500,13.4383955078125,0.002062499988824129,0.15729999542236328,0.002337499987334013
1779996521707310300,13.464310302734376,-0.0016499999910593033,-0.12856249511241913,-0.002612499985843897
1779996521724586500,13.48158642578125,-0.003987499978393316,-0.2508000135421753,-0.007424999959766865
1779996521741863200,13.49886328125,-0.003987499978393316,-0.2250874936580658,-0.006187499966472387
1779996521759139600,13.5161396484375,-0.0004124999977648258,-0.06875000149011612,0.0010999999940395355
1779996521776415700,13.533415771484375,0.0032999999821186066,0.12677499651908875,0.002337499987334013
1779996521793692200,13.550692138671875,0.004537499975413084,0.2488749921321869,0.007287499960511923
1779996521810968600,13.567968505859374,0.0032999999821186066,0.22439999878406525,0.004812499973922968
1779996521828245000,13.585244873046875,-0.0004124999977648258,0.0668250024318695,0.0010999999940395355
1779996521845521400,13.602521484375,-0.0004124999977648258,-0.1274625062942505,-0.002612499985843897
1779996521862797800,13.6197978515625,-0.0016499999910593033,-0.24584999680519104,-0.00494999997317791
1779996521888712400,13.64571240234375,-0.0016499999910593033,-0.1555124968290329,-0.0037124999798834324
1779996521905989000,13.662989013671876,-0.0004124999977648258,0.027775000780820847,0.0010999999940395355
1779996521923265300,13.680265380859375,0.0008249999955296516,0.19634999334812164,0.0035749999806284904
1779996521949180000,13.706179931640625,0.002062499988824129,0.22316250205039978,0.006049999967217445
1779996521966456300,13.723456298828125,0.002062499988824129,0.07411249727010727,0.0010999999940395355
1779996521983732700,13.740732666015624,-0.0016499999910593033,-0.1200374960899353,-0.002612499985843897
1779996522001009200,13.758009033203125,-0.003987499978393316,-0.24351249635219574,-0.00494999997317791
1779996522026923800,13.783923828125,-0.0028874999843537807,-0.1592250019311905,-0.002612499985843897
1779996522044200200,13.8012001953125,0.0008249999955296516,0.027775000780820847,0.0010999999940395355
1779996522061476400,13.818476318359375,0.0032999999821186066,0.19511249661445618,0.004812499973922968
1779996522087391000,13.844390869140625,0.0017874999903142452,0.2171124964952469,0.002474999986588955
1779996522104667400,13.86166748046875,0.0005499999970197678,0.0705375000834465,0.0012374999932944775
1779996522121943800,13.87894384765625,-0.0006874999962747097,-0.11756250262260437,-0.0037124999798834324
1779996522139220500,13.896220458984375,-0.0030249999836087227,-0.23608750104904175,-0.00494999997317791
1779996522156496600,13.91349658203125,-0.0017874999903142452,-0.21656249463558197,-0.002474999986588955
1779996522173773000,13.93077294921875,-0.0006874999962747097,-0.07356250286102295,-0.002474999986588955
1779996522191049500,13.948049560546876,0.0005499999970197678,0.1120624989271164,0.0037124999798834324
1779996522208326000,13.965325927734375,0.0017874999903142452,0.23182499408721924,0.0037124999798834324
1779996522225602600,13.9826025390625,0.0017874999903142452,0.2171124964952469,0.0037124999798834324
1779996522242878700,13.999878662109374,0.0005499999970197678,0.07548750191926956,0
1779996522260155100,14.017155029296875,-0.0006874999962747097,-0.10903749614953995,-0.00494999997317791
1779996522277431600,14.034431640625,-0.0030249999836087227,-0.2287999987602234,-0.00494999997317791
1779996522294708000,14.0517080078125,-0.0030249999836087227,-0.21408750116825104,-0.0037124999798834324
1779996522311984400,14.068984375,-0.0006874999962747097,-0.07479999959468842,0
1779996522329260800,14.0862607421875,0.0017874999903142452,0.10724999755620956,0.002474999986588955
1779996522346537200,14.103537109375,0.0030249999836087227,0.227012500166893,0.00494999997317791
1779996522363813600,14.120813720703126,0.0030249999836087227,0.21230000257492065,0.00494999997317791
1779996522381090300,14.13809033203125,-0.0006874999962747097,0.0742499977350235,0.0012374999932944775
1779996522398366500,14.155366455078125,-0.0017874999903142452,-0.10779999941587448,-0.002474999986588955
1779996522415643000,14.172642822265624,-0.0030249999836087227,-0.22384999692440033,-0.00494999997317791
1779996522432919300,14.189919189453125,-0.0030249999836087227,-0.20803749561309814,-0.0037124999798834324
1779996522450195700,14.20719580078125,0.0005499999970197678,-0.07603749632835388,-0.002474999986588955
1779996522467472100,14.22447216796875,0.0017874999903142452,0.10106249898672104,0.002474999986588955
1779996522484748500,14.24174853515625,0.0017874999903142452,0.22082500159740448,0.00494999997317791
1779996522510663200,14.2676630859375,0.0005499999970197678,0.15358750522136688,0.002474999986588955
1779996522527939600,14.284939697265624,-0.0017874999903142452,-0.013749999925494194,-0.0012374999932944775
1779996522545216000,14.302216064453125,-0.0042624999769032,-0.17008750140666962,-0.00494999997317791
1779996522571130600,14.328130615234375,-0.0017874999903142452,-0.20432500541210175,-0.006049999967217445
1779996522588407000,14.345406982421874,-0.0006874999962747097,-0.07356250286102295,-0.0012374999932944775
1779996522605683500,14.362683349609375,0.0005499999970197678,0.09624999761581421,0.0037124999798834324
1779996522622959900,14.3799599609375,0.0005499999970197678,0.20982499420642853,0.00494999997317791
1779996522640236300,14.397236328125,0.0017874999903142452,0.2012999951839447,0.0037124999798834324
1779996522657512700,14.4145126953125,0.0005499999970197678,0.07782500237226486,0.0012374999932944775
1779996522674789000,14.4317890625,-0.0006874999962747097,-0.09075000137090683,0
1779996522692065300,14.449065185546875,-0.0017874999903142452,-0.20679999887943268,-0.006049999967217445
1779996522709342000,14.466342041015626,-0.0030249999836087227,-0.20432500541210175,-0.0037124999798834324
1779996522726618400,14.483618408203125,-0.0017874999903142452,-0.08332499861717224,-0.0012374999932944775
1779996522752533000,14.509532958984375,0.0017874999903142452,0.1597750037908554,0.0037124999798834324
1779996522769809400,14.526809326171875,0.0030249999836087227,0.2232999950647354,0.00494999997317791
1779996522787085600,14.54408544921875,0.0017874999903142452,0.15606249868869781,0.0037124999798834324
1779996522813000400,14.57000048828125,-0.0006874999962747097,-0.08703749626874924,-0.0037124999798834324
1779996522830276900,14.58727685546875,-0.0030249999836087227,-0.20184999704360962,-0.0037124999798834324
1779996522847553300,14.60455322265625,-0.0030249999836087227,-0.20184999704360962,-0.00494999997317791
1779996522873467600,14.630467529296874,-0.0006874999962747097,-0.0015124999918043613,0.0012374999932944775
1779996522890744300,14.647744384765625,0.0017874999903142452,0.15482500195503235,0.002474999986588955
1779996522908020700,14.665020751953126,0.0030249999836087227,0.22082500159740448,0.00494999997317791
1779996522925297000,14.682296875,0.0017874999903142452,0.15729999542236328,0.00494999997317791
1779996522942573600,14.699573486328125,-0.0006874999962747097,0.0009624999947845936,-0.0012374999932944775
1779996522959850000,14.71685009765625,-0.0030249999836087227,-0.15303750336170197,-0.0037124999798834324
1779996522977126400,14.73412646484375,-0.0017874999903142452,-0.21779999136924744,-0.00494999997317791
1779996522994402800,14.75140283203125,-0.0017874999903142452,-0.15303750336170197,-0.002474999986588955
1779996523011679200,14.76867919921875,0.0005499999970197678,-0.002749999985098839,0.002474999986588955
1779996523028956000,14.785955810546875,0.0005499999970197678,0.147537499666214,0.0037124999798834324
1779996523054870300,14.811870361328126,0.0017874999903142452,0.19882500171661377,0.0037124999798834324
1779996523072147000,14.82914697265625,0.0005499999970197678,0.08772499859333038,0
1779996523089423400,14.84642333984375,-0.0016499999910593033,-0.07493750005960464,-0.002612499985843897
1779996523106699800,14.86369970703125,-0.002749999985098839,-0.1933249980211258,-0.0037124999798834324
1779996523123976200,14.88097607421875,-0.0016499999910593033,-0.1970375031232834,-0.0037124999798834324
1779996523141252600,14.898252685546876,-0.0004124999977648258,-0.0882750004529953,-0.00013749999925494194
1779996523158528800,14.91552880859375,0.0008249999955296516,0.0705375000834465,0.002337499987334013
1779996523175805400,14.932805419921875,0.002062499988824129,0.18782499432563782,0.0035749999806284904
1779996523193081600,14.95008154296875,0.0008249999955296516,0.19511249661445618,0.0035749999806284904
1779996523210358300,14.967358154296875,0.0008249999955296516,0.08882500231266022,0.002337499987334013
1779996523227634700,14.984634765625,-0.0016499999910593033,-0.06751249730587006,-0.002612499985843897
1779996523253549300,15.01054931640625,-0.002749999985098839,-0.20432500541210175,-0.002612499985843897
1779996523270825700,15.02782568359375,-0.0016499999910593033,-0.1518000066280365,-0.0037124999798834324
1779996523288102100,15.04510205078125,0.0008249999955296516,-0.013749999925494194,-0.00013749999925494194
1779996523305378600,15.062378662109374,0.002062499988824129,0.1340624988079071,0.0035749999806284904
1779996523322655000,15.079655029296875,0.002062499988824129,0.20006249845027924,0.004812499973922968
1779996523339931400,15.096931396484376,0.002062499988824129,0.1498750001192093,0.0035749999806284904
1779996523365846000,15.122845947265626,-0.0004124999977648258,-0.06393750011920929,-0.0013749999925494194
1779996523383122400,15.140122314453125,-0.0016499999910593033,-0.1775124967098236,-0.0037124999798834324
1779996523400398800,15.15739892578125,-0.0016499999910593033,-0.18851250410079956,-0.0013749999925494194
1779996523417675500,15.174675537109374,-0.0016499999910593033,-0.0919874981045723,-0.0013749999925494194
1779996523443590000,15.20058984375,0.0008249999955296516,0.1266375035047531,0.002337499987334013
1779996523460866300,15.2178662109375,0.002062499988824129,0.19511249661445618,0.004812499973922968
1779996523478142700,15.235142822265624,0.0032999999821186066,0.15111249685287476,0.0035749999806284904
1779996523504057300,15.261057373046874,-0.0016499999910593033,-0.056512501090765,-0.0013749999925494194
1779996523521334000,15.278333984375,-0.0016499999910593033,-0.1714625060558319,-0.0037124999798834324
1779996523538610400,15.2956103515625,-0.002749999985098839,-0.18603749573230743,-0.00494999997317791
1779996523555886800,15.312886962890625,-0.0004124999977648258,-0.0919874981045723,-0.00013749999925494194
1779996523573163300,15.330163330078125,0.0008249999955296516,0.05582499876618385,0.0010999999940395355
1779996523590439700,15.347439697265624,0.0030249999836087227,0.1695374995470047,0.0037124999798834324
1779996523607716000,15.364716064453125,0.0017874999903142452,0.18411250412464142,0.0037124999798834324
1779996523624992500,15.381992431640626,0.0005499999970197678,0.09006249904632568,0.002474999986588955
1779996523642269000,15.39926904296875,-0.0017874999903142452,-0.056512501090765,-0.002474999986588955
1779996523659545300,15.41654541015625,-0.0030249999836087227,-0.16651250422000885,-0.0037124999798834324
1779996523676821800,15.43382177734375,-0.0017874999903142452,-0.17861250042915344,-0.0037124999798834324
1779996523694098200,15.45109814453125,-0.0005499999970197678,-0.08951249718666077,-0.0012374999932944775
1779996523711374600,15.46837451171875,-0.0005499999970197678,0.05224999785423279,0.002474999986588955
1779996523728651000,15.485651123046875,0.0017874999903142452,0.16335000097751617,0.0037124999798834324
1779996523745927400,15.502927490234375,0.0017874999903142452,0.179299995303154,0.00494999997317791
1779996523771842000,15.528842041015626,-0.0005499999970197678,0.020487500354647636,-0.0012374999932944775
1779996523789118500,15.546118408203125,-0.0030249999836087227,-0.1163249984383583,-0.002474999986588955
1779996523806395100,15.56339501953125,-0.0030249999836087227,-0.18603749573230743,-0.00494999997317791
1779996523823671600,15.580671630859374,-0.0005499999970197678,-0.14327499270439148,-0.002474999986588955
1779996523849586200,15.606586181640624,0.0017874999903142452,0.05472499877214432,0.0037124999798834324
1779996523866862600,15.623862548828125,0.0017874999903142452,0.1597750037908554,0.0037124999798834324
1779996523884139300,15.64113916015625,0.0017874999903142452,0.17434999346733093,0.0037124999798834324
1779996523901415400,15.65841552734375,0.0005499999970197678,0.08882500231266022,0.002474999986588955
1779996523927330300,15.684330322265625,-0.0017874999903142452,-0.11384999752044678,-0.002474999986588955
1779996523944606500,15.7016064453125,-0.0017874999903142452,-0.1798499971628189,-0.0037124999798834324
1779996523961883100,15.718883056640625,-0.0017874999903142452,-0.14451250433921814,-0.002474999986588955
1779996523979159300,15.7361591796875,-0.0005499999970197678,-0.02474999986588955,-0.0012374999932944775
1779996523996435700,15.753435791015624,0.0005499999970197678,0.10724999755620956,0.002474999986588955
1779996524013712400,15.77071240234375,0.0017874999903142452,0.17806249856948853,0.0037124999798834324
1779996524030988800,15.78798876953125,0.0005499999970197678,0.14258749783039093,0.0012374999932944775
1779996524048265200,15.80526513671875,-0.0005499999970197678,0.025299999862909317,0.0012374999932944775
1779996524065541600,15.822541748046875,-0.0017874999903142452,-0.10656250268220901,-0.0037124999798834324
1779996524091456500,15.84845654296875,-0.0017874999903142452,-0.17132499814033508,-0.0037124999798834324
1779996524108732700,15.865732666015624,-0.0006874999962747097,-0.08951249718666077,-0.0012374999932944775
1779996524126009300,15.88300927734375,0.0005499999970197678,0.0424874983727932,0
1779996524143285800,15.90028564453125,0.0005499999970197678,0.14877499639987946,0.0012374999932944775
1779996524160562200,15.917562255859375,0.0005499999970197678,0.17077499628067017,0.0037124999798834324
1779996524177838600,15.934838623046875,0.0005499999970197678,0.09253749996423721,0.0012374999932944775
1779996524203753200,15.960753173828126,-0.0006874999962747097,-0.10051249712705612,-0.0012374999932944775
1779996524221029600,15.978029541015625,-0.0030249999836087227,-0.17256249487400055,-0.0037124999798834324
1779996524238306000,15.99530615234375,-0.0017874999903142452,-0.14327499270439148,-0.0012374999932944775
1779996524264220700,16.021220703125,0.0005499999970197678,0.03629999980330467,0.0012374999932944775
1779996524281497300,16.038497314453124,0.0017874999903142452,0.14630000293254852,0.00494999997317791
1779996524298773500,16.0557734375,0.0017874999903142452,0.17201249301433563,0.0037124999798834324
1779996524316050200,16.07305029296875,0.0005499999970197678,0.09624999761581421,0.002474999986588955
1779996524333326300,16.090326416015625,-0.0006874999962747097,-0.03698749840259552,-0.0012374999932944775
1779996524350603000,16.10760302734375,-0.0006874999962747097,-0.14685000479221344,-0.0037124999798834324
1779996524367879400,16.12487939453125,-0.0030249999836087227,-0.16885000467300415,-0.002474999986588955
1779996524385155800,16.14215576171875,-0.0006874999962747097,-0.09308750182390213,-0.0012374999932944775
1779996524402432300,16.159432373046876,0.0005499999970197678,0.03396249935030937,0.002474999986588955
1779996524419708700,16.176708740234375,0.0017874999903142452,0.14258749783039093,0.0037124999798834324
1779996524445623300,16.202623291015627,0.0005499999970197678,0.1414874941110611,0.0037124999798834324
1779996524462899700,16.219899658203126,-0.0006874999962747097,0.03148749843239784,0.0012374999932944775
1779996524480176400,16.23717626953125,-0.0030249999836087227,-0.09556250274181366,-0.002474999986588955
1779996524506090800,16.2630908203125,-0.0030249999836087227,-0.16651250422000885,-0.00494999997317791
1779996524523367400,16.280367431640624,-0.0006874999962747097,-0.0919874981045723,-0.0012374999932944775
1779996524540643800,16.297643798828126,0.0017874999903142452,0.03519999980926514,0
1779996524566558500,16.323558349609375,0.0017874999903142452,0.16335000097751617,0.006049999967217445
1779996524583835100,16.340835205078125,0.0008249999955296516,0.13653749227523804,0.002337499987334013
1779996524601111600,16.358111572265624,0.0008249999955296516,0.027775000780820847,0.0010999999940395355
1779996524627026200,16.384026123046876,-0.0004124999977648258,-0.13722500205039978,-0.0037124999798834324
1779996524644302600,16.401302490234375,-0.0016499999910593033,-0.1615625023841858,-0.0013749999925494194
1779996524661579000,16.4185791015625,-0.0016499999910593033,-0.09322500228881836,-0.0037124999798834324
1779996524687493600,16.44449365234375,0.0008249999955296516,0.09006249904632568,0.002337499987334013
1779996524704770300,16.461770263671873,0.002062499988824129,0.16458749771118164,0.004812499973922968
1779996524722046700,16.479046630859376,0.002062499988824129,0.13887499272823334,0.002337499987334013
1779996524747961300,16.50496142578125,-0.0004124999977648258,-0.03217500075697899,-0.0013749999925494194
1779996524765237800,16.52223779296875,-0.0028874999843537807,-0.13722500205039978,-0.002612499985843897
1779996524782514200,16.53951416015625,-0.0016499999910593033,-0.1615625023841858,-0.0037124999798834324
1779996524799790600,16.55679052734375,-0.0016499999910593033,-0.09075000137090683,-0.00013749999925494194
1779996524825705200,16.582705322265625,0.0008249999955296516,0.09006249904632568,0.0010999999940395355
1779996524842981600,16.599981689453124,0.002062499988824129,0.15963749587535858,0.0035749999806284904
1779996524860258000,16.617258056640626,0.002062499988824129,0.13529999554157257,0.0010999999940395355
1779996524886172700,16.643172607421874,-0.0004124999977648258,-0.02969999983906746,-0.0013749999925494194
1779996524903449300,16.660449462890625,-0.0028874999843537807,-0.1335124969482422,-0.002612499985843897
1779996524920725500,16.6777255859375,-0.0016499999910593033,-0.1592250019311905,-0.00494999997317791
1779996524946640400,16.703640380859376,0.0008249999955296516,-0.033275000751018524,-0.0013749999925494194
1779996524963916800,16.720916748046875,0.0008249999955296516,0.08758749812841415,0.002337499987334013
1779996524981193200,16.738193115234374,0.0008249999955296516,0.15729999542236328,0.004812499973922968
1779996524998469600,16.7554697265625,0.0008249999955296516,0.1340624988079071,0.002337499987334013
1779996525015746000,16.77274609375,-0.0004124999977648258,0.03258749842643738,0.0035749999806284904
1779996525041661000,16.798660888671876,-0.0016499999910593033,-0.1297999918460846,-0.0037124999798834324
1779996525058937300,16.815937255859374,-0.0028874999843537807,-0.15427500009536743,-0.00013749999925494194
1779996525076213800,16.8332138671875,-0.0016499999910593033,-0.0919874981045723,-0.002612499985843897
1779996525093490200,16.850490234375,-0.0006874999962747097,0.025299999862909317,0
1779996525110766600,16.8677666015625,0.0030249999836087227,0.12925000488758087,0.0037124999798834324
1779996525128043000,16.88504296875,0.0042624999769032,0.15729999542236328,0.00494999997317791
1779996525145319400,16.9023193359375,0.0030249999836087227,0.08882500231266022,0.0037124999798834324
1779996525171234300,16.928234375,-0.0006874999962747097,-0.08703749626874924,-0.0037124999798834324
1779996525188510500,16.945510498046875,-0.0017874999903142452,-0.1518000066280365,-0.0037124999798834324
1779996525205787100,16.962787109375,-0.0006874999962747097,-0.1260875016450882,-0.0037124999798834324
1779996525223063600,16.9800634765625,-0.0006874999962747097,-0.02722499892115593,0.0012374999932944775
1779996525240340000,16.997340087890624,-0.0006874999962747097,0.08648750185966492,0.0012374999932944775
1779996525257616400,17.014616455078126,0.0005499999970197678,0.14877499639987946,0.002474999986588955
1779996525274893000,17.03189306640625,0.0005499999970197678,0.12677499651908875,0.002474999986588955
1779996525292169200,17.049169189453124,-0.0006874999962747097,0.03396249935030937,0.0012374999932944775
1779996525309446000,17.06644580078125,-0.0017874999903142452,-0.08208750188350677,-0.0012374999932944775
1779996525326722300,17.083722412109374,-0.0030249999836087227,-0.14932499825954437,-0.00494999997317791
1779996525352637000,17.109636962890626,-0.0006874999962747097,-0.08579999953508377,-0.002474999986588955
1779996525369913300,17.126913330078125,0.0017874999903142452,0.029012499377131462,0.0012374999932944775
1779996525387189800,17.144189697265624,0.0017874999903142452,0.12553749978542328,0.0037124999798834324
1779996525413104400,17.1701044921875,0.0005499999970197678,0.12306249886751175,0.002474999986588955
1779996525430380800,17.187380859375,-0.0006874999962747097,0.030249999836087227,0.0012374999932944775
1779996525447657500,17.204657470703125,-0.0006874999962747097,-0.07975000143051147,-0.0012374999932944775
1779996525464934000,17.221933837890624,-0.0017874999903142452,-0.14079999923706055,-0.0037124999798834324
1779996525490848500,17.2478486328125,-0.0006874999962747097,-0.08332499861717224,0
1779996525508125000,17.265125,0.0005499999970197678,0.022962499409914017,0.0012374999932944775
1779996525525401600,17.282401611328126,0.0017874999903142452,0.11701250076293945,0.0037124999798834324
1779996525551316000,17.30831591796875,0.0005499999970197678,0.11948750168085098,0.002474999986588955
1779996525568592600,17.325592529296873,-0.0006874999962747097,0.030249999836087227,0
1779996525585869000,17.342869140625,-0.0016499999910593033,-0.07493750005960464,-0.00013749999925494194
1779996525603145500,17.3601455078125,-0.0016499999910593033,-0.13846249878406525,-0.0037124999798834324
1779996525629060000,17.38606005859375,-0.0004124999977648258,-0.07975000143051147,-0.00013749999925494194
1779996525646336500,17.40333642578125,-0.0004124999977648258,0.024062499403953552,-0.00013749999925494194
1779996525663613000,17.420613037109376,0.0008249999955296516,0.11329999566078186,0.002337499987334013
1779996525689527800,17.44652783203125,0.0008249999955296516,0.11687500029802322,0.002337499987334013
1779996525706804500,17.463804443359376,0.0008249999955296516,0.03258749842643738,-0.00013749999925494194
1779996525724080600,17.48108056640625,-0.0004124999977648258,-0.06998749822378159,-0.0013749999925494194
1779996525749995500,17.50699560546875,-0.0016499999910593033,-0.13846249878406525,-0.0037124999798834324
1779996525767272000,17.52427197265625,-0.002749999985098839,-0.08470000326633453,-0.00013749999925494194
1779996525784548000,17.541548095703124,0.0008249999955296516,0.01677500084042549,-0.00013749999925494194
1779996525801824800,17.55882470703125,0.002062499988824129,0.10711249709129333,0.002337499987334013
1779996525819101000,17.576100830078126,0.002062499988824129,0.13529999554157257,0.0035749999806284904
1779996525836377600,17.593377685546876,0.0008249999955296516,0.08277499675750732,-0.00013749999925494194
1779996525853654000,17.610654052734375,-0.0004124999977648258,-0.014987500384449959,0.0010999999940395355
1779996525870930400,17.627930419921874,-0.0016499999910593033,-0.10546249896287918,-0.00494999997317791
1779996525888206800,17.645206787109377,-0.0016499999910593033,-0.13103750348091125,-0.002612499985843897
1779996525914121500,17.67112158203125,-0.0016499999910593033,-0.035750001668930054,-0.002612499985843897
1779996525931398000,17.68839794921875,0.0008249999955296516,0.06311249732971191,0.002337499987334013
1779996525948674600,17.705674560546875,0.0008249999955296516,0.1266375035047531,0.0010999999940395355
1779996525965951000,17.722950927734374,0.0008249999955296516,0.11935000121593475,0.002337499987334013
1779996525983227400,17.740227294921876,0.0008249999955296516,0.0387750007212162,0.0010999999940395355
1779996526000503800,17.75750390625,-0.0004124999977648258,-0.06503749638795853,-0.002612499985843897
1779996526026418400,17.78341845703125,-0.0004124999977648258,-0.13227500021457672,-0.0037124999798834324
1779996526043694800,17.80069482421875,-0.0016499999910593033,-0.08346249908208847,-0.002612499985843897
1779996526060971500,17.817971435546873,-0.0004124999977648258,0.011824999935925007,0.0010999999940395355
1779996526078248000,17.835248046875,-0.0004124999977648258,0.10106249898672104,0.0010999999940395355
1779996526104162600,17.86116259765625,0.0017874999903142452,0.11948750168085098,0.0012374999932944775
1779996526121439000,17.87843896484375,0.0005499999970197678,0.04372499883174896,0.002474999986588955
1779996526138715400,17.89571533203125,0.0005499999970197678,-0.060224998742341995,0
1779996526155991800,17.91299169921875,-0.0017874999903142452,-0.1297999918460846,-0.002474999986588955
1779996526173268500,17.9302685546875,-0.0006874999962747097,-0.12484999746084213,0
1779996526190544600,17.947544677734374,-0.0006874999962747097,-0.04675000160932541,-0.0012374999932944775
1779996526207821300,17.9648212890625,0.0005499999970197678,0.05706249922513962,0.002474999986588955
1779996526233736200,17.990736083984373,0.0017874999903142452,0.1340624988079071,0.0012374999932944775
1779996526251012400,18.008012451171876,0.0005499999970197678,0.09253749996423721,0.002474999986588955
1779996526268288800,18.025288818359375,-0.0006874999962747097,-0.0015124999918043613,-0.002474999986588955
1779996526285565200,18.042565185546874,-0.0017874999903142452,-0.0943249985575676,-0.0012374999932944775
1779996526302841600,18.059841552734376,-0.0017874999903142452,-0.13103750348091125,-0.00494999997317791
1779996526320118000,18.077117919921875,-0.0017874999903142452,-0.09075000137090683,-0.0037124999798834324
1779996526346033000,18.103032958984375,0.0005499999970197678,0.05348749831318855,0.0012374999932944775
1779996526363309300,18.120309326171874,0.0005499999970197678,0.12058749794960022,0.00494999997317791
1779996526380585500,18.13758544921875,0.0017874999903142452,0.11948750168085098,0.0012374999932944775
1779996526406500400,18.163500244140625,-0.0006874999962747097,0.002199999988079071,-0.0147124994546175
1779996526423777000,18.180777099609376,-0.0017874999903142452,-0.07851249724626541,0.007287499960511923
1779996526441053400,18.198053466796875,-0.0017874999903142452,-0.11756250262260437,0.00494999997317791
1779996526466967800,18.2239677734375,-0.0017874999903142452,-0.06379999965429306,0.0037124999798834324
1779996526484244500,18.241244384765626,0.0005499999970197678,0.025299999862909317,0
1779996526501521000,18.25852099609375,0.0030249999836087227,0.09624999761581421,0.0037124999798834324
1779996526518797300,18.27579736328125,0.0017874999903142452,0.1097249984741211,0.002474999986588955
1779996526544712200,18.301712158203124,0.0005499999970197678,0.018012499436736107,0
1779996526561988600,18.318988525390626,-0.0006874999962747097,-0.06379999965429306,-0.00494999997317791
1779996526579265000,18.33626513671875,-0.0017874999903142452,-0.10903749614953995,0
1779996526605179600,18.3621796875,-0.0016499999910593033,-0.060224998742341995,-0.00494999997317791
1779996526622456000,18.3794560546875,-0.0004124999977648258,0.026537500321865082,0.002337499987334013
1779996526639732500,18.396732421875,0.002062499988824129,0.09735000133514404,0.0010999999940395355
1779996526665647000,18.422647216796875,0.0008249999955296516,0.09129999577999115,0.0035749999806284904
1779996526682923500,18.439923583984374,-0.0004124999977648258,0.015537500381469727,-0.002612499985843897
1779996526700200000,18.457199951171877,-0.0016499999910593033,-0.06627500057220459,-0.00013749999925494194
1779996526726114800,18.48311474609375,-0.0016499999910593033,-0.10422500222921371,-0.0037124999798834324
1779996526743391200,18.50039111328125,-0.0004124999977648258,-0.056512501090765,-0.00013749999925494194
1779996526760667600,18.517667724609375,0.0008249999955296516,0.022824998944997787,0.0010999999940395355
1779996526786582300,18.543582275390627,0.002062499988824129,0.10353749990463257,0.0035749999806284904
1779996526803858700,18.560858642578125,-0.0004124999977648258,0.08401250094175339,0.0010999999940395355
1779996526821135000,18.578135009765624,-0.0004124999977648258,0.015537500381469727,0.002337499987334013
1779996526847049700,18.6040498046875,-0.0004124999977648258,-0.0882750004529953,-0.0037124999798834324
1779996526864326100,18.621326171875,-0.0004124999977648258,-0.09927500039339066,-0.0013749999925494194
1779996526881602800,18.638602783203126,-0.0016499999910593033,-0.055275000631809235,-0.0013749999925494194
1779996526898879200,18.655879150390625,0.0008249999955296516,0.022824998944997787,-0.00013749999925494194
1779996526916155600,18.67315576171875,0.0008249999955296516,0.08758749812841415,0.0010999999940395355
1779996526933432000,18.69043212890625,0.0008249999955296516,0.09982500225305557,0.002337499987334013
1779996526950708700,18.707708740234374,-0.0004124999977648258,0.05458749830722809,0.0010999999940395355
1779996526976623000,18.733623046875,-0.0004124999977648258,-0.057750001549720764,-0.0013749999925494194
1779996526993899800,18.750899658203124,-0.0004124999977648258,-0.09679999947547913,-0.002612499985843897
1779996527011176200,18.76817626953125,-0.0004124999977648258,-0.07975000143051147,0.006049999967217445
1779996527028452600,18.78545263671875,0.0008249999955296516,-0.016224998980760574,-0.00989999994635582
1779996527045729000,18.80272900390625,0.0008249999955296516,0.05224999785423279,-0.008662499487400055
1779996527063005400,18.82000537109375,0.0008249999955296516,0.08153750002384186,0.0035749999806284904
1779996527080282000,18.8372822265625,-0.0004124999977648258,0.05458749830722809,-0.00989999994635582
1779996527106196700,18.86319677734375,-0.0004124999977648258,-0.038224998861551285,0.004812499973922968
1779996527123473000,18.880472900390625,-0.0004124999977648258,-0.07369999587535858,0.006049999967217445
1779996527140749300,18.897749267578124,-0.0004124999977648258,-0.052937500178813934,0.007287499960511923
1779996527158026000,18.91502587890625,0.0008249999955296516,0.007012499962002039,-0.018424998968839645
1779996527175302700,18.932302734375,0.0008249999955296516,0.06435000151395798,-0.011137500405311584
1779996527192579000,18.9495791015625,0.0008249999955296516,0.07301250100135803,-0.00494999997317791
1779996527209855200,18.966855224609375,0.0008249999955296516,0.030249999836087227,-0.011137500405311584
1779996527227132000,18.9841318359375,-0.0004124999977648258,-0.023512499406933784,0.006049999967217445
1779996527244408000,19.001407958984377,-0.0004124999977648258,-0.03217500075697899,-0.01347499992698431
1779996527270323000,19.027322998046873,0.002062499988824129,0.05582499876618385,0.008387500420212746
1779996527287599400,19.044599365234376,0.0008249999955296516,0.10106249898672104,0.010862499475479126
1779996527304875800,19.061875732421875,0.002062499988824129,0.08635000139474869,-0.00989999994635582
1779996527330790400,19.087790283203127,0.0008249999955296516,0.002062499988824129,0.007287499960511923
1779996527348066800,19.10506689453125,-0.0004124999977648258,-0.003987499978393316,-0.029424998909235
1779996527365343000,19.122343017578125,0.002062499988824129,0.04729999974370003,-0.0013749999925494194
1779996527391257900,19.1482578125,0.002062499988824129,0.09858749806880951,-0.01347499992698431
1779996527408534500,19.165534423828124,0.0008249999955296516,0.07535000145435333,-0.0013749999925494194
1779996527425810700,19.182810791015626,0.0008249999955296516,0.025299999862909317,0.0010999999940395355
1779996527451725600,19.2087255859375,0.04124999791383743,-0.0015124999918043613,-0.030662499368190765
1779996527469002000,19.226001953125,0.024062499403953552,0.0448249988257885,-0.04647500067949295
1779996527486278400,19.2432783203125,0.010587500408291817,0.09006249904632568,-0.01966249942779541
1779996527503554800,19.260554931640623,0.0032999999821186066,0.07782500237226486,-0.02447500079870224
1779996527520831500,19.27783154296875,0.002062499988824129,0.020349999889731407,-0.00989999994635582
1779996527538108000,19.29510791015625,0.0057749999687075615,-0.030937500298023224,0.010862499475479126
1779996527555384300,19.31238427734375,0.008249999955296516,-0.045512501150369644,0.0193875003606081
1779996527572660700,19.32966064453125,0.009349999949336052,0.007012499962002039,-0.033137500286102295
1779996527589937200,19.346937255859373,0.006737499963492155,0.08401250094175339,-0.030524998903274536
1779996527607213600,19.364213623046876,0.0042624999769032,0.12182500213384628,-0.02928750030696392
1779996527624490000,19.381489990234375,0.0017874999903142452,0.09748750180006027,-0.01223750039935112
1779996527641766400,19.398766357421874,0.0017874999903142452,0.04977500066161156,0.0012374999932944775
1779996527659042800,19.416042724609376,0.018975000828504562,0.030249999836087227,0.0170499999076128
1779996527676319200,19.4333193359375,0.0030249999836087227,0.07796250283718109,0.03671250119805336
1779996527693595600,19.450595703125,0.0017874999903142452,0.12925000488758087,0.042762499302625656
1779996527710872000,19.4678720703125,0.0017874999903142452,0.1340624988079071,-0.007287499960511923
1779996527728148700,19.485148681640624,0.0017874999903142452,0.07672499865293503,-0.015949999913573265
1779996527754063000,19.51106298828125,0.0042624999769032,0.03753750026226044,-0.020762499421834946
1779996527771339800,19.52833984375,0.005499999970197678,0.04619999974966049,-0.01223750039935112
1779996527788616200,19.5456162109375,0.0017874999903142452,0.07672499865293503,-0.028049999848008156
1779996527805892600,19.562892578125,0.0017874999903142452,0.11082500219345093,-0.010999999940395355
1779996527823169000,19.5801689453125,-0.0006874999962747097,0.10477499663829803,-0.01347499992698431
1779996527840445700,19.59744580078125,-0.0006874999962747097,0.06929999589920044,-0.010999999940395355
1779996527866360000,19.623360107421874,-0.005499999970197678,0.06077500060200691,-0.0147124994546175
1779996527883636700,19.64063671875,-0.0042624999769032,0.08882500231266022,-0.08304999768733978
1779996527900913200,19.6579130859375,-0.0030249999836087227,0.12430000305175781,-0.08304999768733978
1779996527926827800,19.683827880859376,-0.005499999970197678,0.11824999749660492,-0.023237500339746475
1779996527944104400,19.7011044921875,-0.006737499963492155,0.08153750002384186,0.007287499960511923
1779996527961380600,19.718380615234373,-0.005499999970197678,0.04001250118017197,0.054999999701976776
1779996527987295500,19.74429541015625,0.0005499999970197678,0.04619999974966049,-0.042762499302625656
1779996528004572000,19.761572021484376,-0.0019249999895691872,0.10353749990463257,-0.045237500220537186
1779996528021848300,19.778848388671875,-0.005499999970197678,0.13653749227523804,0.002474999986588955
1779996528047763000,19.804762939453123,-0.0030249999836087227,0.13901250064373016,0.04399999976158142
1779996528065039400,19.822039306640626,0.0005499999970197678,0.11824999749660492,0.07328750193119049
1779996528082315800,19.839315673828125,0.005499999970197678,0.10353749990463257,0.04152499884366989
1779996528099592400,19.856592529296876,0.0057749999687075615,0.10106249898672104,-0.0013749999925494194
1779996528116868900,19.873868896484375,0.0008249999955296516,0.09377499669790268,-0.01718750037252903
1779996528134145300,19.891145263671874,-0.0004124999977648258,0.08153750002384186,-0.01966249942779541
1779996528151421700,19.908421630859376,-0.0004124999977648258,0.07177499681711197,0.013337500393390656
1779996528168698000,19.925697998046875,0.0032999999821186066,0.0668250024318695,0.0193875003606081
1779996528185974500,19.942974609375,0.008112499490380287,0.06077500060200691,0.015812499448657036
1779996528211889200,19.96888916015625,0.0032999999821186066,0.0668250024318695,0.028049999848008156
1779996528229165600,19.98616552734375,-0.0004124999977648258,0.08635000139474869,0.014574999921023846
1779996528246442200,20.003442138671875,-0.0004124999977648258,0.08153750002384186,-0.018424998968839645
1779996528263718400,20.020718505859374,0.0032999999821186066,0.06435000151395798,-0.007424999959766865
1779996528280994800,20.037994873046873,0.013062499463558197,0.06201250106096268,0.018287500366568565
1779996528298271500,20.055271484375,0.004537499975413084,0.07535000145435333,0.05115000158548355
1779996528315548000,20.0725478515625,-0.0016499999910593033,0.1023000031709671,0.030387500301003456
1779996528332824300,20.08982421875,-0.0016499999910593033,0.12430000305175781,0.030387500301003456
1779996528350100700,20.107100830078124,-0.0004124999977648258,0.12911249697208405,0.025575000792741776
1779996528367377200,20.124377197265623,0.0032999999821186066,0.1083500012755394,0.025575000792741776
1779996528384653800,20.14165380859375,0.0032999999821186066,0.0705375000834465,0.02186249941587448
1779996528401930200,20.15893017578125,0.002062499988824129,0.03506249934434891,0.02928750030696392
1779996528427844900,20.184844970703125,0.002062499988824129,-0.010174999944865704,0.037812501192092896
1779996528445121300,20.202121337890624,0.002062499988824129,-0.02969999983906746,0.013337500393390656
1779996528462397700,20.219397705078126,0.0008249999955296516,-0.02227500081062317,-0.03671250119805336
1779996528479674400,20.23667431640625,-0.0028874999843537807,-0.007699999958276749,-0.033137500286102295
1779996528496950500,20.253950439453124,0.0008249999955296516,-0.006462499964982271,0.0035749999806284904
1779996528514227200,20.271227294921875,0.0008249999955296516,-0.002749999985098839,0.006049999967217445
1779996528531503400,20.28850341796875,0.0008249999955296516,0.018012499436736107,-0.012374999932944775
1779996528548779800,20.30577978515625,0.002062499988824129,0.0448249988257885,0.002337499987334013
1779996528566056400,20.323056396484375,0.002062499988824129,0.06324999779462814,0.006049999967217445
1779996528583332600,20.34033251953125,0.0008249999955296516,0.07177499681711197,-0.002612499985843897
1779996528600609300,20.357609375,0.002062499988824129,0.06929999589920044,0.014574999921023846
1779996528617885700,20.3748857421875,0.0032999999821186066,0.06929999589920044,0.0193875003606081
1779996528635161900,20.392161865234375,0.0032999999821186066,0.06201250106096268,0.032862499356269836
1779996528652438500,20.4094384765625,0.0008249999955296516,0.05829999968409538,0.02433750033378601
1779996528669715000,20.42671484375,0.0008249999955296516,0.04853750020265579,0.0170499999076128
1779996528686991400,20.443991455078127,0.002062499988824129,0.026537500321865082,0.004812499973922968
1779996528704267800,20.461267822265626,0.002062499988824129,-0.010174999944865704,0.013337500393390656
1779996528721544200,20.478544189453125,-0.0004124999977648258,-0.030937500298023224,0.004812499973922968
1779996528747459000,20.504458984375,-0.0016499999910593033,0.015537500381469727,-0.002612499985843897
1779996528764735500,20.521735595703124,-0.0004124999977648258,0.04729999974370003,-0.015949999913573265
1779996528782012000,20.539011962890626,0.002062499988824129,0.04124999791383743,-0.0013749999925494194
1779996528799288300,20.556288330078125,0.002062499988824129,0.03148749843239784,-0.002612499985843897
1779996528825203200,20.582203125,0.002062499988824129,0.01924999989569187,0.0010999999940395355
1779996528842479400,20.599479248046876,0.004537499975413084,0.008249999955296516,0.025575000792741776
1779996528859755800,20.616755859375,0.006874999962747097,0.007012499962002039,0.04138749837875366
1779996528885670400,20.64267041015625,0.0008249999955296516,0.010587500408291817,-0.007424999959766865
1779996528902947000,20.659947021484374,-0.0004124999977648258,0.008249999955296516,-0.020899999886751175
1779996528920223200,20.67722314453125,0.0008249999955296516,-0.005224999971687794,-0.015949999913573265
1779996528946138000,20.70313818359375,0.002062499988824129,-0.04427500069141388,0.025575000792741776
1779996528963414500,20.72041455078125,0.0008249999955296516,-0.04675000160932541,0.035337500274181366
1779996528980691000,20.73769091796875,-0.0004124999977648258,-0.02474999986588955,0.013337500393390656
1779996529006605600,20.76360546875,0.0008249999955296516,0.022824998944997787,-0.006187499966472387
1779996529023882000,20.780882080078126,0.002062499988824129,0.04729999974370003,0.004812499973922968
1779996529041158400,20.798158447265624,0.0008249999955296516,0.0705375000834465,-0.0037124999798834324
1779996529067073300,20.8240732421875,0.0008249999955296516,0.06558749824762344,0.02928750030696392
1779996529084349700,20.841349609375,0.0008249999955296516,0.04606249928474426,0.030387500301003456
1779996529101626000,20.858626220703126,0.002062499988824129,0.029012499377131462,0.025575000792741776
1779996529118902500,20.875902587890625,0.002062499988824129,0.011824999935925007,0.004812499973922968
1779996529136179200,20.89317919921875,0.0008249999955296516,-0.005224999971687794,0.0010999999940395355
1779996529153455400,20.910455322265626,-0.0004124999977648258,-0.013749999925494194,-0.011137500405311584
1779996529170732000,20.92773193359375,-0.0004124999977648258,-0.006462499964982271,-0.03437500074505806
1779996529188008400,20.945008544921876,-0.0004124999977648258,-0.006462499964982271,-0.015949999913573265
1779996529205284900,20.962284912109375,0.0008249999955296516,-0.014987500384449959,0.015812499448657036
1779996529222561300,20.979561279296874,0.0008249999955296516,-0.01251249946653843,0.013337500393390656
1779996529239837700,20.996837646484376,-0.0004124999977648258,-0.0004124999977648258,-0.002612499985843897
1779996529265752600,21.022752685546877,-0.0004124999977648258,-0.003987499978393316,-0.01718750037252903
1779996529283028700,21.04002880859375,0.0032999999821186066,-0.007699999958276749,0.002337499987334013
1779996529300305400,21.057305419921875,0.0008249999955296516,-0.003987499978393316,0.0035749999806284904
1779996529326219800,21.0832197265625,0.0008249999955296516,0.021587500348687172,-0.006187499966472387
1779996529343496400,21.100496337890625,-0.0004124999977648258,0.027775000780820847,-0.007424999959766865
1779996529360772900,21.11777294921875,0.0008249999955296516,0.021587500348687172,0.007287499960511923
1779996529386687500,21.1436875,0.0008249999955296516,0.013062499463558197,0.004812499973922968
1779996529403964200,21.160964111328123,0.0008249999955296516,0.015537500381469727,-0.011137500405311584
1779996529421240300,21.178240234375,-0.0004124999977648258,0.013062499463558197,-0.008662499487400055
1779996529447155200,21.2041552734375,0.002062499988824129,-0.01251249946653843,0.02433750033378601
1779996529464431600,21.221431640625,0.002062499988824129,-0.01251249946653843,0.0193875003606081
1779996529481707800,21.238707763671876,0.0008249999955296516,0.008249999955296516,0.0170499999076128
1779996529498984400,21.255984375,-0.0004124999977648258,0.014299999922513962,0.0035749999806284904
1779996529516260900,21.2732607421875,0.0008249999955296516,0.0032999999821186066,0.0035749999806284904
1779996529533537300,21.290537353515624,-0.0004124999977648258,-0.0015124999918043613,-0.002612499985843897
1779996529550813700,21.307813720703123,-0.0016499999910593033,0.007012499962002039,-0.02213750034570694
1779996529568090400,21.32509033203125,0.002062499988824129,0.0032999999821186066,-0.006187499966472387
1779996529585366500,21.342366455078125,0.002062499988824129,0.002062499988824129,0.009624999947845936
1779996529602643000,21.359642822265624,0.0008249999955296516,0.01677500084042549,0.009624999947845936
1779996529628557800,21.385557861328124,0.0008249999955296516,0.04358749836683273,0.002337499987334013
1779996529645834200,21.402834228515626,0.0008249999955296516,0.04235000163316727,0.0193875003606081
1779996529663110700,21.420110595703125,0.002062499988824129,0.024062499403953552,0.02928750030696392
1779996529689025300,21.446025390625,0.002062499988824129,0.018012499436736107,-0.00013749999925494194
1779996529706301700,21.4633017578125,0.0008249999955296516,0.025299999862909317,-0.0013749999925494194
1779996529723578000,21.480578125,0.0008249999955296516,0.024062499403953552,0.007287499960511923
1779996529740854500,21.4978544921875,0.0008249999955296516,0.01677500084042549,0.002337499987334013
1779996529766769400,21.523769287109374,-0.0004124999977648258,0.002062499988824129,-0.0037124999798834324
1779996529784045600,21.541045654296877,-0.0004124999977648258,0.0008249999955296516,0.014574999921023846
1779996529801322200,21.558322265625,0.0008249999955296516,-0.0015124999918043613,0.0170499999076128
1779996529827236900,21.58423681640625,-0.0004124999977648258,0.0008249999955296516,-0.00013749999925494194
1779996529844513300,21.60151318359375,-0.0016499999910593033,-0.0015124999918043613,-0.02447500079870224
1779996529861789700,21.618789794921874,-0.0016499999910593033,-0.01993750035762787,-0.011137500405311584
1779996529887704300,21.644704345703126,-0.0016499999910593033,-0.02722499892115593,-0.00989999994635582
1779996529904980700,21.661980712890625,-0.0016499999910593033,-0.01993750035762787,-0.0147124994546175
1779996529922257200,21.679257080078123,-0.002749999985098839,-0.035750001668930054,-0.037950001657009125
1779996529948171800,21.705171875,-0.006462499964982271,-0.12622499465942383,-0.10271249711513519
1779996529965448400,21.722448486328126,-0.010174999944865704,-0.2667500078678131,-0.12594999372959137
1779996529982724600,21.739724609375,-0.005224999971687794,-0.6014249920845032,0.1891999989748001
1779996530000001300,21.757001220703124,-0.07369999587535858,-1.7450125217437744,0.9894499778747559
1779996530025916000,21.782916015625,-0.02241249941289425,-3.4614250659942627,-1.6139750480651855
1779996530043192300,21.8001923828125,-0.038224998861551285,-2.447499990463257,1.3462624549865723
1779996530060468700,21.81746875,0.05211250111460686,-0.11522500216960907,1.6651250123977661
1779996530077745400,21.834745361328125,-0.02474999986588955,1.868899941444397,1.8154125213623047
1779996530095021800,21.852021728515624,-0.16307500004768372,2.7253875732421875,0.08057499676942825
1779996530112298000,21.869298095703126,-0.15578749775886536,1.7785625457763672,-3.0127625465393066
1779996530129574700,21.88657470703125,0.014024999924004078,0.8427374958992004,-2.800187587738037
1779996530146851000,21.90385107421875,0.04455000162124634,-1.372249960899353,4.179450035095215
1779996530164127500,21.92112744140625,0.07507500052452087,-2.6684625148773193,0.5802500247955322
1779996530181404000,21.93840380859375,0.022549999877810478,-2.338599920272827,-1.1336874961853027
1779996530198680300,21.955680419921876,-0.007974999956786633,-0.5684249997138977,-0.9248250126838684
1779996530224595000,21.981594970703124,0.0017874999903142452,2.0559000968933105,0.1648624986410141
1779996530241871600,21.99887158203125,0.0005499999970197678,2.6446750164031982,-0.5912500023841858
1779996530259147800,22.016147705078126,0.029975000768899918,1.8005625009536743,-0.0085249999538064
1779996530285062700,22.042062744140626,-0.03355000168085098,-1.484724998474121,-0.7917249798774719
1779996530302338800,22.0593388671875,-0.03726249933242798,-2.625699996948242,0.26510000228881836
1779996530319615500,22.076615478515624,-0.006737499963492155,-2.2017874717712402,0.3909125030040741
1779996530345529900,22.10252978515625,0.018975000828504562,0.27211248874664307,0.742775022983551
1779996530362806500,22.119806640625,-0.02502499893307686,1.938612461090088,0.8722999691963196
1779996530380082700,22.137082763671874,-0.06297499686479568,2.4540998935699463,-0.5277249813079834
1779996530397359400,22.154359375,-0.09707500040531158,1.3961750268936157,-3.006574869155884
1779996530414635500,22.171635498046875,0.031075000762939453,-0.30566251277923584,1.9131749868392944
1779996530431912000,22.188911865234374,0.020075000822544098,-1.8768750429153442,0.4226749837398529
1779996530449188600,22.206188720703125,-0.04097500070929527,-2.73075008392334,-2.003649950027466
1779996530466465000,22.223465087890624,-0.028737500309944153,-1.7473499774932861,0.7500625252723694
1779996530483741400,22.240741455078126,0.07878749817609787,0.38940000534057617,1.6920750141143799
1779996530501017900,22.258017822265625,-0.014024999924004078,1.8163750171661377,1.5369750261306763
1779996530526932700,22.2839326171875,-0.08978749811649323,1.7137999534606934,-1.6370749473571777
1779996530544209200,22.301209228515624,-0.06655000150203705,0.7327374815940857,-3.8068249225616455
1779996530561485600,22.318485595703127,0.028737500309944153,-0.7467625141143799,3.1776249408721924
1779996530587400200,22.344400146484375,0.036024998873472214,-2.0234498977661133,-0.4081000089645386
1779996530604676600,22.361676513671874,-0.0494999997317791,-1.7143499851226807,-1.5540249347686768
1779996530621953000,22.378953125,0.0030249999836087227,0.05953750014305115,-0.7122499942779541
1779996530647868000,22.404867919921877,0.021312499418854713,2.0044748783111572,1.001824975013733
1779996530665144000,22.42214404296875,-0.005499999970197678,2.0021374225616455,-0.6329125165939331
1779996530682420700,22.439420654296875,0.011549999937415123,1.173699975013733,-0.6914874911308289
1779996530699697200,22.456697265625,0.011549999937415123,-0.47795000672340393,1.2461625337600708
1779996530725611800,22.48261181640625,-0.036024998873472214,-1.9696874618530273,-0.5424374938011169
1779996530742888200,22.49988818359375,-0.026262499392032623,-1.4114375114440918,1.032349944114685
1779996530760164600,22.51716455078125,0.006737499963492155,-0.02722499892115593,0.7415375113487244
1779996530786079200,22.543079345703124,-0.031212499365210533,1.5989874601364136,0.10257499665021896
1779996530803355600,22.560355712890626,-0.05073750019073486,1.6648499965667725,-1.5027375221252441
1779996530820632000,22.577632080078125,0.03973750025033951,1.3289375305175781,-0.9578250050544739
1779996530846547000,22.603546875,0.0005499999970197678,-1.187862515449524,0.015949999913573265
1779996530863823000,22.620822998046876,-0.04702499881386757,-1.9318749904632568,-1.631024956703186
