time,seconds_elapsed,z,y,x
1779996508490894300,0.247894287109375,9.850050926208496,-0.09405000507831573,-1.1040000915527344
1779996508508170800,0.265170654296875,10.153950691223145,-0.07005000114440918,-1.1400001049041748
1779996508525447000,0.282447021484375,9.91395092010498,-0.019950000569224358,-1.1710500717163086
1779996508542723300,0.299723388671875,9.75195026397705,-0.06599999964237213,-1.1329500675201416
1779996508559999700,0.316999755859375,9.682050704956055,-0.10905000567436218,-1.0900501012802124
1779996508577276000,0.33427587890625,9.877950668334961,-0.09195000678300858,-1.0920000076293945
1779996508594552300,0.35155224609375,9.759000778198242,-0.037050001323223114,-1.0969500541687012
1779996508611828500,0.368828369140625,9.700950622558594,-0.05595000088214874,-1.0999500751495361
1779996508629105000,0.38610498046875,9.559950828552246,-0.0799500048160553,-1.0830000638961792
1779996508646381000,0.403381103515625,9.694050788879395,-0.09000000357627869,-1.071000099182129
1779996508672295700,0.429295654296875,9.895050048828125,-0.10200000554323196,-1.0999500751495361
1779996508689571800,0.44657177734375,9.8860502243042,-0.043950002640485764,-1.1329500675201416
1779996508706848300,0.46384814453125,9.87405014038086,-0.09405000507831573,-1.128000020980835
1779996508732762600,0.4897626953125,9.766050338745117,-0.11100000888109207,-1.1069999933242798
1779996508750039000,0.5070390625,9.763050079345703,-0.0970500037074089,-1.1119500398635864
1779996508767315200,0.524315185546875,9.892950057983398,-0.06105000153183937,-1.1119500398635864
1779996508784591600,0.541591552734375,9.799050331115723,0.016950000077486038,-1.128000020980835
1779996508801867800,0.55886767578125,9.784950256347656,-0.09000000357627869,-1.0920000076293945
1779996508819144200,0.576144287109375,9.772950172424316,-0.17295001447200775,-1.057050108909607
1779996508836420400,0.59342041015625,9.841950416564941,-0.05100000277161598,-1.071000099182129
1779996508853696800,0.61069677734375,9.787050247192383,-0.0580500029027462,-1.0609500408172607
1779996508870973000,0.627972900390625,9.651000022888184,-0.07005000114440918,-1.0900501012802124
1779996508888249300,0.645249267578125,9.807000160217285,-0.12105000764131546,-1.0780500173568726
1779996508905525800,0.66252587890625,9.75195026397705,-0.07800000160932541,-1.0780500173568726
1779996508922802000,0.679802001953125,9.782999992370605,-0.06599999964237213,-1.0780500173568726
1779996508940078300,0.697078369140625,9.748950004577637,-0.10200000554323196,-1.075950026512146
1779996508957354500,0.7143544921875,9.735000610351562,-0.08505000174045563,-1.1020500659942627
1779996508974631000,0.731630859375,9.768000602722168,-0.05595000088214874,-1.114050030708313
1779996508991907000,0.748906982421875,9.88800048828125,-0.0990000069141388,-1.1119500398635864
1779996509009183500,0.76618359375,9.96405029296875,-0.10905000567436218,-1.1190000772476196
1779996509026460000,0.7834599609375,9.835050582885742,-0.13005000352859497,-1.0999500751495361
1779996509043736000,0.800736083984375,9.670050621032715,-0.07500000298023224,-1.0950000286102295
1779996509061012500,0.818012451171875,9.868950843811035,-0.05595000088214874,-1.114050030708313
1779996509078288400,0.835288330078125,9.816000938415527,-0.11595000326633453,-1.13100004196167
1779996509095564800,0.852564697265625,9.829950332641602,-0.15900000929832458,-1.1119500398635864
1779996509112841000,0.869841064453125,9.832950592041016,-0.06599999964237213,-1.0849500894546509
1779996509130117400,0.887117431640625,9.694050788879395,-0.10605000704526901,-1.0519500970840454
1779996509147393800,0.904393798828125,9.670050621032715,-0.12300000339746475,-1.072950005531311
1779996509164670000,0.921669921875,9.940950393676758,-0.07304999977350235,-1.1260499954223633
1779996509181946400,0.9389462890625,9.84000015258789,-0.08205000311136246,-1.1040000915527344
1779996509199222500,0.956222412109375,9.079050064086914,-0.09195000678300858,-1.045050024986267
1779996509216499000,0.9734990234375,10.302000045776367,-0.1279500126838684,-1.0879501104354858
1779996509233775400,0.990775390625,9.91395092010498,-0.07005000114440918,-1.1190000772476196
1779996509251051500,1.008051513671875,10.129950523376465,-0.10395000129938126,-1.144950032234192
1779996509268328000,1.025327880859375,10.075050354003906,-0.039000000804662704,-1.1790000200271606
1779996509285604400,1.042604248046875,9.462000846862793,-0.11400000751018524,-1.1040000915527344
1779996509302880500,1.059880615234375,9.277950286865234,-0.11595000326633453,-1.0489500761032104
1779996509320157000,1.077156982421875,9.790050506591797,-0.07304999977350235,-1.0950000286102295
1779996509337433000,1.09443310546875,9.981000900268555,-0.0580500029027462,-1.1329500675201416
1779996509354709500,1.11170947265625,9.997950553894043,-0.10395000129938126,-1.1190000772476196
1779996509371985700,1.128985595703125,9.766050338745117,-0.11100000888109207,-1.059000015258789
1779996509389262000,1.146261962890625,9.811050415039062,-0.1489500105381012,-1.0249500274658203
1779996509406538500,1.16353857421875,9.63900089263916,-0.09405000507831573,-1.0399500131607056
1779996509423814700,1.180814697265625,9.778050422668457,-0.08205000311136246,-1.075950026512146
1779996509441091000,1.198091064453125,9.720000267028809,-0.10200000554323196,-1.0780500173568726
1779996509458367200,1.2153671875,9.634050369262695,-0.15405000746250153,-1.1260499954223633
1779996509475643600,1.2326435546875,9.820950508117676,-0.09195000678300858,-1.1569499969482422
1779996509492919800,1.249919921875,9.90195083618164,-0.037050001323223114,-1.1569499969482422
1779996509510196200,1.2671962890625,9.739950180053711,-0.13005000352859497,-1.144950032234192
1779996509527472400,1.284472412109375,9.759000778198242,-0.1399500072002411,-1.15500009059906
1779996509544748800,1.301748779296875,10.036050796508789,-0.09195000678300858,-1.1809500455856323
1779996509562025000,1.31902490234375,9.952950477600098,-0.1399500072002411,-1.1910001039505005
1779996509579301400,1.33630126953125,9.871050834655762,-0.11400000751018524,-1.1830500364303589
1779996509596577800,1.353577880859375,9.759000778198242,-0.08505000174045563,-1.1640000343322754
1779996509613854000,1.37085400390625,9.559950828552246,-0.1279500126838684,-1.128000020980835
1779996509631130400,1.38813037109375,9.61305046081543,-0.12300000339746475,-1.1089500188827515
1779996509648406500,1.405406494140625,9.792000770568848,-0.027000000700354576,-1.1380500793457031
1779996509665683000,1.422682861328125,9.86205005645752,-0.04200000315904617,-1.1569499969482422
1779996509682959400,1.43995947265625,9.937950134277344,-0.10200000554323196,-1.1329500675201416
1779996509700235500,1.457235595703125,9.85200023651123,-0.10395000129938126,-1.0900501012802124
1779996509717511700,1.47451171875,9.829950332641602,-0.05595000088214874,-1.0849500894546509
1779996509734788000,1.4917880859375,9.711000442504883,-0.031950000673532486,-1.1089500188827515
1779996509752064500,1.509064453125,9.655950546264648,-0.006000000052154064,-1.1400001049041748
1779996509769340700,1.526340576171875,9.814050674438477,-0.07500000298023224,-1.1359500885009766
1779996509786616800,1.543616943359375,9.952950477600098,-0.07500000298023224,-1.1359500885009766
1779996509803893200,1.560893310546875,9.75195026397705,-0.07500000298023224,-1.1260499954223633
1779996509821169700,1.578169677734375,9.844950675964355,-0.07800000160932541,-1.1329500675201416
1779996509838446000,1.595446044921875,9.897000312805176,-0.07005000114440918,-1.1790000200271606
1779996509855722200,1.61272216796875,9.877950668334961,-0.06300000101327896,-1.2000000476837158
1779996509872998400,1.629998291015625,9.547950744628906,-0.08505000174045563,-1.1710500717163086
1779996509890274800,1.64727490234375,9.782999992370605,-0.07800000160932541,-1.1710500717163086
1779996509907551000,1.664551025390625,9.708000183105469,-0.07005000114440918,-1.1740500926971436
1779996509924827400,1.681827392578125,9.723000526428223,-0.05400000140070915,-1.1670000553131104
1779996509942103800,1.699103759765625,9.720000267028809,-0.046950001269578934,-1.1590501070022583
1779996509959380000,1.7163798828125,9.969000816345215,-0.08205000311136246,-1.15500009059906
1779996509976656400,1.733656494140625,9.807000160217285,-0.06795000284910202,-1.1569499969482422
1779996509993932800,1.750932861328125,9.747000694274902,-0.018000001087784767,-1.168950080871582
1779996510011208700,1.768208740234375,9.735000610351562,-0.039000000804662704,-1.13100004196167
1779996510028485000,1.785485107421875,9.993000030517578,-0.04200000315904617,-1.0969500541687012
1779996510045761500,1.802761474609375,10.048050880432129,-0.0010500000789761543,-1.0969500541687012
1779996510063037700,1.82003759765625,9.706050872802734,-0.04905000329017639,-1.0950000286102295
1779996510080314000,1.837314208984375,9.598050117492676,-0.06599999964237213,-1.1160000562667847
1779996510097590300,1.85459033203125,9.598050117492676,-0.003000000026077032,-1.144950032234192
1779996510114866700,1.87186669921875,9.619950294494629,-0.05100000277161598,-1.13100004196167
1779996510132143000,1.88914306640625,9.640950202941895,-0.06105000153183937,-1.1040000915527344
1779996510149419300,1.906419189453125,9.859050750732422,-0.043950002640485764,-1.1260499954223633
1779996510166695400,1.9236953125,9.880950927734375,-0.07005000114440918,-1.1569499969482422
1779996510183971800,1.940971923828125,10.02405071258545,-0.06300000101327896,-1.237950086593628
1779996510201248300,1.958248291015625,10.032000541687012,-0.06105000153183937,-1.240950107574463
1779996510227163000,1.984162841796875,9.993000030517578,-0.11100000888109207,-1.1759999990463257
1779996510244439000,2.00143896484375,10.065000534057617,-0.06795000284910202,-1.1670000553131104
1779996510261715200,2.018715087890625,9.655950546264648,-0.0970500037074089,-1.1190000772476196
1779996510287629800,2.0446298828125,10.2610502243042,-0.06795000284910202,-0.9150000214576721
1779996510304906000,2.061906005859375,16.464000701904297,0.04605000093579292,-1.759950041770935
1779996510322182400,2.079182373046875,39.51000213623047,-2.2890000343322754,0.36900001764297485
1779996510348097000,2.105096923828125,-0.7740000486373901,0.9960000514984131,-2.041949987411499
1779996510365373000,2.122373046875,-6.631950378417969,-0.043950002640485764,0.2560500204563141
1779996510382649600,2.139649658203125,-7.938000202178955,-0.3840000033378601,1.024049997329712
1779996510399925800,2.15692578125,-3.3130502700805664,0.42195001244544983,0.0580500029027462
1779996510417202000,2.174201904296875,7.804050445556641,1.3980001211166382,-2.31000018119812
1779996510434478300,2.191478271484375,32.22300338745117,-2.703000068664551,-3.4399502277374268
1779996510451754800,2.208754638671875,39.04995346069336,-1.8769501447677612,-2.320050001144409
1779996510469031000,2.226031005859375,10.809000968933105,1.3999500274658203,-2.5039501190185547
1779996510486307000,2.24330712890625,5.91795015335083,-0.19005000591278076,-0.5299500226974487
1779996510503583700,2.260583740234375,-3.1240501403808594,-1.1809500455856323,0.9739500284194946
1779996510520860200,2.277860107421875,-7.539000511169434,-0.322050005197525,2.5920000076293945
1779996510538136300,2.29513623046875,-5.043000221252441,0.32295000553131104,1.0309500694274902
1779996510564051000,2.321051025390625,10.777950286865234,1.9480501413345337,-1.5589500665664673
1779996510581327000,2.3383271484375,42.643951416015625,-1.2169500589370728,-2.6100001335144043
1779996510598603500,2.355603515625,30.76605224609375,-2.0179500579833984,-2.0209500789642334
1779996510615879700,2.372879638671875,8.44694995880127,-0.21900001168251038,-1.057050108909607
1779996510633156000,2.390156005859375,-2.1690001487731934,0.1489500105381012,0.5380499958992004
1779996510650432300,2.407432373046875,-6.403950214385986,-0.5080500245094299,1.5840001106262207
1779996510667708700,2.424708740234375,-5.160000324249268,-0.24495001137256622,1.3140000104904175
1779996510684984800,2.44198486328125,1.194000005722046,0.37605002522468567,-0.4440000355243683
1779996510702261200,2.45926123046875,14.6089506149292,-0.1879500150680542,-2.0470499992370605
1779996510719537700,2.47653759765625,35.851051330566406,-1.390950083732605,-1.912950038909912
1779996510736813800,2.493813720703125,19.797000885009766,0.48900002241134644,-1.91100013256073
1779996510754090200,2.51109033203125,23.415000915527344,-0.987000048160553,-1.6360501050949097
1779996510771366400,2.528366455078125,-0.8100000619888306,0.47895002365112305,-0.9580500721931458
1779996510788642800,2.545642822265625,-6.583950519561768,-0.22395001351833344,0.9930000305175781
1779996510805919200,2.562919189453125,-6.724950313568115,-0.1399500072002411,1.2850500345230103
1779996510823195400,2.5801953125,-1.2960000038146973,0.700950026512146,-0.17805001139640808
1779996510840471800,2.597471923828125,8.869050025939941,1.3159500360488892,-1.3680000305175781
1779996510857748200,2.614748291015625,37.08300018310547,-1.1950500011444092,-2.0209500789642334
1779996510875024400,2.6320244140625,24.58005142211914,-0.7620000243186951,-1.420050024986267
1779996510892300500,2.649300537109375,9.103050231933594,1.360050082206726,-1.0690500736236572
1779996510909577000,2.666576904296875,6.528000354766846,-0.9750000238418579,-0.24300001561641693
1779996510926853400,2.683853271484375,-0.6850500106811523,-1.225950002670288,0.9880500435829163
1779996510944129500,2.701129638671875,-4.762950420379639,0.20595000684261322,1.9099501371383667
1779996510961406000,2.718406005859375,-1.0110000371932983,0.6799500584602356,0.43800002336502075
1779996510978682400,2.735682373046875,7.785000324249268,1.4359500408172607,-1.7220001220703125
1779996510995958500,2.75295849609375,20.911951065063477,-2.080049991607666,-2.3580000400543213
1779996511013235000,2.77023486328125,39.14595031738281,-3.3130502700805664,-1.2169500589370728
1779996511030511000,2.787510986328125,10.066950798034668,3.501000165939331,-3.1530001163482666
1779996511047787500,2.80478759765625,3.7069501876831055,0.8880000710487366,-0.4990500211715698
1779996511065063700,2.822063720703125,-1.2520500421524048,-0.2160000056028366,0.2560500204563141
1779996511082340000,2.839340087890625,2.190000057220459,-0.8550000190734863,0.742050051689148
1779996511108254500,2.86525439453125,3.721050262451172,0.6030000448226929,-0.6280500292778015
1779996511125531100,2.88253125,13.357950210571289,0.1770000010728836,-1.3579500913619995
1779996511142807300,2.899807373046875,37.2390022277832,-1.7310000658035278,-1.8460501432418823
1779996511160083700,2.917083740234375,13.248001098632812,0.8160000443458557,-1.7149500846862793
1779996511177360100,2.934360107421875,16.948951721191406,-0.3960000276565552,-0.6859500408172607
1779996511194636300,2.95163623046875,1.603950023651123,-0.5629500150680542,0.37800002098083496
1779996511211912700,2.96891259765625,-3.9180002212524414,-0.23100000619888306,1.3519500494003296
1779996511229188900,2.98618896484375,-3.207000255584717,0.27105000615119934,1.1509500741958618
1779996511246465300,3.00346533203125,2.038950204849243,0.6990000605583191,-0.3460500240325928
1779996511272379600,3.029379638671875,29.803951263427734,-1.3000500202178955,-1.2529500722885132
1779996511289656000,3.046656005859375,19.540950775146484,-0.43695002794265747,-0.8010000586509705
1779996511306932500,3.063932373046875,9.925950050354004,1.2490500211715698,-1.3440001010894775
1779996511332846800,3.089846923828125,9.547950744628906,-1.2049500942230225,-0.09195000678300858
1779996511350123300,3.107123291015625,-3.763050079345703,0.4600500166416168,0.8179500102996826
1779996511367399400,3.1243994140625,-3.322050094604492,0.42900002002716064,0.7080000042915344
1779996511393313800,3.150313720703125,5.18595027923584,0.9220500588417053,-0.5470499992370605
1779996511410590200,3.167590087890625,23.94900131225586,-1.26705002784729,-1.3050000667572021
1779996511427866400,3.184866455078125,23.65395164489746,-0.9610500335693359,-0.9420000314712524
1779996511453781000,3.210781005859375,10.378050804138184,0.5580000281333923,-0.7930500507354736
1779996511471057400,3.228057373046875,17.6820011138916,-1.4220000505447388,-0.8560500144958496
1779996511488333600,3.24533349609375,-2.848950147628784,-0.15405000746250153,-0.6400500535964966
1779996511514248400,3.27124853515625,0.12195000797510147,0.4020000100135803,0.4600500166416168
1779996511531524600,3.288524658203125,5.089950084686279,0.6109500527381897,-0.34095001220703125
1779996511548801000,3.305801025390625,21.481950759887695,-1.128000020980835,-1.1190000772476196
1779996511566077400,3.323077392578125,21.586950302124023,-0.8029500246047974,-0.7120500206947327
1779996511583353600,3.340353515625,9.688950538635254,0.8689500689506531,-0.8580000400543213
1779996511600630000,3.357630126953125,19.113000869750977,-1.1209501028060913,-0.364950031042099
1779996511626544400,3.38354443359375,-0.987000048160553,0.41895002126693726,-0.4339500069618225
1779996511643820800,3.40082080078125,-1.2720000743865967,0.3469500243663788,0.27000001072883606
1779996511661097000,3.418096923828125,1.4740500450134277,0.28995001316070557,0.19905000925064087
1779996511687011600,3.444011474609375,24.054000854492188,-1.5420000553131104,-0.8050500154495239
1779996511704287700,3.461287841796875,12.676050186157227,0.12195000797510147,-0.609000027179718
1779996511721564400,3.478564453125,17.25105094909668,-0.0580500029027462,-0.8650500178337097
1779996511747478800,3.504478759765625,4.558950424194336,0.06705000251531601,-0.25005000829696655
1779996511764755200,3.521755126953125,0.9030000567436218,0.37095001339912415,0.18900001049041748
1779996511782031400,3.53903125,1.7929500341415405,-0.10200000554323196,0.28995001316070557
1779996511807946000,3.564946044921875,4.863000392913818,0.1270500123500824,-0.013050000183284283
1779996511825222400,3.582222412109375,13.437000274658203,-0.10905000567436218,-0.7099500298500061
1779996511842498600,3.59949853515625,20.371051788330078,-0.5059500336647034,-0.9370500445365906
1779996511868413200,3.6254130859375,16.867950439453125,-0.2569500207901001,-0.7980000376701355
1779996511885689300,3.642689453125,9.129000663757324,-0.15405000746250153,-0.4320000112056732
1779996511902965800,3.6599658203125,2.0440499782562256,0.16095000505447388,0.15300001204013824
1779996511928880400,3.68588037109375,2.1040501594543457,-0.0970500037074089,0.40005001425743103
1779996511946156500,3.703156494140625,5.716950416564941,0.09405000507831573,-0.15900000929832458
1779996511963433000,3.720432861328125,15.061050415039062,-0.322050005197525,-0.6930000185966492
1779996511980709400,3.73770947265625,17.56905174255371,-0.1660500019788742,-0.9150000214576721
1779996511997985500,3.754985595703125,18.604949951171875,-0.286050021648407,-0.931950032711029
1779996512015262000,3.772261962890625,12.654000282287598,-0.18495000898838043,-0.6550500392913818
1779996512032538400,3.789538330078125,5.503950119018555,0.034050002694129944,-0.10695000737905502
1779996512049814500,3.806814453125,2.152050018310547,-0.07304999977350235,0.34905001521110535
1779996512067091000,3.824091064453125,1.3050000667572021,0.07200000435113907,0.33705002069473267
1779996512084367400,3.841367431640625,6.6910505294799805,-0.034950003027915955,-0.1570500135421753
1779996512110281700,3.86728173828125,15.832050323486328,-0.18105000257492065,-0.8100000619888306
1779996512127558400,3.884558349609375,19.1820011138916,-0.2569500207901001,-0.9580500721931458
1779996512144834300,3.901834228515625,15.837000846862793,-0.24795001745224,-0.817050039768219
1779996512162111000,3.919111083984375,9.204000473022461,-0.04200000315904617,-0.40605002641677856
1779996512179387100,3.93638720703125,4.023000240325928,-0.07304999977350235,0.1360500007867813
1779996512205301800,3.9623017578125,1.5150001049041748,0.08400000631809235,0.34200000762939453
1779996512222578000,3.979577880859375,7.0159502029418945,-0.12105000764131546,-0.11100000888109207
1779996512239854300,3.996854248046875,13.16100025177002,-0.15405000746250153,-0.6330000162124634
1779996512265768700,4.022768798828125,19.12200164794922,-0.30300000309944153,-0.9270000457763672
1779996512283045400,4.04004541015625,15.523050308227539,-0.16395001113414764,-0.7960500121116638
1779996512300321500,4.057321533203125,9.832950592041016,-0.0990000069141388,-0.41100001335144043
1779996512326236200,4.083236083984375,1.812000036239624,0.04800000041723251,0.30900001525878906
1779996512343512300,4.10051220703125,1.9840500354766846,0.019050000235438347,0.3330000042915344
1779996512360788700,4.117788818359375,6.78000020980835,-0.08700000494718552,-0.1189500093460083
1779996512386703000,4.143703125,15.633000373840332,-0.19500000774860382,-0.7740000486373901
1779996512403979500,4.1609794921875,18.634050369262695,-0.2639999985694885,-0.9250500202178955
1779996512421256000,4.178255859375,15.681000709533691,-0.1879500150680542,-0.8010000586509705
1779996512438532000,4.195531982421875,9.8860502243042,-0.13305000960826874,-0.41805002093315125
1779996512455808500,4.21280859375,4.051949977874756,-0.019950000569224358,0.10305000841617584
1779996512473085000,4.2300849609375,1.6540501117706299,0.034050002694129944,0.361050009727478
1779996512490361300,4.247361328125,3.8200502395629883,-0.006000000052154064,0.15105000138282776
1779996512507637500,4.264637451171875,9.739950180053711,-0.13305000960826874,-0.3360000252723694
1779996512524914000,4.281913818359375,15.391950607299805,-0.18300001323223114,-0.7290000319480896
1779996512542190300,4.2991904296875,18.282001495361328,-0.2639999985694885,-0.8629500269889832
1779996512559466500,4.316466552734375,15.760050773620605,-0.2070000171661377,-0.7720500230789185
1779996512576743000,4.333742919921875,9.907050132751465,-0.11100000888109207,-0.4249500334262848
1779996512594019300,4.351019287109375,4.369950294494629,-0.022950001060962677,0.0690000057220459
1779996512611295500,4.36829541015625,1.8169500827789307,0.010050000622868538,0.364050030708313
1779996512628572200,4.385572265625,3.8839502334594727,-0.022950001060962677,0.17205001413822174
1779996512645848600,4.4028486328125,9.675000190734863,-0.12105000764131546,-0.3169500231742859
1779996512671763000,4.428762939453125,17.03295135498047,-0.21405000984668732,-0.8220000267028809
1779996512689039400,4.446039306640625,17.457000732421875,-0.24000000953674316,-0.8509500622749329
1779996512706315500,4.4633154296875,12.93600082397461,-0.15195000171661377,-0.6160500049591064
1779996512723592000,4.480592041015625,7.194000244140625,-0.08505000174045563,-0.1469999998807907
1779996512740868000,4.4978681640625,2.7139501571655273,0.034050002694129944,0.2560500204563141
1779996512758144500,4.51514453125,2.439000129699707,-0.0010500000789761543,0.2989500164985657
1779996512775421000,4.5324208984375,6.531000137329102,-0.06795000284910202,-0.08505000174045563
1779996512792697300,4.549697265625,12.424050331115723,-0.15900000929832458,-0.5209500193595886
1779996512809973500,4.566973388671875,16.837051391601562,-0.23595000803470612,-0.778950035572052
1779996512827250000,4.58425,17.28404998779297,-0.23295001685619354,-0.820050060749054
1779996512853164500,4.61016455078125,10.225050926208496,-0.12300000339746475,-0.3960000276565552
1779996512870440700,4.627440673828125,4.810050010681152,-0.027000000700354576,0.07395000010728836
1779996512887717000,4.644717041015625,2.2260000705718994,0.015000000596046448,0.3330000042915344
1779996512913631700,4.6706318359375,6.463950157165527,-0.04905000329017639,-0.0799500048160553
1779996512930908200,4.687908203125,12.2760009765625,-0.18495000898838043,-0.5040000081062317
1779996512948184600,4.7051845703125,16.66200065612793,-0.21900001168251038,-0.7570500373840332
1779996512965460700,4.722460693359375,17.148000717163086,-0.24300001561641693,-0.8100000619888306
1779996512982737200,4.739737060546875,13.023000717163086,-0.1489500105381012,-0.6280500292778015
1779996513000013300,4.757013427734375,7.444950580596924,-0.04905000329017639,-0.21705001592636108
1779996513017290000,4.7742900390625,3.1879501342773438,-0.030000001192092896,0.24195000529289246
1779996513034566100,4.791566162109375,2.785950183868408,-0.006000000052154064,0.31800001859664917
1779996513051842600,4.808842529296875,6.439950466156006,-0.031950000673532486,-0.04905000329017639
1779996513077757000,4.8347568359375,14.47800064086914,-0.17295001447200775,-0.6640500426292419
1779996513095033300,4.852033447265625,17.3470516204834,-0.24495001137256622,-0.7930500507354736
1779996513112309800,4.869309814453125,15.541951179504395,-0.22395001351833344,-0.697950005531311
1779996513138224000,4.89522412109375,7.651050567626953,-0.04200000315904617,-0.19995000958442688
1779996513155500800,4.912500732421875,3.4200000762939453,-0.010950000956654549,0.21300001442432404
1779996513172776700,4.929776611328125,2.9200501441955566,-0.0010500000789761543,0.2970000207424164
1779996513190053400,4.947053466796875,6.406050205230713,-0.0580500029027462,-0.037050001323223114
1779996513207329800,4.964329833984375,11.910000801086426,-0.17100000381469727,-0.46995002031326294
1779996513233244200,4.990244140625,17.110050201416016,-0.21900001168251038,-0.7930500507354736
1779996513250520600,5.0075205078125,15.475050926208496,-0.22605000436306,-0.7309500575065613
1779996513267797000,5.024796875,10.53600025177002,-0.11400000751018524,-0.4320000112056732
1779996513293711600,5.050711669921875,3.6760501861572266,-0.006000000052154064,0.19395001232624054
1779996513310987800,5.06798779296875,3.0900001525878906,0.003000000026077032,0.27300000190734863
1779996513328264200,5.08526416015625,6.39900016784668,-0.06300000101327896,-0.018000001087784767
1779996513345540600,5.10254052734375,11.733000755310059,-0.17595000565052032,-0.42705002427101135
1779996513362816800,5.119816650390625,15.952051162719727,-0.20400001108646393,-0.7189500331878662
1779996513380093400,5.137093505859375,16.67205047607422,-0.22605000436306,-0.7770000100135803
1779996513397369600,5.15436962890625,13.135050773620605,-0.13695000112056732,-0.6070500016212463
1779996513414646000,5.17164599609375,7.993050575256348,-0.05100000277161598,-0.21705001592636108
1779996513431922400,5.18892236328125,3.9060001373291016,-0.043950002640485764,0.21495001018047333
1779996513449198600,5.206198486328125,3.2500500679016113,-0.025050001218914986,0.3040500283241272
1779996513466475000,5.22347509765625,6.361050128936768,-0.06795000284910202,-0.006000000052154064
1779996513483751200,5.240751220703125,11.506050109863281,-0.13005000352859497,-0.4420500099658966
1779996513509666000,5.266666015625,16.62900161743164,-0.20400001108646393,-0.7770000100135803
1779996513526942200,5.283942138671875,15.358050346374512,-0.21195000410079956,-0.7020000219345093
1779996513544218600,5.301218505859375,10.831050872802734,-0.13695000112056732,-0.4129500091075897
1779996513570133000,5.327133056640625,4.171050071716309,-0.00795000046491623,0.16500000655651093
1779996513587409400,5.344409423828125,3.373950242996216,-0.0010500000789761543,0.2440500110387802
1779996513604685800,5.361685791015625,6.318000316619873,-0.06795000284910202,-0.013050000183284283
1779996513621962200,5.378962158203125,11.331000328063965,-0.15900000929832458,-0.40095001459121704
1779996513639238700,5.39623876953125,15.504000663757324,-0.19200000166893005,-0.6640500426292419
1779996513665153000,5.422153076171875,15.27405071258545,-0.20205001533031464,-0.6930000185966492
1779996513682429400,5.439429443359375,10.894950866699219,-0.12495000660419464,-0.4510500133037567
1779996513699705600,5.45670556640625,6.142950057983398,-0.06105000153183937,-0.034950003027915955
1779996513725620200,5.4826201171875,3.553950071334839,-0.013050000183284283,0.2560500204563141
1779996513742896600,5.499896728515625,6.355950355529785,-0.05400000140070915,-0.009000000543892384
1779996513760172800,5.5171728515625,11.167950630187988,-0.13305000960826874,-0.39900001883506775
1779996513786087400,5.54308740234375,16.224000930786133,-0.22395001351833344,-0.7099500298500061
1779996513803364000,5.560364013671875,15.18795108795166,-0.20205001533031464,-0.6520500183105469
1779996513820640300,5.57764013671875,10.98900032043457,-0.13500000536441803,-0.4129500091075897
1779996513837916700,5.594916748046875,6.313050270080566,-0.05100000277161598,-0.04200000315904617
1779996513855192800,5.61219287109375,3.6469502449035645,0.010050000622868538,0.22005000710487366
1779996513872469200,5.62946923828125,4.5610504150390625,-0.04905000329017639,0.15300001204013824
1779996513889745700,5.64674560546875,8.586000442504883,-0.11400000751018524,-0.1860000044107437
1779996513907021800,5.664021728515625,13.249950408935547,-0.1489500105381012,-0.544950008392334
1779996513924298200,5.68129833984375,16.051950454711914,-0.22800001502037048,-0.7050000429153442
1779996513941574700,5.69857470703125,15.12600040435791,-0.1879500150680542,-0.6640500426292419
1779996513967489300,5.7244892578125,8.623950004577637,-0.10905000567436218,-0.22095000743865967
1779996513984765700,5.741765625,4.719000339508057,-0.00795000046491623,0.1099500060081482
1779996514002041900,5.759041748046875,3.7960500717163086,-0.010950000956654549,0.22005000710487366
1779996514027956500,5.78495654296875,8.513999938964844,-0.11805000901222229,-0.1660500019788742
1779996514045233000,5.80223291015625,13.07295036315918,-0.16395001113414764,-0.5209500193595886
1779996514062509300,5.81950927734375,15.874950408935547,-0.20400001108646393,-0.6949500441551208
1779996514079785700,5.83678564453125,15.045001029968262,-0.19200000166893005,-0.6670500040054321
1779996514097062000,5.854061767578125,11.178000450134277,-0.14205001294612885,-0.41505002975463867
1779996514114338300,5.87133837890625,6.66195011138916,-0.07005000114440918,-0.046950001269578934
1779996514131615000,5.888614990234375,3.9870002269744873,-0.00795000046491623,0.20595000684261322
1779996514148891100,5.90589111328125,4.678950309753418,-0.018000001087784767,0.1290000081062317
1779996514166167600,5.92316748046875,8.422950744628906,-0.08700000494718552,-0.1980000138282776
1779996514183444000,5.94044384765625,12.939001083374023,-0.18495000898838043,-0.5010000467300415
1779996514200720100,5.95772021484375,15.730950355529785,-0.23595000803470612,-0.6670500040054321
1779996514217996800,5.974996826171875,15.02505111694336,-0.21900001168251038,-0.6379500031471252
1779996514235273000,5.99227294921875,11.226000785827637,-0.12105000764131546,-0.4320000112056732
1779996514252549400,6.00954931640625,6.808050155639648,-0.046950001269578934,-0.09195000678300858
1779996514269825800,6.02682568359375,4.126049995422363,-0.015000000596046448,0.21105000376701355
1779996514287102000,6.04410205078125,4.735949993133545,-0.037050001323223114,0.18000000715255737
1779996514313016600,6.0700166015625,10.635000228881836,-0.13005000352859497,-0.32895001769065857
1779996514330293000,6.08729296875,14.500950813293457,-0.21195000410079956,-0.5800500512123108
1779996514347569400,6.1045693359375,15.72900104522705,-0.22605000436306,-0.6589500308036804
1779996514373483800,6.13048388671875,11.308950424194336,-0.1279500126838684,-0.42195001244544983
1779996514390760200,6.14776025390625,7.021050453186035,-0.039000000804662704,-0.10905000567436218
1779996514408036900,6.165036865234375,4.357950210571289,-0.037050001323223114,0.18000000715255737
1779996514425313000,6.18231298828125,4.858050346374512,-0.022950001060962677,0.1579500138759613
1779996514442589400,6.19958935546875,8.268000602722168,-0.12105000764131546,-0.14505000412464142
1779996514459865900,6.216865966796875,12.594000816345215,-0.16905000805854797,-0.4849500358104706
1779996514477142000,6.23414208984375,15.363000869750977,-0.19500000774860382,-0.6859500408172607
1779996514494418700,6.251418701171875,14.85105037689209,-0.208950012922287,-0.6469500064849854
1779996514511694800,6.26869482421875,11.37600040435791,-0.15195000171661377,-0.4300500154495239
1779996514528971300,6.28597119140625,7.203000545501709,-0.034950003027915955,-0.11400000751018524
1779996514546247700,6.30324755859375,4.537050247192383,-0.031950000673532486,0.19395001232624054
1779996514563523800,6.32052392578125,4.9110002517700195,-0.010950000956654549,0.16305001080036163
1779996514580800500,6.337800537109375,8.148000717163086,-0.12495000660419464,-0.1399500072002411
1779996514598076700,6.35507666015625,12.381000518798828,-0.16905000805854797,-0.4510500133037567
1779996514615353000,6.37235302734375,15.166951179504395,-0.19200000166893005,-0.62295001745224
1779996514632629500,6.38962939453125,14.803050994873047,-0.19995000958442688,-0.6210000514984131
1779996514649905700,6.40690576171875,11.472000122070312,-0.1279500126838684,-0.4320000112056732
1779996514667182000,6.42418212890625,7.395000457763672,-0.05400000140070915,-0.12300000339746475
1779996514693096700,6.4500966796875,4.408050060272217,-0.05595000088214874,0.23205001652240753
1779996514710373000,6.467373046875,6.235950469970703,-0.04905000329017639,0.036000002175569534
1779996514727649500,6.4846494140625,10.146000862121582,-0.09195000678300858,-0.3270000219345093
1779996514753564200,6.510564208984375,15.037050247192383,-0.208950012922287,-0.6400500535964966
1779996514770840600,6.527840576171875,14.779050827026367,-0.1969500035047531,-0.5850000381469727
1779996514788116700,6.54511669921875,11.580000877380371,-0.15195000171661377,-0.40095001459121704
1779996514814031400,6.57103125,5.830050468444824,-0.019950000569224358,0.024000000208616257
1779996514831307800,6.588307861328125,4.50600004196167,-0.04200000315904617,0.1870500147342682
1779996514848584200,6.605584228515625,6.247950077056885,-0.07500000298023224,0.05505000427365303
1779996514865860400,6.6228603515625,10.039050102233887,-0.1279500126838684,-0.27900001406669617
1779996514883136800,6.64013671875,13.705050468444824,-0.16905000805854797,-0.5640000104904175
1779996514900413200,6.6574130859375,15.18600082397461,-0.19995000958442688,-0.6760500073432922
1779996514926327600,6.68332763671875,11.677950859069824,-0.13305000960826874,-0.42195001244544983
1779996514943604000,6.70060400390625,7.72005033493042,-0.07800000160932541,-0.0990000069141388
1779996514960880400,6.71788037109375,5.035050392150879,-0.04200000315904617,0.14595000445842743
1779996514978156800,6.73515673828125,5.065950393676758,-0.00795000046491623,0.14400000870227814
1779996514995433200,6.75243310546875,7.864050388336182,-0.07800000160932541,-0.09000000357627869
1779996515012709600,6.769709716796875,11.830950736999512,-0.15900000929832458,-0.39900001883506775
1779996515029986000,6.786986083984375,14.680951118469238,-0.16395001113414764,-0.597000002861023
1779996515047262200,6.80426220703125,14.643000602722168,-0.18300001323223114,-0.6139500141143799
1779996515064538600,6.82153857421875,11.725950241088867,-0.16905000805854797,-0.41805002093315125
1779996515081815000,6.83881494140625,7.897050380706787,-0.0970500037074089,-0.10395000129938126
1779996515099091200,6.85609130859375,5.203050136566162,-0.04200000315904617,0.1099500060081482
1779996515116368000,6.873367919921875,5.133000373840332,-0.019950000569224358,0.09795000404119492
1779996515133644300,6.890644287109375,7.801050186157227,-0.07800000160932541,-0.14295001327991486
1779996515150920400,6.90792041015625,11.697000503540039,-0.13695000112056732,-0.43695002794265747
1779996515168196900,6.92519677734375,14.595000267028809,-0.21195000410079956,-0.5850000381469727
1779996515185473300,6.942473388671875,14.632950782775879,-0.21405000984668732,-0.5680500268936157
1779996515211388000,6.968387939453125,9.945000648498535,-0.12105000764131546,-0.2880000174045563
1779996515228664000,6.9856640625,6.325050354003906,-0.04200000315904617,0.024000000208616257
1779996515245940700,7.002940673828125,4.801050186157227,-0.034950003027915955,0.18405000865459442
1779996515271855000,7.028855224609375,7.7440505027771,-0.08205000311136246,-0.06795000284910202
1779996515289131500,7.046131591796875,11.553000450134277,-0.1279500126838684,-0.3960000276565552
1779996515306408000,7.063407958984375,14.451000213623047,-0.19200000166893005,-0.6000000238418579
1779996515323684000,7.08068408203125,14.59695053100586,-0.2070000171661377,-0.6139500141143799
1779996515340960800,7.097960693359375,11.898000717163086,-0.1570500135421753,-0.4300500154495239
1779996515358237000,7.11523681640625,8.155050277709961,-0.08505000174045563,-0.1469999998807907
1779996515375513300,7.132513427734375,5.446950435638428,-0.04905000329017639,0.08400000631809235
1779996515392790000,7.1497900390625,5.239050388336182,-0.039000000804662704,0.12495000660419464
1779996515410066000,7.16706591796875,7.690950393676758,-0.09000000357627869,-0.06795000284910202
1779996515427342600,7.184342529296875,11.40000057220459,-0.1489500105381012,-0.3630000054836273
1779996515444618800,7.20161865234375,14.257050514221191,-0.17100000381469727,-0.5590500235557556
1779996515470533400,7.227533447265625,13.498950958251953,-0.1660500019788742,-0.5230500102043152
1779996515487809800,7.244809814453125,10.18695068359375,-0.11100000888109207,-0.31005001068115234
1779996515505086200,7.262086181640625,6.688950538635254,-0.07800000160932541,0.0070500001311302185
1779996515522362600,7.279362548828125,5.049000263214111,-0.05100000277161598,0.15300001204013824
1779996515539639000,7.29663916015625,6.172050476074219,-0.05100000277161598,0.036000002175569534
1779996515556915500,7.31391552734375,9.450000762939453,-0.09195000678300858,-0.24300001561641693
1779996515574191600,7.331191650390625,12.895950317382812,-0.16395001113414764,-0.4939500093460083
1779996515591468000,7.348468017578125,14.631000518798828,-0.21195000410079956,-0.5710500478744507
1779996515608744400,7.365744384765625,13.492050170898438,-0.18105000257492065,-0.5040000081062317
1779996515626020600,7.3830205078125,10.285050392150879,-0.11595000326633453,-0.3079500198364258
1779996515643297000,7.400297119140625,6.808050155639648,-0.08205000311136246,-0.028050001710653305
1779996515660573400,7.417573486328125,5.140050411224365,-0.037050001323223114,0.12195000797510147
1779996515677849900,7.434849853515625,6.190950393676758,-0.06105000153183937,0.06195000186562538
1779996515695126300,7.452126220703125,9.378000259399414,-0.0970500037074089,-0.21195000410079956
1779996515712402700,7.469402587890625,12.783000946044922,-0.1469999998807907,-0.4729500114917755
1779996515729679000,7.48667919921875,14.500950813293457,-0.21195000410079956,-0.5419500470161438
1779996515746955300,7.503955322265625,13.446001052856445,-0.20205001533031464,-0.49695003032684326
1779996515772870000,7.529869873046875,8.521950721740723,-0.07005000114440918,-0.2070000171661377
1779996515790146600,7.547146484375,5.865000247955322,-0.04200000315904617,0.040950000286102295
1779996515807423000,7.564423095703125,5.494950294494629,-0.04905000329017639,0.09300000220537186
1779996515833337300,7.59033740234375,9.325950622558594,-0.10395000129938126,-0.21000000834465027
1779996515850613800,7.60761376953125,12.664051055908203,-0.17100000381469727,-0.4339500069618225
1779996515867890200,7.62489013671875,14.35995101928711,-0.21900001168251038,-0.5419500470161438
1779996515893804500,7.650804443359375,12.006000518798828,-0.13005000352859497,-0.41805002093315125
1779996515911081000,7.6680810546875,8.601000785827637,-0.09405000507831573,-0.17595000565052032
1779996515928357400,7.685357421875,5.977950096130371,-0.031950000673532486,0.034050002694129944
1779996515945633800,7.7026337890625,5.590050220489502,-0.043950002640485764,0.1080000028014183
1779996515962910200,7.71991015625,7.648050308227539,-0.10200000554323196,-0.06405000388622284
1779996515980186600,7.7371865234375,10.981050491333008,-0.13305000960826874,-0.33195000886917114
1779996516006101000,7.76310107421875,14.257050514221191,-0.1879500150680542,-0.5560500025749207
1779996516023377700,7.780377685546875,13.329000473022461,-0.15900000929832458,-0.5130000114440918
1779996516040653800,7.79765380859375,10.462050437927246,-0.12105000764131546,-0.3240000009536743
1779996516057930200,7.81493017578125,7.237050533294678,-0.09195000678300858,-0.04005000367760658
1779996516075206700,7.83220654296875,5.551950454711914,-0.06105000153183937,0.11700000613927841
1779996516092483000,7.849483154296875,6.343950271606445,-0.06300000101327896,0.031050002202391624
1779996516109759500,7.866759521484375,9.180000305175781,-0.11100000888109207,-0.21900001168251038
1779996516127035600,7.88403564453125,12.403050422668457,-0.1660500019788742,-0.4459500312805176
1779996516144312000,7.90131201171875,14.161951065063477,-0.19005000591278076,-0.544950008392334
1779996516161588500,7.91858837890625,13.350000381469727,-0.1399500072002411,-0.5230500102043152
1779996516187503000,7.944503173828125,8.822999954223633,-0.11400000751018524,-0.17595000565052032
1779996516204779500,7.961779541015625,6.2410502433776855,-0.06795000284910202,0.07200000435113907
1779996516222056000,7.979055908203125,5.680950164794922,-0.019950000569224358,0.12495000660419464
1779996516247970600,8.004970458984374,9.076950073242188,-0.10605000704526901,-0.17100000381469727
1779996516265247000,8.0222470703125,12.21405029296875,-0.1570500135421753,-0.42705002427101135
1779996516282523100,8.039523193359376,14.052000999450684,-0.18105000257492065,-0.5299500226974487
1779996516299799600,8.056799560546875,13.317000389099121,-0.16395001113414764,-0.4990500211715698
1779996516317076000,8.074075927734375,10.672950744628906,-0.12105000764131546,-0.33900001645088196
1779996516334352400,8.091352294921874,7.5259504318237305,-0.0799500048160553,-0.10695000737905502
1779996516351628800,8.10862890625,5.788950443267822,-0.07800000160932541,0.09600000083446503
1779996516368905200,8.1259052734375,6.4009504318237305,-0.08700000494718552,0.07395000010728836
1779996516386181400,8.143181396484374,8.988000869750977,-0.10200000554323196,-0.17100000381469727
1779996516403458000,8.1604580078125,12.076951026916504,-0.1279500126838684,-0.43695002794265747
1779996516420734200,8.177734130859376,13.894050598144531,-0.17295001447200775,-0.5490000247955322
1779996516446648800,8.20364892578125,12.199050903320312,-0.17100000381469727,-0.39900001883506775
1779996516463925200,8.22092529296875,9.112950325012207,-0.08505000174045563,-0.19500000774860382
1779996516481201700,8.23820166015625,6.5209503173828125,-0.043950002640485764,0.0019500000635161996
1779996516507116000,8.264115966796876,6.375000476837158,-0.05100000277161598,0.037950001657009125
1779996516524392400,8.281392333984375,8.914050102233887,-0.11805000901222229,-0.1399500072002411
1779996516541668900,8.2986689453125,11.96505069732666,-0.15405000746250153,-0.36705002188682556
1779996516567583500,8.32458349609375,13.848000526428223,-0.1570500135421753,-0.5539500117301941
1779996516584859600,8.341859619140624,12.178050994873047,-0.16095000505447388,-0.4440000355243683
1779996516602136300,8.35913623046875,9.249000549316406,-0.12105000764131546,-0.22395001351833344
1779996516619412500,8.37641259765625,6.69795036315918,-0.06599999964237213,0.0019500000635161996
1779996516636689000,8.39368896484375,5.980050086975098,-0.043950002640485764,0.07200000435113907
1779996516653965300,8.41096533203125,7.483050346374512,-0.05595000088214874,-0.07800000160932541
1779996516671241700,8.42824169921875,10.351950645446777,-0.1279500126838684,-0.2880000174045563
1779996516688518100,8.44551806640625,12.94800090789795,-0.19005000591278076,-0.4339500069618225
1779996516705794300,8.462794189453126,13.743000984191895,-0.18300001323223114,-0.4729500114917755
1779996516723070700,8.48007080078125,12.199050903320312,-0.1570500135421753,-0.40605002641677856
1779996516740347100,8.49734716796875,9.306000709533691,-0.0970500037074089,-0.22905001044273376
1779996516766261800,8.52326171875,6.1020002365112305,-0.043950002640485764,0.037950001657009125
1779996516783538200,8.5405380859375,6.516000270843506,-0.10395000129938126,0.0499500036239624
1779996516800814600,8.557814697265625,8.835000038146973,-0.10200000554323196,-0.13305000960826874
1779996516826729200,8.583729248046875,12.853050231933594,-0.1469999998807907,-0.46800002455711365
1779996516844005600,8.601005615234374,13.66395092010498,-0.1570500135421753,-0.5230500102043152
1779996516861282000,8.618281982421875,12.183000564575195,-0.1489500105381012,-0.41100001335144043
1779996516887196400,8.644196533203125,8.017050743103027,-0.10200000554323196,-0.07095000147819519
1779996516904472800,8.661472900390624,6.2220001220703125,-0.039000000804662704,0.0499500036239624
1779996516921749200,8.678749267578125,6.528000354766846,-0.043950002640485764,0.012000000104308128
1779996516947664000,8.704663818359375,10.22295093536377,-0.15405000746250153,-0.26205000281333923
1779996516964940300,8.721940185546876,12.771000862121582,-0.1399500072002411,-0.4420500099658966
1779996516982216700,8.739216796875,13.623001098632812,-0.17595000565052032,-0.527999997138977
1779996517008131000,8.765131103515625,10.936050415039062,-0.11400000751018524,-0.3550500273704529
1779996517025407700,8.78240771484375,8.112000465393066,-0.10605000704526901,-0.10905000567436218
1779996517042684000,8.799683837890624,6.313050270080566,-0.06300000101327896,0.0580500029027462
1779996517068598500,8.8255986328125,7.428000450134277,-0.07005000114440918,-0.031950000673532486
1779996517085875000,8.842875,10.125000953674316,-0.12105000764131546,-0.23595000803470612
1779996517103151400,8.8601513671875,12.62505054473877,-0.1570500135421753,-0.4300500154495239
1779996517129066000,8.88606591796875,13.156950950622559,-0.16905000805854797,-0.46995002031326294
1779996517146342400,8.90334228515625,11.02695083618164,-0.13500000536441803,-0.33900001645088196
1779996517163618600,8.92061865234375,8.236949920654297,-0.0990000069141388,-0.1380000114440918
1779996517180895200,8.937895263671875,6.41295051574707,-0.05100000277161598,0.025950001552700996
1779996517206809600,8.9638095703125,7.459050178527832,-0.08700000494718552,-0.05205000191926956
1779996517224086000,8.9810859375,10.045950889587402,-0.10200000554323196,-0.2650500237941742
1779996517241362700,8.99836279296875,12.523050308227539,-0.1469999998807907,-0.44895002245903015
1779996517258638800,9.015638916015625,13.462950706481934,-0.19005000591278076,-0.4849500358104706
1779996517284553500,9.041553466796875,11.059950828552246,-0.14205001294612885,-0.33195000886917114
1779996517301830000,9.058829833984374,8.313000679016113,-0.08205000311136246,-0.12105000764131546
1779996517319106300,9.076106201171875,6.49500036239624,-0.04905000329017639,0.031050002202391624
1779996517345020700,9.102020751953125,7.423050403594971,-0.08205000311136246,-0.031950000673532486
1779996517362297000,9.119297119140626,9.97605037689209,-0.13005000352859497,-0.22095000743865967
1779996517379573500,9.136573486328125,12.433950424194336,-0.17100000381469727,-0.40095001459121704
1779996517396850000,9.153849853515625,13.390950202941895,-0.15195000171661377,-0.4849500358104706
1779996517414126000,9.1711259765625,12.22605037689209,-0.14505000412464142,-0.4459500312805176
1779996517431402500,9.188402587890625,9.732000350952148,-0.12105000764131546,-0.25995001196861267
1779996517448679200,9.20567919921875,7.348950386047363,-0.06599999964237213,-0.04005000367760658
1779996517465955300,9.222955322265625,6.415950298309326,-0.07304999977350235,0.06195000186562538
1779996517483231700,9.240231689453125,7.444950580596924,-0.0970500037074089,0
1779996517500508200,9.257508056640624,9.86400032043457,-0.10905000567436218,-0.22095000743865967
1779996517526422800,9.2834228515625,13.020000457763672,-0.17595000565052032,-0.46095001697540283
1779996517543699200,9.30069921875,12.999000549316406,-0.17595000565052032,-0.4440000355243683
1779996517560975600,9.3179755859375,11.1510009765625,-0.13305000960826874,-0.3439500033855438
1779996517586890200,9.34389013671875,7.500000476837158,-0.07500000298023224,-0.08505000174045563
1779996517604166700,9.361166748046875,6.531000137329102,-0.06300000101327896,0.010050000622868538
1779996517621442800,9.37844287109375,7.477950572967529,-0.07800000160932541,-0.043950002640485764
1779996517647357700,9.404357666015626,11.107950210571289,-0.13500000536441803,-0.3340500295162201
1779996517664633900,9.4216337890625,12.931950569152832,-0.15405000746250153,-0.42705002427101135
1779996517681910300,9.43891015625,12.927000999450684,-0.1570500135421753,-0.4540500342845917
1779996517707824600,9.46482470703125,9.87405014038086,-0.11595000326633453,-0.21405000984668732
1779996517725101300,9.482101318359375,7.5450005531311035,-0.09195000678300858,-0.05205000191926956
1779996517742377700,9.499377685546875,6.589950084686279,-0.05595000088214874,0.036000002175569534
1779996517768292000,9.5252919921875,8.505000114440918,-0.09195000678300858,-0.11400000751018524
1779996517785568800,9.54256884765625,11.0149507522583,-0.12105000764131546,-0.3270000219345093
1779996517802845000,9.559844970703125,12.802050590515137,-0.15900000929832458,-0.4630500078201294
1779996517828759600,9.585759521484375,12.244950294494629,-0.16905000805854797,-0.38700002431869507
1779996517846036000,9.603035888671876,9.960000038146973,-0.10200000554323196,-0.24795001745224
1779996517863312400,9.6203125,7.678950309753418,-0.06795000284910202,-0.09195000678300858
1779996517889226800,9.646226806640625,6.801000118255615,-0.037050001323223114,-0.016050001606345177
1779996517906503200,9.663503173828126,8.493000030517578,-0.11400000751018524,-0.11100000888109207
1779996517923779800,9.68077978515625,10.929000854492188,-0.1469999998807907,-0.27900001406669617
1779996517941056300,9.69805615234375,12.750000953674316,-0.16905000805854797,-0.41505002975463867
1779996517958332400,9.71533251953125,12.862051010131836,-0.1399500072002411,-0.4510500133037567
1779996517975608800,9.73260888671875,11.211000442504883,-0.12105000764131546,-0.35295000672340393
1779996518001523500,9.7585234375,7.749000549316406,-0.09195000678300858,-0.05895000323653221
1779996518018799900,9.7757998046875,6.721950531005859,-0.08505000174045563,0.04605000093579292
1779996518036076300,9.793076171875,7.507050514221191,-0.07304999977350235,-0.022950001060962677
1779996518053352700,9.810352783203125,9.619950294494629,-0.10605000704526901,-0.22905001044273376
1779996518070629000,9.827629150390624,11.878950119018555,-0.15900000929832458,-0.37905001640319824
1779996518087905500,9.844905517578125,12.991950988769531,-0.16095000505447388,-0.46800002455711365
1779996518105181700,9.862181640625,12.22605037689209,-0.15405000746250153,-0.41505002975463867
1779996518122458400,9.879458251953125,10.099050521850586,-0.11100000888109207,-0.2650500237941742
1779996518148372700,9.905372802734375,7.1170501708984375,-0.09000000357627869,0.019050000235438347
1779996518165649200,9.922649169921876,6.909000396728516,-0.06105000153183937,0.012000000104308128
1779996518182925300,9.93992529296875,8.383049964904785,-0.07304999977350235,-0.13095000386238098
1779996518208840200,9.965840087890625,11.794950485229492,-0.1489500105381012,-0.3769500255584717
1779996518226116400,9.983116455078125,12.946050643920898,-0.17100000381469727,-0.44895002245903015
1779996518243393000,10.00039306640625,12.244950294494629,-0.16095000505447388,-0.3960000276565552
1779996518260669200,10.017669189453125,10.16295051574707,-0.11100000888109207,-0.2650500237941742
1779996518286583800,10.043583740234375,7.191000461578369,-0.08700000494718552,-0.004050000105053186
1779996518303860000,10.06085986328125,6.9210004806518555,-0.06795000284910202,0.037950001657009125
1779996518321136600,10.07813671875,8.32800006866455,-0.09405000507831573,-0.10200000554323196
1779996518338413000,10.0954130859375,10.620000839233398,-0.09405000507831573,-0.3240000009536743
1779996518355689200,10.112689208984374,12.47700023651123,-0.15900000929832458,-0.4339500069618225
1779996518372965600,10.129965576171875,12.81705093383789,-0.18300001323223114,-0.40605002641677856
1779996518390242000,10.147241943359376,11.395051002502441,-0.15405000746250153,-0.322050005197525
1779996518407518500,10.1645185546875,9.100950241088867,-0.09195000678300858,-0.17805001139640808
1779996518424795000,10.181794921875,7.234050273895264,-0.06105000153183937,-0.04905000329017639
1779996518442071300,10.1990712890625,6.916050434112549,-0.08505000174045563,-0.016050001606345177
1779996518459347700,10.21634765625,8.315999984741211,-0.09000000357627869,-0.11595000326633453
1779996518485262300,10.242262451171875,11.659050941467285,-0.1570500135421753,-0.35295000672340393
1779996518502538500,10.25953857421875,12.853050231933594,-0.17100000381469727,-0.4540500342845917
1779996518519815200,10.276815185546875,12.24000072479248,-0.12105000764131546,-0.4300500154495239
1779996518545729500,10.3027294921875,9.139050483703613,-0.14205001294612885,-0.1570500135421753
1779996518563006000,10.320005859375,7.291950225830078,-0.09000000357627869,0.019050000235438347
1779996518580282400,10.337282470703125,6.94005012512207,-0.07304999977350235,0.031050002202391624
1779996518597558800,10.354558837890625,8.256000518798828,-0.0580500029027462,-0.10395000129938126
1779996518614835200,10.371835205078124,10.486050605773926,-0.11400000751018524,-0.2959500253200531
1779996518632111400,10.389111328125,12.349950790405273,-0.1660500019788742,-0.39900001883506775
1779996518649388000,10.406387939453126,12.738000869750977,-0.1879500150680542,-0.3960000276565552
1779996518666664400,10.42366455078125,11.464950561523438,-0.1489500105381012,-0.3270000219345093
1779996518692578800,10.449578857421875,8.160000801086426,-0.06599999964237213,-0.12300000339746475
1779996518709855200,10.466855224609375,6.966000556945801,-0.030000001192092896,-0.031950000673532486
1779996518727131600,10.484131591796874,7.432950496673584,-0.10905000567436218,-0.028050001710653305
1779996518753046300,10.51004638671875,10.45995044708252,-0.12495000660419464,-0.2569500207901001
1779996518770322700,10.52732275390625,12.295050621032715,-0.15195000171661377,-0.3960000276565552
1779996518787599000,10.54459912109375,12.688050270080566,-0.12300000339746475,-0.45600003004074097
1779996518813513700,10.570513671875,10.395000457763672,-0.14205001294612885,-0.2740500271320343
1779996518830790000,10.587789794921875,8.257950782775879,-0.0990000069141388,-0.08505000174045563
1779996518848066600,10.605066650390626,7.063950538635254,-0.0799500048160553,0.0070500001311302185
1779996518865342700,10.6223427734375,7.468950271606445,-0.0799500048160553,-0.034950003027915955
1779996518882619100,10.639619140625,9.259050369262695,-0.0970500037074089,-0.19305001199245453
1779996518899895800,10.656895751953124,11.392951011657715,-0.11400000751018524,-0.3550500273704529
1779996518917172000,10.674171875,12.634950637817383,-0.1969500035047531,-0.39900001883506775
1779996518934448400,10.691448486328126,12.231000900268555,-0.17295001447200775,-0.35100001096725464
1779996518960363000,10.717363037109376,9.321000099182129,-0.08505000174045563,-0.2070000171661377
1779996518977639400,10.734639404296875,7.519050121307373,-0.043950002640485764,-0.07605000585317612
1779996518994915800,10.751915771484375,7.081050395965576,-0.04905000329017639,-0.028050001710653305
1779996519012192300,10.769192138671874,8.269950866699219,-0.12105000764131546,-0.07800000160932541
1779996519029468400,10.786468505859375,10.350000381469727,-0.1570500135421753,-0.22395001351833344
1779996519046744800,10.803744873046876,12.142050743103027,-0.1399500072002411,-0.39900001883506775
1779996519072659500,10.829659423828126,12.183000564575195,-0.13695000112056732,-0.4339500069618225
1779996519089936000,10.846935791015625,10.444950103759766,-0.12105000764131546,-0.31005001068115234
1779996519107212300,10.86421240234375,8.437950134277344,-0.11400000751018524,-0.0970500037074089
1779996519133126700,10.890126708984376,7.1860504150390625,-0.09405000507831573,0.0070500001311302185
1779996519150403000,10.907403076171875,8.257950782775879,-0.09000000357627869,-0.08700000494718552
1779996519167679700,10.9246796875,10.228050231933594,-0.10395000129938126,-0.25995001196861267
1779996519184956000,10.941955810546874,12.006000518798828,-0.1489500105381012,-0.3769500255584717
1779996519210870500,10.96787060546875,12.156000137329102,-0.14205001294612885,-0.3769500255584717
1779996519228147200,10.985147216796875,10.558050155639648,-0.14505000412464142,-0.2670000195503235
1779996519245423400,11.00242333984375,8.509950637817383,-0.07005000114440918,-0.13305000960826874
1779996519262699800,11.01969970703125,7.272000312805176,-0.0970500037074089,-0.0010500000789761543
1779996519279976200,11.03697607421875,7.540050506591797,-0.06795000284910202,-0.046950001269578934
1779996519297252600,11.054252685546874,9.144000053405762,-0.09000000357627869,-0.19005000591278076
1779996519314529000,11.071529052734375,11.170950889587402,-0.13695000112056732,-0.32895001769065857
1779996519331805400,11.088805419921876,12.393000602722168,-0.16395001113414764,-0.38700002431869507
1779996519349081600,11.10608154296875,12.148950576782227,-0.15405000746250153,-0.3769500255584717
1779996519366358300,11.123358154296875,10.551000595092773,-0.14505000412464142,-0.2740500271320343
1779996519383634700,11.140634765625,8.589000701904297,-0.07500000298023224,-0.15000000596046448
1779996519400910800,11.157910888671875,7.35105037689209,-0.06300000101327896,-0.046950001269578934
1779996519418187500,11.1751875,7.561950206756592,-0.0799500048160553,-0.046950001269578934
1779996519435463700,11.192463623046875,9.112950325012207,-0.10905000567436218,-0.15000000596046448
1779996519452740000,11.209739990234375,11.094000816345215,-0.17805001139640808,-0.29100000858306885
1779996519470016500,11.2270166015625,12.331050872802734,-0.12105000764131546,-0.3960000276565552
1779996519487293000,11.24429296875,12.111001014709473,-0.16395001113414764,-0.3940500319004059
1779996519504569300,11.2615693359375,10.632000923156738,-0.1279500126838684,-0.2880000174045563
1779996519530484000,11.28748388671875,7.846950531005859,-0.10605000704526901,-0.04200000315904617
1779996519547760400,11.304760498046875,7.354050159454346,-0.034950003027915955,-0.019950000569224358
1779996519565036500,11.32203662109375,8.242050170898438,-0.11805000901222229,-0.10395000129938126
1779996519582313000,11.33931298828125,10.101000785827637,-0.0990000069141388,-0.25995001196861267
1779996519599589400,11.35658935546875,11.733000755310059,-0.1879500150680542,-0.3439500033855438
1779996519625504000,11.38250390625,12.15195083618164,-0.11805000901222229,-0.38895002007484436
1779996519642780400,11.399780517578124,10.618050575256348,-0.13305000960826874,-0.3150000274181366
1779996519660056800,11.417056884765625,8.742000579833984,-0.09405000507831573,-0.1570500135421753
1779996519677333200,11.434333251953126,7.452000141143799,-0.06300000101327896,-0.031950000673532486
1779996519694609700,11.451609619140624,7.639050483703613,-0.09195000678300858,-0.022950001060962677
1779996519711885800,11.4688857421875,9.004950523376465,-0.10605000704526901,-0.13095000386238098
1779996519737800700,11.49480078125,11.716050148010254,-0.1399500072002411,-0.3550500273704529
1779996519755077000,11.5120771484375,12.288000106811523,-0.1489500105381012,-0.3940500319004059
1779996519772353300,11.529353271484375,11.508000373840332,-0.1399500072002411,-0.36000001430511475
1779996519789630000,11.5466298828125,9.723000526428223,-0.09405000507831573,-0.22605000436306
1779996519806906400,11.56390625,8.05305004119873,-0.10395000129938126,-0.07095000147819519
1779996519824182500,11.5811826171875,7.450050354003906,-0.09000000357627869,0
1779996519850097200,11.60709716796875,8.992950439453125,-0.10200000554323196,-0.14295001327991486
1779996519867373600,11.62437353515625,10.836000442504883,-0.13005000352859497,-0.30000001192092896
1779996519884650000,11.64164990234375,12.070050239562988,-0.13005000352859497,-0.40095001459121704
1779996519910564600,11.667564697265625,11.524950981140137,-0.18300001323223114,-0.3340500295162201
1779996519927841000,11.684841064453124,9.808950424194336,-0.10905000567436218,-0.21405000984668732
1779996519945117200,11.7021171875,8.155050277709961,-0.07500000298023224,-0.09195000678300858
1779996519962393600,11.7193935546875,7.4760003089904785,-0.0799500048160553,-0.034950003027915955
1779996519979670000,11.736669921875,8.182050704956055,-0.07304999977350235,-0.10695000737905502
1779996519996946400,11.753946533203125,9.841950416564941,-0.10905000567436218,-0.24795001745224
1779996520014223000,11.77122314453125,11.5489501953125,-0.16395001113414764,-0.3240000009536743
1779996520031499000,11.7884990234375,12.232950210571289,-0.1489500105381012,-0.38700002431869507
1779996520048775700,11.805775634765626,11.532000541687012,-0.12495000660419464,-0.3460500240325928
1779996520066052000,11.823052001953124,9.850050926208496,-0.11805000901222229,-0.22605000436306
1779996520091966700,11.848966796875,7.690950393676758,-0.07304999977350235,-0.05400000140070915
1779996520109243100,11.8662431640625,7.689000129699707,-0.10200000554323196,-0.031950000673532486
1779996520126519600,11.88351953125,8.928000450134277,-0.09405000507831573,-0.1399500072002411
1779996520143796000,11.9007958984375,10.70205020904541,-0.09405000507831573,-0.29100000858306885
1779996520169710600,11.926710693359375,12.180000305175781,-0.16905000805854797,-0.37905001640319824
1779996520186987000,11.943987060546876,11.521950721740723,-0.13695000112056732,-0.34095001220703125
1779996520204263400,11.961263427734375,9.91200065612793,-0.11805000901222229,-0.21405000984668732
1779996520230178000,11.987177978515625,7.749000549316406,-0.07800000160932541,-0.06105000153183937
1779996520247454200,12.0044541015625,7.7149505615234375,-0.06105000153183937,-0.07304999977350235
1779996520264731000,12.02173095703125,8.907000541687012,-0.10395000129938126,-0.15900000929832458
1779996520290645200,12.047645263671875,11.416950225830078,-0.1660500019788742,-0.3240000009536743
1779996520307921700,12.064921630859375,12.156000137329102,-0.1570500135421753,-0.364950031042099
1779996520325198000,12.082197998046874,11.524950981140137,-0.1399500072002411,-0.34095001220703125
1779996520351112700,12.10811279296875,9.05505084991455,-0.08700000494718552,-0.18300001323223114
1779996520368388900,12.125388916015625,7.789050579071045,-0.07800000160932541,-0.04905000329017639
1779996520385665500,12.14266552734375,7.73205041885376,-0.08505000174045563,-0.037050001323223114
1779996520411580200,12.168580078125,9.711000442504883,-0.11595000326633453,-0.18300001323223114
1779996520428856600,12.185856689453125,11.332950592041016,-0.14205001294612885,-0.322050005197525
1779996520446133000,12.203133056640626,12.075000762939453,-0.13695000112056732,-0.39900001883506775
1779996520472047600,12.229047607421874,10.824000358581543,-0.16095000505447388,-0.286050021648407
1779996520489324000,12.246323974609375,9.148950576782227,-0.10605000704526901,-0.1660500019788742
1779996520506600400,12.263600341796876,7.890000343322754,-0.0799500048160553,-0.06795000284910202
1779996520532514800,12.289514892578126,8.199000358581543,-0.09000000357627869,-0.0970500037074089
1779996520549791200,12.306791259765625,9.679950714111328,-0.09405000507831573,-0.21195000410079956
1779996520567067600,12.324067626953125,11.278050422668457,-0.1570500135421753,-0.30000001192092896
1779996520584344000,12.341343994140624,12.019950866699219,-0.16395001113414764,-0.3750000298023224
1779996520601620500,12.358620361328125,11.520000457763672,-0.14505000412464142,-0.3550500273704529
1779996520618897000,12.37589697265625,10.036050796508789,-0.10395000129938126,-0.24795001745224
1779996520636173300,12.39317333984375,8.482950210571289,-0.09405000507831573,-0.12300000339746475
1779996520653449700,12.41044970703125,7.717950344085693,-0.09195000678300858,-0.034950003027915955
1779996520670726100,12.42772607421875,8.199000358581543,-0.0990000069141388,-0.07304999977350235
1779996520688002600,12.44500244140625,9.62505054473877,-0.0970500037074089,-0.19005000591278076
1779996520705279000,12.462279052734376,11.182050704956055,-0.13005000352859497,-0.3150000274181366
1779996520722555400,12.479555419921875,11.96505069732666,-0.15195000171661377,-0.37905001640319824
1779996520739831800,12.496831787109375,11.494050979614258,-0.13695000112056732,-0.34095001220703125
1779996520765746400,12.522746337890625,9.273000717163086,-0.10905000567436218,-0.16905000805854797
1779996520783022600,12.540022705078124,8.023950576782227,-0.10395000129938126,-0.06795000284910202
1779996520800299300,12.55729931640625,7.8349504470825195,-0.09405000507831573,-0.05205000191926956
1779996520826213600,12.583213623046875,9.56505012512207,-0.07800000160932541,-0.22395001351833344
1779996520843490300,12.600490234375,11.12505054473877,-0.16905000805854797,-0.3079500198364258
1779996520860766500,12.617766357421875,11.934000968933105,-0.15195000171661377,-0.35100001096725464
1779996520886681000,12.64368115234375,10.900050163269043,-0.13695000112056732,-0.30000001192092896
1779996520903957800,12.660957763671876,9.313950538635254,-0.09405000507831573,-0.1980000138282776
1779996520921234200,12.678234130859375,8.06505012512207,-0.10200000554323196,-0.07095000147819519
1779996520947148500,12.7041484375,8.218050003051758,-0.08505000174045563,-0.08295000344514847
1779996520964425000,12.721425048828126,9.571950912475586,-0.11805000901222229,-0.17595000565052032
1779996520981701400,12.738701416015624,11.06505012512207,-0.11805000901222229,-0.31200000643730164
1779996520998977500,12.7559775390625,11.860050201416016,-0.17100000381469727,-0.34800001978874207
1779996521016254200,12.773254150390626,11.496000289916992,-0.1570500135421753,-0.31995001435279846
1779996521033530400,12.7905302734375,10.141950607299805,-0.09405000507831573,-0.24495001137256622
1779996521050806800,12.807806884765625,8.644050598144531,-0.09000000357627869,-0.14505000412464142
1779996521068083500,12.82508349609375,7.846950531005859,-0.07304999977350235,-0.07095000147819519
1779996521093997800,12.850997802734375,8.803950309753418,-0.0970500037074089,-0.12600000202655792
1779996521111274200,12.868274169921875,10.300050735473633,-0.12105000764131546,-0.24300001561641693
1779996521128551000,12.885551025390624,11.553000450134277,-0.1399500072002411,-0.3439500033855438
1779996521145827000,12.9028271484375,11.797050476074219,-0.15195000171661377,-0.3550500273704529
1779996521163103500,12.920103515625,10.903050422668457,-0.12495000660419464,-0.2959500253200531
1779996521180380000,12.9373798828125,9.409049987792969,-0.09405000507831573,-0.19500000774860382
1779996521197656300,12.95465625,8.184000015258789,-0.09195000678300858,-0.09495000541210175
1779996521214932700,12.9719326171875,7.962000370025635,-0.10905000567436218,-0.05895000323653221
1779996521232209200,12.989209228515625,8.809050559997559,-0.09405000507831573,-0.11400000751018524
1779996521249485600,13.006485595703126,10.266000747680664,-0.10605000704526901,-0.24795001745224
1779996521266762000,13.023761962890624,11.479050636291504,-0.13005000352859497,-0.35100001096725464
1779996521292676600,13.049676513671875,11.452950477600098,-0.17295001447200775,-0.31200000643730164
1779996521309953000,13.066953125,10.17495059967041,-0.11805000901222229,-0.24495001137256622
1779996521327229400,13.0842294921875,8.754000663757324,-0.0799500048160553,-0.1570500135421753
1779996521344505900,13.101505859375,7.987950325012207,-0.06795000284910202,-0.0970500037074089
1779996521361782300,13.1187822265625,8.281949996948242,-0.10200000554323196,-0.08505000174045563
1779996521379058700,13.13605859375,9.511950492858887,-0.1279500126838684,-0.1570500135421753
1779996521396334800,13.1533349609375,10.921950340270996,-0.13695000112056732,-0.2650500237941742
1779996521413611500,13.170611572265624,11.697000503540039,-0.1279500126838684,-0.36000001430511475
1779996521430887700,13.1878876953125,11.392951011657715,-0.12300000339746475,-0.35100001096725464
1779996521456802600,13.213802490234375,9.493050575256348,-0.12300000339746475,-0.1879500150680542
1779996521474078700,13.23107861328125,8.308950424194336,-0.08700000494718552,-0.07800000160932541
1779996521491355100,13.248355224609375,8.032950401306152,-0.08505000174045563,-0.08700000494718552
1779996521508631600,13.265631591796875,8.797050476074219,-0.0990000069141388,-0.15000000596046448
1779996521525908000,13.282907958984374,10.18695068359375,-0.12105000764131546,-0.23805001378059387
1779996521543184400,13.300184326171875,11.391000747680664,-0.1660500019788742,-0.31995001435279846
1779996521560460800,13.317460693359376,11.67300033569336,-0.13500000536441803,-0.34095001220703125
1779996521586375400,13.34337548828125,10.240050315856934,-0.11595000326633453,-0.2670000195503235
1779996521603651800,13.36065185546875,8.851950645446777,-0.11100000888109207,-0.13095000386238098
1779996521620928300,13.37792822265625,8.076000213623047,-0.09195000678300858,-0.05895000323653221
1779996521646843000,13.4038427734375,8.803950309753418,-0.11100000888109207,-0.1189500093460083
1779996521664119300,13.421119384765625,10.153950691223145,-0.09405000507831573,-0.24795001745224
1779996521681395500,13.4383955078125,11.296950340270996,-0.12495000660419464,-0.33900001645088196
1779996521707310300,13.464310302734376,11.38800048828125,-0.15405000746250153,-0.3270000219345093
1779996521724586500,13.48158642578125,10.2610502243042,-0.1279500126838684,-0.23805001378059387
1779996521741863200,13.49886328125,8.93595027923584,-0.0990000069141388,-0.1469999998807907
1779996521759139600,13.5161396484375,8.092950820922852,-0.07005000114440918,-0.10695000737905502
1779996521776415700,13.533415771484375,8.320950508117676,-0.0799500048160553,-0.10695000737905502
1779996521793692200,13.550692138671875,9.421050071716309,-0.13005000352859497,-0.18300001323223114
1779996521810968600,13.567968505859374,10.7760009765625,-0.13305000960826874,-0.27195000648498535
1779996521828245000,13.585244873046875,11.577000617980957,-0.1469999998807907,-0.3240000009536743
1779996521845521400,13.602521484375,11.356950759887695,-0.13305000960826874,-0.3169500231742859
1779996521862797800,13.6197978515625,10.266000747680664,-0.0990000069141388,-0.28395000100135803
1779996521888712400,13.64571240234375,8.449950218200684,-0.13005000352859497,-0.07095000147819519
1779996521905989000,13.662989013671876,8.11500072479248,-0.0970500037074089,-0.06105000153183937
1779996521923265300,13.680265380859375,8.789999961853027,-0.0970500037074089,-0.1469999998807907
1779996521949180000,13.706179931640625,10.711050033569336,-0.0990000069141388,-0.31005001068115234
1779996521966456300,13.723456298828125,11.545950889587402,-0.15900000929832458,-0.33195000886917114
1779996521983732700,13.740732666015624,11.371950149536133,-0.17805001139640808,-0.27900001406669617
1779996522001009200,13.758009033203125,10.309050559997559,-0.11805000901222229,-0.23805001378059387
1779996522026923800,13.783923828125,8.45895004272461,-0.07005000114440918,-0.1399500072002411
1779996522044200200,13.8012001953125,8.116950035095215,-0.07800000160932541,-0.10200000554323196
1779996522061476400,13.818476318359375,8.814000129699707,-0.10395000129938126,-0.12105000764131546
1779996522087391000,13.844390869140625,10.72095012664795,-0.13695000112056732,-0.26205000281333923
1779996522104667400,13.86166748046875,11.521950721740723,-0.13005000352859497,-0.34095001220703125
1779996522121943800,13.87894384765625,11.314050674438477,-0.1399500072002411,-0.33900001645088196
1779996522139220500,13.896220458984375,10.297050476074219,-0.11400000751018524,-0.26205000281333923
1779996522156496600,13.91349658203125,8.992950439453125,-0.09195000678300858,-0.1469999998807907
1779996522173773000,13.93077294921875,8.220000267028809,-0.09405000507831573,-0.07605000585317612
1779996522191049500,13.948049560546876,8.361000061035156,-0.10200000554323196,-0.08700000494718552
1779996522208326000,13.965325927734375,9.361050605773926,-0.10200000554323196,-0.16905000805854797
1779996522225602600,13.9826025390625,10.668000221252441,-0.14205001294612885,-0.2569500207901001
1779996522242878700,13.999878662109374,11.449950218200684,-0.12495000660419464,-0.33195000886917114
1779996522260155100,14.017155029296875,11.31195068359375,-0.13500000536441803,-0.322050005197525
1779996522277431600,14.034431640625,10.31100082397461,-0.13305000960826874,-0.25005000829696655
1779996522294708000,14.0517080078125,9.04800033569336,-0.09405000507831573,-0.15195000171661377
1779996522311984400,14.068984375,8.260950088500977,-0.08205000311136246,-0.0990000069141388
1779996522329260800,14.0862607421875,8.377950668334961,-0.08700000494718552,-0.10695000737905502
1779996522346537200,14.103537109375,9.369000434875488,-0.10200000554323196,-0.1879500150680542
1779996522363813600,14.120813720703126,10.623000144958496,-0.13005000352859497,-0.26205000281333923
1779996522381090300,14.13809033203125,11.428950309753418,-0.1469999998807907,-0.3049500286579132
1779996522398366500,14.155366455078125,11.284950256347656,-0.13005000352859497,-0.31200000643730164
1779996522415643000,14.172642822265624,10.309050559997559,-0.10200000554323196,-0.2670000195503235
1779996522432919300,14.189919189453125,9.084000587463379,-0.09195000678300858,-0.17100000381469727
1779996522450195700,14.20719580078125,8.299050331115723,-0.08205000311136246,-0.08295000344514847
1779996522467472100,14.22447216796875,8.422950744628906,-0.08700000494718552,-0.08505000174045563
1779996522484748500,14.24174853515625,9.357000350952148,-0.12105000764131546,-0.1660500019788742
1779996522510663200,14.2676630859375,11.070000648498535,-0.13695000112056732,-0.29100000858306885
1779996522527939600,14.284939697265624,11.440950393676758,-0.1660500019788742,-0.31995001435279846
1779996522545216000,14.302216064453125,10.861950874328613,-0.10905000567436218,-0.31005001068115234
1779996522571130600,14.328130615234375,9.115050315856934,-0.10200000554323196,-0.16905000805854797
1779996522588407000,14.345406982421874,8.35200023651123,-0.09405000507831573,-0.10395000129938126
1779996522605683500,14.362683349609375,8.455050468444824,-0.11595000326633453,-0.08700000494718552
1779996522622959900,14.3799599609375,9.361050605773926,-0.12495000660419464,-0.15405000746250153
1779996522640236300,14.397236328125,10.528950691223145,-0.09195000678300858,-0.28395000100135803
1779996522657512700,14.4145126953125,11.307000160217285,-0.13005000352859497,-0.35805001854896545
1779996522674789000,14.4317890625,11.233050346374512,-0.1279500126838684,-0.32895001769065857
1779996522692065300,14.449065185546875,10.354950904846191,-0.13005000352859497,-0.24105000495910645
1779996522709342000,14.466342041015626,9.181950569152832,-0.0990000069141388,-0.15405000746250153
1779996522726618400,14.483618408203125,8.371050834655762,-0.08700000494718552,-0.10395000129938126
1779996522752533000,14.509532958984375,8.802000045776367,-0.0990000069141388,-0.1380000114440918
1779996522769809400,14.526809326171875,9.8899507522583,-0.13005000352859497,-0.21405000984668732
1779996522787085600,14.54408544921875,10.98900032043457,-0.13005000352859497,-0.28395000100135803
1779996522813000400,14.57000048828125,11.226000785827637,-0.1399500072002411,-0.33195000886917114
1779996522830276900,14.58727685546875,10.371000289916992,-0.14505000412464142,-0.24300001561641693
1779996522847553300,14.60455322265625,9.217950820922852,-0.10905000567436218,-0.15195000171661377
1779996522873467600,14.630467529296874,8.325000762939453,-0.08205000311136246,-0.0970500037074089
1779996522890744300,14.647744384765625,8.779950141906738,-0.09000000357627869,-0.14295001327991486
1779996522908020700,14.665020751953126,9.880950927734375,-0.11400000751018524,-0.22605000436306
1779996522925297000,14.682296875,10.950000762939453,-0.1489500105381012,-0.27195000648498535
1779996522942573600,14.699573486328125,11.380950927734375,-0.1570500135421753,-0.3049500286579132
1779996522959850000,14.71685009765625,10.897950172424316,-0.11805000901222229,-0.29805001616477966
1779996522977126400,14.73412646484375,9.804000854492188,-0.09405000507831573,-0.24105000495910645
1779996522994402800,14.75140283203125,8.773050308227539,-0.11805000901222229,-0.1279500126838684
1779996523011679200,14.76867919921875,8.35200023651123,-0.10605000704526901,-0.06105000153183937
1779996523028956000,14.785955810546875,8.803950309753418,-0.11100000888109207,-0.10905000567436218
1779996523054870300,14.811870361328126,10.407000541687012,-0.10200000554323196,-0.28095000982284546
1779996523072147000,14.82914697265625,11.202000617980957,-0.15195000171661377,-0.3240000009536743
1779996523089423400,14.84642333984375,11.215950965881348,-0.1660500019788742,-0.29100000858306885
1779996523106699800,14.86369970703125,10.41195011138916,-0.10395000129938126,-0.24105000495910645
1779996523123976200,14.88097607421875,9.30405044555664,-0.11805000901222229,-0.19005000591278076
1779996523141252600,14.898252685546876,8.50200080871582,-0.0970500037074089,-0.1189500093460083
1779996523158528800,14.91552880859375,8.49000072479248,-0.08700000494718552,-0.0990000069141388
1779996523175805400,14.932805419921875,9.259050369262695,-0.11595000326633453,-0.1469999998807907
1779996523193081600,14.95008154296875,10.357050895690918,-0.11805000901222229,-0.24495001137256622
1779996523210358300,14.967358154296875,11.158950805664062,-0.12495000660419464,-0.322050005197525
1779996523227634700,14.984634765625,11.170950889587402,-0.1469999998807907,-0.3079500198364258
1779996523253549300,15.01054931640625,9.892950057983398,-0.09405000507831573,-0.22395001351833344
1779996523270825700,15.02782568359375,8.878050804138184,-0.09195000678300858,-0.15900000929832458
1779996523288102100,15.04510205078125,8.457000732421875,-0.09405000507831573,-0.11100000888109207
1779996523305378600,15.062378662109374,8.818050384521484,-0.11400000751018524,-0.11100000888109207
1779996523322655000,15.079655029296875,9.782999992370605,-0.10605000704526901,-0.19005000591278076
1779996523339931400,15.096931396484376,10.777950286865234,-0.13005000352859497,-0.2770500183105469
1779996523365846000,15.122845947265626,11.122950553894043,-0.13305000960826874,-0.322050005197525
1779996523383122400,15.140122314453125,10.426050186157227,-0.1399500072002411,-0.2569500207901001
1779996523400398800,15.15739892578125,9.373050689697266,-0.0990000069141388,-0.16395001113414764
1779996523417675500,15.174675537109374,8.613000869750977,-0.0970500037074089,-0.0990000069141388
1779996523443590000,15.20058984375,8.818050384521484,-0.0970500037074089,-0.1279500126838684
1779996523460866300,15.2178662109375,9.75195026397705,-0.0970500037074089,-0.21000000834465027
1779996523478142700,15.235142822265624,10.74000072479248,-0.12105000764131546,-0.28395000100135803
1779996523504057300,15.261057373046874,11.12505054473877,-0.1489500105381012,-0.29100000858306885
1779996523521334000,15.278333984375,10.455000877380371,-0.13305000960826874,-0.25005000829696655
1779996523538610400,15.2956103515625,9.418950080871582,-0.10605000704526901,-0.19005000591278076
1779996523555886800,15.312886962890625,8.644050598144531,-0.08700000494718552,-0.15000000596046448
1779996523573163300,15.330163330078125,8.572050094604492,-0.08505000174045563,-0.12105000764131546
1779996523590439700,15.347439697265624,9.244050025939941,-0.12105000764131546,-0.15900000929832458
1779996523607716000,15.364716064453125,10.266000747680664,-0.13695000112056732,-0.22395001351833344
1779996523624992500,15.381992431640626,11.022000312805176,-0.1279500126838684,-0.28095000982284546
1779996523642269000,15.39926904296875,11.086950302124023,-0.13305000960826874,-0.3150000274181366
1779996523659545300,15.41654541015625,10.42905044555664,-0.11805000901222229,-0.2770500183105469
1779996523676821800,15.43382177734375,9.436050415039062,-0.11100000888109207,-0.1860000044107437
1779996523694098200,15.45109814453125,8.707950592041016,-0.10905000567436218,-0.10395000129938126
1779996523711374600,15.46837451171875,8.622000694274902,-0.08505000174045563,-0.11100000888109207
1779996523728651000,15.485651123046875,9.237000465393066,-0.0970500037074089,-0.1660500019788742
1779996523745927400,15.502927490234375,10.242000579833984,-0.13500000536441803,-0.24795001745224
1779996523771842000,15.528842041015626,11.13900089263916,-0.13500000536441803,-0.2770500183105469
1779996523789118500,15.546118408203125,10.831050872802734,-0.13695000112056732,-0.2740500271320343
1779996523806395100,15.56339501953125,9.94800090789795,-0.09195000678300858,-0.23100000619888306
1779996523823671600,15.580671630859374,9.004950523376465,-0.09405000507831573,-0.1660500019788742
1779996523849586200,15.606586181640624,8.634000778198242,-0.11805000901222229,-0.0970500037074089
1779996523866862600,15.623862548828125,9.277950286865234,-0.11805000901222229,-0.1469999998807907
1779996523884139300,15.64113916015625,10.230000495910645,-0.11400000751018524,-0.2530499994754791
1779996523901415400,15.65841552734375,10.96500015258789,-0.11400000751018524,-0.31005001068115234
1779996523927330300,15.684330322265625,10.809000968933105,-0.11595000326633453,-0.29295000433921814
1779996523944606500,15.7016064453125,9.973950386047363,-0.15900000929832458,-0.2070000171661377
1779996523961883100,15.718883056640625,9.03795051574707,-0.07005000114440918,-0.1570500135421753
1779996523979159300,15.7361591796875,8.598000526428223,-0.0970500037074089,-0.10905000567436218
1779996523996435700,15.753435791015624,8.866050720214844,-0.10395000129938126,-0.1399500072002411
1779996524013712400,15.77071240234375,9.694050788879395,-0.08700000494718552,-0.1980000138282776
1779996524030988800,15.78798876953125,10.624950408935547,-0.13695000112056732,-0.24795001745224
1779996524048265200,15.80526513671875,11.070000648498535,-0.13305000960826874,-0.286050021648407
1779996524065541600,15.822541748046875,10.800000190734863,-0.12300000339746475,-0.28395000100135803
1779996524091456500,15.84845654296875,9.499950408935547,-0.10905000567436218,-0.19005000591278076
1779996524108732700,15.865732666015624,8.791950225830078,-0.10395000129938126,-0.12300000339746475
1779996524126009300,15.88300927734375,8.67495059967041,-0.0970500037074089,-0.11100000888109207
1779996524143285800,15.90028564453125,9.237000465393066,-0.12105000764131546,-0.16395001113414764
1779996524160562200,15.917562255859375,10.158000946044922,-0.10905000567436218,-0.25995001196861267
1779996524177838600,15.934838623046875,10.894950866699219,-0.12300000339746475,-0.31005001068115234
1779996524203753200,15.960753173828126,10.836000442504883,-0.13500000536441803,-0.28395000100135803
1779996524221029600,15.978029541015625,10.02405071258545,-0.13500000536441803,-0.2070000171661377
1779996524238306000,15.99530615234375,9.136950492858887,-0.10200000554323196,-0.1380000114440918
1779996524264220700,16.021220703125,8.67495059967041,-0.08700000494718552,-0.12300000339746475
1779996524281497300,16.038497314453124,9.204000473022461,-0.10200000554323196,-0.1570500135421753
1779996524298773500,16.0557734375,10.120050430297852,-0.12105000764131546,-0.23595000803470612
1779996524316050200,16.07305029296875,10.873950958251953,-0.13005000352859497,-0.286050021648407
1779996524333326300,16.090326416015625,11.032050132751465,-0.13005000352859497,-0.29805001616477966
1779996524350603000,16.10760302734375,10.47705078125,-0.13500000536441803,-0.24105000495910645
1779996524367879400,16.12487939453125,9.56505012512207,-0.11805000901222229,-0.19005000591278076
1779996524385155800,16.14215576171875,8.830050468444824,-0.10200000554323196,-0.13095000386238098
1779996524402432300,16.159432373046876,8.689050674438477,-0.08505000174045563,-0.1380000114440918
1779996524419708700,16.176708740234375,9.205950736999512,-0.10200000554323196,-0.1660500019788742
1779996524445623300,16.202623291015627,10.539000511169434,-0.12105000764131546,-0.24300001561641693
1779996524462899700,16.219899658203126,11.008050918579102,-0.16095000505447388,-0.28395000100135803
1779996524480176400,16.23717626953125,10.7920503616333,-0.12300000339746475,-0.2689500153064728
1779996524506090800,16.2630908203125,9.58395004272461,-0.0990000069141388,-0.19995000958442688
1779996524523367400,16.280367431640624,8.848950386047363,-0.07304999977350235,-0.16200000047683716
1779996524540643800,16.297643798828126,8.713050842285156,-0.10905000567436218,-0.12600000202655792
1779996524566558500,16.323558349609375,9.673050880432129,-0.12495000660419464,-0.1879500150680542
1779996524583835100,16.340835205078125,10.53600025177002,-0.1399500072002411,-0.2569500207901001
1779996524601111600,16.358111572265624,10.990950584411621,-0.11100000888109207,-0.32895001769065857
1779996524627026200,16.384026123046876,10.45305061340332,-0.1469999998807907,-0.2550000250339508
1779996524644302600,16.401302490234375,9.5910005569458,-0.12495000660419464,-0.16200000047683716
1779996524661579000,16.4185791015625,8.875950813293457,-0.09195000678300858,-0.12300000339746475
1779996524687493600,16.44449365234375,8.908950805664062,-0.11100000888109207,-0.14295001327991486
1779996524704770300,16.461770263671873,9.661050796508789,-0.10395000129938126,-0.19305001199245453
1779996524722046700,16.479046630859376,10.504950523376465,-0.10605000704526901,-0.2550000250339508
1779996524747961300,16.50496142578125,10.984050750732422,-0.13005000352859497,-0.28095000982284546
1779996524765237800,16.52223779296875,10.455000877380371,-0.11595000326633453,-0.2670000195503235
1779996524782514200,16.53951416015625,9.598050117492676,-0.11595000326633453,-0.1980000138282776
1779996524799790600,16.55679052734375,8.887950897216797,-0.11595000326633453,-0.13095000386238098
1779996524825705200,16.582705322265625,8.919000625610352,-0.08205000311136246,-0.14295001327991486
1779996524842981600,16.599981689453124,9.655950546264648,-0.10200000554323196,-0.2050500065088272
1779996524860258000,16.617258056640626,10.492950439453125,-0.11400000751018524,-0.2650500237941742
1779996524886172700,16.643172607421874,10.950000762939453,-0.1489500105381012,-0.2689500153064728
1779996524903449300,16.660449462890625,10.45305061340332,-0.11400000751018524,-0.24105000495910645
1779996524920725500,16.6777255859375,9.618000030517578,-0.10200000554323196,-0.1980000138282776
1779996524946640400,16.703640380859376,8.74905014038086,-0.08700000494718552,-0.14505000412464142
1779996524963916800,16.720916748046875,8.940000534057617,-0.13305000960826874,-0.11595000326633453
1779996524981193200,16.738193115234374,9.651000022888184,-0.11805000901222229,-0.1879500150680542
1779996524998469600,16.7554697265625,10.4839506149292,-0.1279500126838684,-0.26205000281333923
1779996525015746000,16.77274609375,10.936050415039062,-0.10605000704526901,-0.30300000309944153
1779996525041661000,16.798660888671876,10.444950103759766,-0.15195000171661377,-0.2530499994754791
1779996525058937300,16.815937255859374,9.628950119018555,-0.12105000764131546,-0.19005000591278076
1779996525076213800,16.8332138671875,8.932950019836426,-0.09195000678300858,-0.1399500072002411
1779996525093490200,16.850490234375,8.791950225830078,-0.07304999977350235,-0.1399500072002411
1779996525110766600,16.8677666015625,9.241950035095215,-0.07500000298023224,-0.19305001199245453
1779996525128043000,16.88504296875,10.084050178527832,-0.11595000326633453,-0.20205001533031464
1779996525145319400,16.9023193359375,10.768950462341309,-0.13005000352859497,-0.24105000495910645
1779996525171234300,16.928234375,10.737000465393066,-0.13005000352859497,-0.27900001406669617
1779996525188510500,16.945510498046875,10.017000198364258,-0.10905000567436218,-0.24795001745224
1779996525205787100,16.962787109375,9.226950645446777,-0.11595000326633453,-0.17100000381469727
1779996525223063600,16.9800634765625,8.802000045776367,-0.12300000339746475,-0.11595000326633453
1779996525240340000,16.997340087890624,8.995050430297852,-0.11805000901222229,-0.13095000386238098
1779996525257616400,17.014616455078126,9.673050880432129,-0.0970500037074089,-0.21000000834465027
1779996525274893000,17.03189306640625,10.44795036315918,-0.11400000751018524,-0.2650500237941742
1779996525292169200,17.049169189453124,10.893000602722168,-0.14205001294612885,-0.2770500183105469
1779996525309446000,17.06644580078125,10.7160005569458,-0.1469999998807907,-0.25005000829696655
1779996525326722300,17.083722412109374,10.053000450134277,-0.10395000129938126,-0.21195000410079956
1779996525352637000,17.109636962890626,8.964000701904297,-0.07800000160932541,-0.16200000047683716
1779996525369913300,17.126913330078125,8.842050552368164,-0.10200000554323196,-0.15195000171661377
1779996525387189800,17.144189697265624,9.301950454711914,-0.13305000960826874,-0.13305000960826874
1779996525413104400,17.1701044921875,10.450050354003906,-0.12105000764131546,-0.24300001561641693
1779996525430380800,17.187380859375,10.849950790405273,-0.13005000352859497,-0.29805001616477966
1779996525447657500,17.204657470703125,10.666050910949707,-0.11400000751018524,-0.29100000858306885
1779996525464934000,17.221933837890624,10.033950805664062,-0.13005000352859497,-0.23100000619888306
1779996525490848500,17.2478486328125,9.019050598144531,-0.0990000069141388,-0.14505000412464142
1779996525508125000,17.265125,8.890050888061523,-0.09195000678300858,-0.1399500072002411
1779996525525401600,17.282401611328126,9.297000885009766,-0.11400000751018524,-0.15900000929832458
1779996525551316000,17.30831591796875,10.407000541687012,-0.11805000901222229,-0.23805001378059387
1779996525568592600,17.325592529296873,10.812000274658203,-0.1399500072002411,-0.2670000195503235
1779996525585869000,17.342869140625,10.657950401306152,-0.12105000764131546,-0.26205000281333923
1779996525603145500,17.3601455078125,10.036050796508789,-0.0990000069141388,-0.23100000619888306
1779996525629060000,17.38606005859375,9.040950775146484,-0.11400000751018524,-0.1399500072002411
1779996525646336500,17.40333642578125,8.908950805664062,-0.10905000567436218,-0.13095000386238098
1779996525663613000,17.420613037109376,9.31095027923584,-0.10200000554323196,-0.1660500019788742
1779996525689527800,17.44652783203125,10.386000633239746,-0.11595000326633453,-0.2550000250339508
1779996525706804500,17.463804443359376,10.773000717163086,-0.13500000536441803,-0.29100000858306885
1779996525724080600,17.48108056640625,10.663050651550293,-0.1279500126838684,-0.28395000100135803
1779996525749995500,17.50699560546875,9.706050872802734,-0.13695000112056732,-0.18300001323223114
1779996525767272000,17.52427197265625,9.082050323486328,-0.10200000554323196,-0.1380000114440918
1779996525784548000,17.541548095703124,8.908950805664062,-0.09000000357627869,-0.14505000412464142
1779996525801824800,17.55882470703125,9.30405044555664,-0.10200000554323196,-0.1660500019788742
1779996525819101000,17.576100830078126,9.979050636291504,-0.11400000751018524,-0.21000000834465027
1779996525836377600,17.593377685546876,10.596000671386719,-0.1469999998807907,-0.24300001561641693
1779996525853654000,17.610654052734375,10.777950286865234,-0.11805000901222229,-0.2770500183105469
1779996525870930400,17.627930419921874,10.398000717163086,-0.11100000888109207,-0.2670000195503235
1779996525888206800,17.645206787109377,9.735000610351562,-0.12300000339746475,-0.20205001533031464
1779996525914121500,17.67112158203125,8.962050437927246,-0.10605000704526901,-0.13095000386238098
1779996525931398000,17.68839794921875,9.058050155639648,-0.0990000069141388,-0.1469999998807907
1779996525948674600,17.705674560546875,9.60300064086914,-0.12300000339746475,-0.19500000774860382
1779996525965951000,17.722950927734374,10.32300090789795,-0.12105000764131546,-0.2569500207901001
1779996525983227400,17.740227294921876,10.74000072479248,-0.13005000352859497,-0.2689500153064728
1779996526000503800,17.75750390625,10.669950485229492,-0.1279500126838684,-0.2530499994754791
1779996526026418400,17.78341845703125,9.718050003051758,-0.09405000507831573,-0.21705001592636108
1779996526043694800,17.80069482421875,9.133950233459473,-0.11595000326633453,-0.1380000114440918
1779996526060971500,17.817971435546873,8.93595027923584,-0.11805000901222229,-0.11595000326633453
1779996526078248000,17.835248046875,9.280050277709961,-0.09405000507831573,-0.17400000989437103
1779996526104162600,17.86116259765625,10.294950485229492,-0.13305000960826874,-0.27195000648498535
1779996526121439000,17.87843896484375,10.761000633239746,-0.1279500126838684,-0.3049500286579132
1779996526138715400,17.89571533203125,10.684950828552246,-0.12105000764131546,-0.2880000174045563
1779996526155991800,17.91299169921875,10.13700008392334,-0.13695000112056732,-0.21195000410079956
1779996526173268500,17.9302685546875,9.402000427246094,-0.0970500037074089,-0.15900000929832458
1779996526190544600,17.947544677734374,8.952000617980957,-0.10605000704526901,-0.12600000202655792
1779996526207821300,17.9648212890625,9.003000259399414,-0.09195000678300858,-0.12300000339746475
1779996526233736200,17.990736083984373,9.909000396728516,-0.11595000326633453,-0.19005000591278076
1779996526251012400,18.008012451171876,10.534050941467285,-0.11400000751018524,-0.2550000250339508
1779996526268288800,18.025288818359375,10.785000801086426,-0.13305000960826874,-0.27900001406669617
1779996526285565200,18.042565185546874,10.47195053100586,-0.12495000660419464,-0.2550000250339508
1779996526302841600,18.059841552734376,9.802050590515137,-0.12300000339746475,-0.19995000958442688
1779996526320118000,18.077117919921875,9.175050735473633,-0.09405000507831573,-0.16905000805854797
1779996526346033000,18.103032958984375,9.031050682067871,-0.11100000888109207,-0.15000000596046448
1779996526363309300,18.120309326171874,9.56505012512207,-0.0990000069141388,-0.1879500150680542
1779996526380585500,18.13758544921875,10.23705005645752,-0.13695000112056732,-0.24300001561641693
1779996526406500400,18.163500244140625,10.663050651550293,-0.11595000326633453,-0.28395000100135803
1779996526423777000,18.180777099609376,10.479000091552734,-0.1279500126838684,-0.2550000250339508
1779996526441053400,18.198053466796875,9.853950500488281,-0.10905000567436218,-0.21405000984668732
1779996526466967800,18.2239677734375,9.157950401306152,-0.10395000129938126,-0.17100000381469727
1779996526484244500,18.241244384765626,9.04800033569336,-0.08700000494718552,-0.1660500019788742
1779996526501521000,18.25852099609375,9.460050582885742,-0.11805000901222229,-0.1660500019788742
1779996526518797300,18.27579736328125,10.033950805664062,-0.12300000339746475,-0.19500000774860382
1779996526544712200,18.301712158203124,10.618050575256348,-0.10395000129938126,-0.27195000648498535
1779996526561988600,18.318988525390626,10.480950355529785,-0.15900000929832458,-0.23295001685619354
1779996526579265000,18.33626513671875,9.972000122070312,-0.12105000764131546,-0.1860000044107437
1779996526605179600,18.3621796875,9.184050559997559,-0.10605000704526901,-0.16905000805854797
1779996526622456000,18.3794560546875,9.091050148010254,-0.09000000357627869,-0.17400000989437103
1779996526639732500,18.396732421875,9.457050323486328,-0.11400000751018524,-0.18105000257492065
1779996526665647000,18.422647216796875,10.333050727844238,-0.13500000536441803,-0.22395001351833344
1779996526682923500,18.439923583984374,10.615050315856934,-0.12495000660419464,-0.2670000195503235
1779996526700200000,18.457199951171877,10.450050354003906,-0.11805000901222229,-0.27900001406669617
1779996526726114800,18.48311474609375,9.661050796508789,-0.11805000901222229,-0.2050500065088272
1779996526743391200,18.50039111328125,9.211050033569336,-0.10200000554323196,-0.16905000805854797
1779996526760667600,18.517667724609375,9.133950233459473,-0.09405000507831573,-0.15405000746250153
1779996526786582300,18.543582275390627,9.748950004577637,-0.11400000751018524,-0.19305001199245453
1779996526803858700,18.560858642578125,10.297050476074219,-0.13305000960826874,-0.22395001351833344
1779996526821135000,18.578135009765624,10.582050323486328,-0.13500000536441803,-0.2530499994754791
1779996526847049700,18.6040498046875,10.209000587463379,-0.12105000764131546,-0.23295001685619354
1779996526864326100,18.621326171875,9.675000190734863,-0.12105000764131546,-0.1879500150680542
1779996526881602800,18.638602783203126,9.238950729370117,-0.08700000494718552,-0.15405000746250153
1779996526898879200,18.655879150390625,9.168000221252441,-0.09000000357627869,-0.1660500019788742
1779996526916155600,18.67315576171875,9.498000144958496,-0.13005000352859497,-0.15900000929832458
1779996526933432000,18.69043212890625,10.021950721740723,-0.12300000339746475,-0.21195000410079956
1779996526950708700,18.707708740234374,10.46505069732666,-0.11100000888109207,-0.2550000250339508
1779996526976623000,18.733623046875,10.410000801086426,-0.12495000660419464,-0.27195000648498535
1779996526993899800,18.750899658203124,9.969000816345215,-0.12300000339746475,-0.22605000436306
1779996527011176200,18.76817626953125,9.460050582885742,-0.10200000554323196,-0.17595000565052032
1779996527028452600,18.78545263671875,9.076950073242188,-0.08205000311136246,-0.16395001113414764
1779996527045729000,18.80272900390625,9.472050666809082,-0.12495000660419464,-0.17595000565052032
1779996527063005400,18.82000537109375,9.82800006866455,-0.12495000660419464,-0.2070000171661377
1779996527080282000,18.8372822265625,10.279950141906738,-0.12300000339746475,-0.23100000619888306
1779996527106196700,18.86319677734375,10.357050895690918,-0.11805000901222229,-0.24495001137256622
1779996527123473000,18.880472900390625,9.96405029296875,-0.11400000751018524,-0.22905001044273376
1779996527140749300,18.897749267578124,9.34695053100586,-0.12105000764131546,-0.17595000565052032
1779996527158026000,18.91502587890625,9.201000213623047,-0.10200000554323196,-0.15900000929832458
1779996527175302700,18.932302734375,9.574050903320312,-0.11595000326633453,-0.16905000805854797
1779996527192579000,18.9495791015625,10.02405071258545,-0.10200000554323196,-0.22095000743865967
1779996527209855200,18.966855224609375,10.444950103759766,-0.16395001113414764,-0.24300001561641693
1779996527227132000,18.9841318359375,10.225050926208496,-0.1279500126838684,-0.24105000495910645
1779996527244408000,19.001407958984377,9.517050743103027,-0.11100000888109207,-0.21900001168251038
1779996527270323000,19.027322998046873,9.285000801086426,-0.11400000751018524,-0.18105000257492065
1779996527287599400,19.044599365234376,9.699000358581543,-0.10605000704526901,-0.24105000495910645
1779996527304875800,19.061875732421875,10.18695068359375,-0.12495000660419464,-0.25995001196861267
1779996527330790400,19.087790283203127,10.14900016784668,-0.14205001294612885,-0.24795001745224
1779996527348066800,19.10506689453125,9.486000061035156,-0.09195000678300858,-0.25995001196861267
1779996527365343000,19.122343017578125,9.421050071716309,-0.11400000751018524,-0.24795001745224
1779996527391257900,19.1482578125,9.909000396728516,-0.16395001113414764,-0.2569500207901001
1779996527408534500,19.165534423828124,10.23705005645752,-0.13695000112056732,-0.286050021648407
1779996527425810700,19.182810791015626,10.309050559997559,-0.15405000746250153,-0.31995001435279846
1779996527443087400,19.20008740234375,9.838050842285156,-0.0010500000789761543,-0.6619500517845154
1779996527460363800,19.21736376953125,9.349950790405273,-0.07304999977350235,-0.3750000298023224
1779996527477640200,19.23464013671875,9.457050323486328,-0.208950012922287,-0.1980000138282776
1779996527494916600,19.25191650390625,9.955050468444824,-0.19005000591278076,-0.28395000100135803
1779996527512193000,19.269193115234376,10.44105052947998,-0.1660500019788742,-0.36705002188682556
1779996527529469700,19.2864697265625,10.381050109863281,-0.15195000171661377,-0.40095001459121704
1779996527546745900,19.303745849609374,10.003050804138184,-0.1399500072002411,-0.3630000054836273
1779996527564022500,19.3210224609375,9.229950904846191,-0.1489500105381012,-0.3150000274181366
1779996527589937200,19.346937255859373,9.294000625610352,-0.1469999998807907,-0.286050021648407
1779996527607213600,19.364213623046876,9.856950759887695,-0.17595000565052032,-0.3550500273704529
1779996527624490000,19.381489990234375,10.285050392150879,-0.17805001139640808,-0.4030500054359436
1779996527641766400,19.398766357421874,10.294950485229492,-0.17595000565052032,-0.40800002217292786
1779996527659042800,19.416042724609376,9.724950790405273,-0.10905000567436218,-0.5560500025749207
1779996527676319200,19.4333193359375,9.543000221252441,-0.19500000774860382,-0.36705002188682556
1779996527693595600,19.450595703125,9.172050476074219,-0.0990000069141388,-0.4320000112056732
1779996527710872000,19.4678720703125,10.354950904846191,-0.17100000381469727,-0.4729500114917755
1779996527728148700,19.485148681640624,10.294950485229492,-0.1660500019788742,-0.47805002331733704
1779996527754063000,19.51106298828125,9.778050422668457,-0.17295001447200775,-0.5250000357627869
1779996527771339800,19.52833984375,9.808950424194336,-0.16905000805854797,-0.3940500319004059
1779996527788616000,19.545615966796873,9.354000091552734,-0.11595000326633453,-0.49695003032684326
1779996527805892600,19.562892578125,9.715950012207031,-0.1969500035047531,-0.4990500211715698
1779996527823169000,19.5801689453125,10.17300033569336,-0.20400001108646393,-0.5299500226974487
1779996527840445700,19.59744580078125,10.113000869750977,-0.18105000257492065,-0.5539500117301941
1779996527866360000,19.623360107421874,9.667950630187988,-0.17100000381469727,-0.5659500360488892
1779996527883636700,19.64063671875,9.345000267028809,-0.13305000960826874,-0.6070500016212463
1779996527900913200,19.6579130859375,9.754050254821777,-0.20400001108646393,-0.5610000491142273
1779996527926827800,19.683827880859376,10.19205093383789,-0.25200000405311584,-0.6070500016212463
1779996527944104400,19.7011044921875,10.22295093536377,-0.23805001378059387,-0.6430500149726868
1779996527961380600,19.718380615234373,10.194000244140625,-0.19200000166893005,-0.6859500408172607
1779996527987295500,19.74429541015625,9.184050559997559,-0.13305000960826874,-0.6430500149726868
1779996528004572000,19.761572021484376,9.505050659179688,-0.2760000228881836,-0.612000048160553
1779996528021848300,19.778848388671875,9.807000160217285,-0.2569500207901001,-0.6379500031471252
1779996528047763000,19.804762939453123,9.940950393676758,-0.21405000984668732,-0.7260000109672546
1779996528065039400,19.822039306640626,10.089000701904297,-0.15405000746250153,-0.8029500246047974
1779996528082315800,19.839315673828125,9.706050872802734,-0.1660500019788742,-0.8029500246047974
1779996528099592400,19.856592529296876,9.792000770568848,-0.22605000436306,-0.753000020980835
1779996528116868900,19.873868896484375,9.943050384521484,-0.208950012922287,-0.7720500230789185
1779996528134145300,19.891145263671874,9.967050552368164,-0.21195000410079956,-0.817050039768219
1779996528151421700,19.908421630859376,9.92400074005127,-0.17100000381469727,-0.8560500144958496
1779996528168698000,19.925697998046875,9.820950508117676,-0.17100000381469727,-0.8650500178337097
1779996528185974500,19.942974609375,9.991050720214844,-0.2070000171661377,-0.8940000534057617
1779996528211889200,19.96888916015625,9.64905071258545,-0.19200000166893005,-0.8389500379562378
1779996528229165600,19.98616552734375,9.574050903320312,-0.19995000958442688,-0.8650500178337097
1779996528246442200,20.003442138671875,10.00005054473877,-0.16905000805854797,-0.9030000567436218
1779996528263718400,20.020718505859374,9.996000289916992,-0.16395001113414764,-0.9420000314712524
1779996528280994800,20.037994873046873,9.760950088500977,-0.2070000171661377,-0.9750000238418579
1779996528298271500,20.055271484375,9.703950881958008,-0.2070000171661377,-0.859950065612793
1779996528315548000,20.0725478515625,9.555000305175781,-0.17295001447200775,-0.8940000534057617
1779996528332824300,20.08982421875,9.688950538635254,-0.12105000764131546,-0.9679500460624695
1779996528350100700,20.107100830078124,9.877950668334961,-0.16395001113414764,-0.999000072479248
1779996528367377200,20.124377197265623,10.042950630187988,-0.15405000746250153,-1.0060499906539917
1779996528384653600,20.141653564453126,10.18695068359375,-0.20400001108646393,-1.015950083732605
1779996528401930200,20.15893017578125,10.009950637817383,-0.16095000505447388,-1.0350000858306885
1779996528427844900,20.184844970703125,10.060050010681152,-0.1469999998807907,-1.071000099182129
1779996528445121300,20.202121337890624,9.724950790405273,-0.13695000112056732,-1.0279500484466553
1779996528462397700,20.219397705078126,9.511950492858887,-0.20400001108646393,-0.9559500217437744
1779996528479674400,20.23667431640625,9.819000244140625,-0.10200000554323196,-1.0140000581741333
1779996528496950500,20.253950439453124,9.919050216674805,-0.1279500126838684,-1.0350000858306885
1779996528514227200,20.271227294921875,9.628950119018555,-0.1399500072002411,-1.015950083732605
1779996528531503400,20.28850341796875,9.60105037689209,-0.1279500126838684,-1.0110000371932983
1779996528548779800,20.30577978515625,9.631950378417969,-0.15195000171661377,-0.9900000691413879
1779996528566056400,20.323056396484375,9.706050872802734,-0.15405000746250153,-1.0180500745773315
1779996528583332600,20.34033251953125,9.720000267028809,-0.13695000112056732,-1.0350000858306885
1779996528600609300,20.357609375,9.892950057983398,-0.12105000764131546,-1.0639500617980957
1779996528617885700,20.3748857421875,9.86205005645752,-0.17595000565052032,-1.0609500408172607
1779996528635161900,20.392161865234375,9.82800006866455,-0.14505000412464142,-1.0830000638961792
1779996528652438500,20.4094384765625,9.829950332641602,-0.1399500072002411,-1.0950000286102295
1779996528669715000,20.42671484375,9.937950134277344,-0.13305000960826874,-1.114050030708313
1779996528686991400,20.443991455078127,10.033950805664062,-0.0990000069141388,-1.1380500793457031
1779996528704267800,20.461267822265626,10.165950775146484,-0.18300001323223114,-1.1020500659942627
1779996528721544200,20.478544189453125,9.838050842285156,-0.12105000764131546,-1.0810500383377075
1779996528747459000,20.504458984375,9.381000518798828,-0.11400000751018524,-1.0920000076293945
1779996528764735500,20.521735595703124,9.711000442504883,-0.0970500037074089,-1.114050030708313
1779996528782012000,20.539011962890626,9.955050468444824,-0.12300000339746475,-1.1040000915527344
1779996528799288300,20.556288330078125,9.829950332641602,-0.15405000746250153,-1.0879501104354858
1779996528825203200,20.582203125,9.967050552368164,-0.11400000751018524,-1.1400001049041748
1779996528842479400,20.599479248046876,9.928950309753418,-0.10200000554323196,-1.1590501070022583
1779996528859755800,20.616755859375,9.771000862121582,-0.11400000751018524,-1.128000020980835
1779996528885670400,20.64267041015625,9.682050704956055,-0.11805000901222229,-1.0969500541687012
1779996528902947000,20.659947021484374,9.835050582885742,-0.10395000129938126,-1.1430000066757202
1779996528920223500,20.677223388671877,10.057950019836426,-0.11805000901222229,-1.1790000200271606
1779996528946138000,20.70313818359375,10.017000198364258,-0.1279500126838684,-1.1479500532150269
1779996528963414500,20.72041455078125,9.687000274658203,-0.1279500126838684,-1.0849500894546509
1779996528980691000,20.73769091796875,9.36405086517334,-0.09195000678300858,-1.0830000638961792
1779996529006605600,20.76360546875,9.562050819396973,-0.05595000088214874,-1.1190000772476196
1779996529023882000,20.780882080078126,9.570000648498535,-0.11400000751018524,-1.1069999933242798
1779996529041158400,20.798158447265624,9.711000442504883,-0.1279500126838684,-1.0849500894546509
1779996529067073300,20.8240732421875,9.973950386047363,-0.11595000326633453,-1.1359500885009766
1779996529084349700,20.841349609375,9.97605037689209,-0.09000000357627869,-1.168950080871582
1779996529101626000,20.858626220703126,9.826050758361816,-0.08205000311136246,-1.1809500455856323
1779996529118902500,20.875902587890625,9.979050636291504,-0.09405000507831573,-1.1710500717163086
1779996529136179200,20.89317919921875,9.892950057983398,-0.08505000174045563,-1.1640000343322754
1779996529153455400,20.910455322265626,9.651000022888184,-0.0799500048160553,-1.1569499969482422
1779996529170732000,20.92773193359375,9.718050003051758,-0.11805000901222229,-1.1620500087738037
1779996529188008400,20.945008544921876,9.96405029296875,-0.08205000311136246,-1.1640000343322754
1779996529205284900,20.962284912109375,9.907050132751465,-0.13005000352859497,-1.1590501070022583
1779996529222561300,20.979561279296874,9.652950286865234,-0.0990000069141388,-1.1479500532150269
1779996529239837700,20.996837646484376,9.663000106811523,-0.0799500048160553,-1.1380500793457031
1779996529265752600,21.022752685546877,9.952950477600098,-0.07500000298023224,-1.1830500364303589
1779996529283028700,21.04002880859375,9.808950424194336,-0.07500000298023224,-1.1710500717163086
1779996529300305400,21.057305419921875,9.748950004577637,-0.14505000412464142,-1.1329500675201416
1779996529326219800,21.0832197265625,9.586050033569336,-0.0799500048160553,-1.1239500045776367
1779996529343496400,21.100496337890625,9.8899507522583,-0.10395000129938126,-1.15500009059906
1779996529360772900,21.11777294921875,9.850050926208496,-0.08700000494718552,-1.1860500574111938
1779996529386687500,21.1436875,9.796950340270996,-0.09405000507831573,-1.1860500574111938
1779996529403964200,21.160964111328123,9.718050003051758,-0.12300000339746475,-1.1670000553131104
1779996529421240600,21.178240478515626,9.880950927734375,-0.11100000888109207,-1.1590501070022583
1779996529447155200,21.2041552734375,9.945000648498535,-0.07304999977350235,-1.1790000200271606
1779996529464431600,21.221431640625,9.661050796508789,-0.08505000174045563,-1.168950080871582
1779996529481707800,21.238707763671876,9.57705020904541,-0.11805000901222229,-1.152000069618225
1779996529498984400,21.255984375,9.8899507522583,-0.08205000311136246,-1.1620500087738037
1779996529516260900,21.2732607421875,9.892950057983398,-0.06795000284910202,-1.1710500717163086
1779996529533537300,21.290537353515624,9.688950538635254,-0.11400000751018524,-1.1620500087738037
1779996529550813700,21.307813720703123,9.759000778198242,-0.07500000298023224,-1.1880000829696655
1779996529568090400,21.32509033203125,9.973950386047363,-0.09195000678300858,-1.1830500364303589
1779996529585366500,21.342366455078125,9.775050163269043,-0.10200000554323196,-1.1670000553131104
1779996529602643000,21.359642822265624,9.534000396728516,-0.10905000567436218,-1.1500500440597534
1779996529628557800,21.385557861328124,9.720000267028809,-0.09195000678300858,-1.1790000200271606
1779996529645834200,21.402834228515626,9.96405029296875,-0.09000000357627869,-1.2030000686645508
1779996529663110700,21.420110595703125,9.973950386047363,-0.08700000494718552,-1.2000000476837158
1779996529689025300,21.446025390625,9.619950294494629,-0.09000000357627869,-1.1860500574111938
1779996529706301700,21.4633017578125,9.790050506591797,-0.06300000101327896,-1.2030000686645508
1779996529723578000,21.480578125,9.928950309753418,-0.07304999977350235,-1.2049500942230225
1779996529740854500,21.4978544921875,9.778050422668457,-0.0970500037074089,-1.2190500497817993
1779996529766769400,21.523769287109374,9.940950393676758,-0.09405000507831573,-1.2120000123977661
1779996529784045600,21.541045654296877,9.715950012207031,-0.06795000284910202,-1.2220500707626343
1779996529801322200,21.558322265625,9.877950668334961,-0.08505000174045563,-1.225950002670288
1779996529827236900,21.58423681640625,9.718050003051758,-0.07800000160932541,-1.210050106048584
1779996529844513300,21.60151318359375,9.86400032043457,-0.08505000174045563,-1.2120000123977661
1779996529861789700,21.618789794921874,10.045950889587402,-0.06105000153183937,-1.237950086593628
1779996529887704300,21.644704345703126,9.646050453186035,-0.0970500037074089,-1.1910001039505005
1779996529904980700,21.661980712890625,9.775050163269043,-0.07800000160932541,-1.2030000686645508
1779996529922257200,21.679257080078123,9.859050750732422,-0.0990000069141388,-1.2220500707626343
1779996529948171800,21.705171875,10.491000175476074,-0.09405000507831573,-1.2220500707626343
1779996529965448400,21.722448486328126,11.544000625610352,-0.1969500035047531,-1.2649500370025635
1779996529982724600,21.739724609375,15.253050804138184,-0.3049500286579132,-1.4350500106811523
1779996530000001300,21.757001220703124,23.833951950073242,-0.8740500211715698,2.9740500450134277
1779996530025916000,21.782916015625,16.275001525878906,-0.7879500389099121,-1.057050108909607
1779996530043192300,21.8001923828125,-5.569050312042236,-0.9370500445365906,1.2610501050949097
1779996530060468700,21.81746875,-8.260950088500977,-0.9940500259399414,1.7010000944137573
1779996530077745400,21.834745361328125,-6.297000408172607,-0.1279500126838684,2.3449501991271973
1779996530095021800,21.852021728515624,0.5460000038146973,1.5150001049041748,-0.817050039768219
1779996530112298000,21.869298095703126,12.79995059967041,1.5220500230789185,-2.9160001277923584
1779996530129574700,21.88657470703125,53.053951263427734,-3.894000291824341,-2.611950159072876
1779996530146851000,21.90385107421875,16.114049911499023,-1.1899501085281372,-1.3510500192642212
1779996530164127500,21.92112744140625,4.285950183868408,3.2430002689361572,-1.5780000686645508
1779996530181404000,21.93840380859375,-3.2700002193450928,1.0920000076293945,0.7060500383377075
1779996530198680300,21.955680419921876,-6.117000102996826,-0.7240500450134277,1.8760501146316528
1779996530224595000,21.981594970703124,-1.3429501056671143,0.1489500105381012,0.037950001657009125
1779996530241871600,21.99887158203125,8.457000732421875,0.28995001316070557,-1.3840500116348267
1779996530259147800,22.016147705078126,33.53505325317383,-1.168950080871582,-1.9830000400543213
1779996530285062700,22.042062744140626,21.867000579833984,0.15405000746250153,-1.746000051498413
1779996530302338800,22.0593388671875,19.59600067138672,-0.8839500546455383,-1.6519501209259033
1779996530319615500,22.076615478515624,-0.6829500198364258,0.208950012922287,-0.6379500031471252
1779996530345529900,22.10252978515625,-5.914050102233887,-0.2639999985694885,1.3590000867843628
1779996530362806500,22.119806640625,-3.0640501976013184,0.2160000056028366,0.5860500335693359
1779996530380082700,22.137082763671874,5.341050148010254,1.0630500316619873,-1.4010000228881836
1779996530397359400,22.154359375,20.572050094604492,-1.8889501094818115,-2.6860501766204834
1779996530414635500,22.171635498046875,39.98100280761719,-2.4250500202178955,-1.6279500722885132
1779996530431912000,22.188911865234374,11.764050483703613,1.7419500350952148,-2.1880500316619873
1779996530449188600,22.206188720703125,7.134000301361084,0.46905001997947693,0.10500000417232513
1779996530466465000,22.223465087890624,4.777050018310547,-1.4800500869750977,0.4620000123977661
1779996530483741400,22.240741455078126,-6.5809502601623535,-0.4630500078201294,2.0530500411987305
1779996530501017900,22.258017822265625,-4.35105037689209,0.17295001447200775,0.9379500150680542
1779996530526932700,22.2839326171875,7.621950149536133,1.3620001077651978,-0.8440500497817993
1779996530544209200,22.301209228515624,30.040950775146484,-2.5849502086639404,-1.6260000467300415
1779996530561485600,22.318485595703127,30.68895149230957,-2.053950071334839,-1.4160000085830688
1779996530587400200,22.344400146484375,4.695000171661377,1.0049999952316284,-0.7429500222206116
1779996530604676600,22.361676513671874,-0.3340500295162201,-0.5389500260353088,0.40905001759529114
1779996530621953000,22.378953125,2.1349501609802246,-0.7950000166893005,0.6079500317573547
1779996530647868000,22.404867919921877,-0.034050002694129944,0.2989500164985657,0.08100000023841858
1779996530665144000,22.42214404296875,8.385000228881836,0.6630000472068787,-1.3030500411987305
1779996530682420700,22.439420654296875,34.31700134277344,-1.615950107574463,-1.702950119972229
1779996530699697200,22.456697265625,16.93305015563965,0.004950000438839197,-1.1740500926971436
1779996530725611800,22.48261181640625,18.160051345825195,-0.9919500350952148,-0.7290000319480896
1779996530742888200,22.49988818359375,-1.966050148010254,0.33105000853538513,-0.13500000536441803
1779996530760164600,22.51716455078125,-3.763050079345703,0.10305000841617584,0.9330000281333923
1779996530786079200,22.543079345703124,-0.015000000596046448,0.45705002546310425,0.13905000686645508
1779996530803355600,22.560355712890626,7.267950534820557,1.0030500888824463,-0.7260000109672546
1779996530820632000,22.577632080078125,36.45900344848633,-2.454000234603882,-1.4350500106811523
1779996530846547000,22.603546875,11.344950675964355,1.2570000886917114,-1.5109500885009766
1779996530863823000,22.620822998046876,16.717050552368164,-0.46995002031326294,-0.42000001668930054
1779996530881099800,22.638099853515627,2.530050039291382,-0.7690500617027283,0.48600003123283386
1779996530898376200,22.655376220703126,-2.509050130844116,-0.2639999985694885,1.6200001239776611
1779996530915652600,22.672652587890624,-1.8580501079559326,0.25905001163482666,0.9120000600814819
1779996530932929000,22.689928955078123,3.3859500885009766,0.6780000329017639,-0.5680500268936157
1779996530950205400,22.707205322265626,12.064950942993164,0.04800000041723251,-1.432050108909607
1779996530967481900,22.72448193359375,36.133052825927734,-2.170950174331665,-1.360050082206726
1779996530984758300,22.74175830078125,11.878950119018555,1.38795006275177,-2.0310001373291016
1779996531002035000,22.759034912109374,11.730000495910645,-0.046950001269578934,-0.33195000886917114
1779996531019311000,22.77631103515625,11.814000129699707,-1.3890000581741333,-0.1380000114440918
1779996531045226000,22.80222607421875,-1.1779500246047974,0.22800001502037048,0.9520500302314758
1779996531062502400,22.81950244140625,0.24195000529289246,0.5719500184059143,0.25394999980926514
1779996531079778600,22.836778564453127,5.329050064086914,0.9310500621795654,-0.35295000672340393
1779996531105693400,22.862693359375,34.61595153808594,-1.9459501504898071,-1.3990501165390015
1779996531122969900,22.879969970703126,11.395051002502441,1.1749500036239624,-1.7149500846862793
1779996531140246300,22.897246337890625,13.35300064086914,-0.1660500019788742,-0.4129500091075897
1779996531157523000,22.91452294921875,12.621000289916992,-1.1830500364303589,-0.27195000648498535
1779996531174799000,22.931799072265626,-1.3410000801086426,0.6780000329017639,0.28005000948905945
1779996531192075500,22.949075439453125,-1.3290001153945923,0.5440500378608704,0.531000018119812
1779996531209352200,22.966352294921876,2.1559500694274902,0.46905001997947693,0.004950000438839197
1779996531226628600,22.983628662109375,12.63705062866211,-0.6930000185966492,-1.1160000562667847
1779996531243905000,23.000905029296874,24.082950592041016,-1.1830500364303589,-0.7290000319480896
1779996531269819600,23.026819580078126,16.038000106811523,-0.046950001269578934,-0.7380000352859497
1779996531287096000,23.044095947265625,17.91105079650879,-1.0519500970840454,-0.8010000586509705
1779996531304372500,23.06137255859375,1.7569501399993896,0.453000009059906,-0.2880000174045563
1779996531330287000,23.087287109375,0.9550500512123108,0.07005000114440918,0.5119500160217285
1779996531347563500,23.1045634765625,8.050050735473633,-0.48405003547668457,-0.025050001218914986
1779996531364840000,23.12183984375,9.937950134277344,0.07200000435113907,-0.5419500470161438
1779996531382116400,23.139116455078124,17.605051040649414,-0.20205001533031464,-0.9540000557899475
1779996531399392800,23.156392822265627,20.095951080322266,-0.5059500336647034,-0.9150000214576721
1779996531416669200,23.173669189453125,13.152000427246094,0.08700000494718552,-0.7740000486373901
1779996531433945600,23.190945556640624,10.587000846862793,-0.3910500109195709,-0.3550500273704529
1779996531451222000,23.208221923828123,1.1040000915527344,0.17295001447200775,0.17505000531673431
1779996531468498400,23.22549853515625,0.7210500240325928,0.09795000404119492,0.3730500042438507
1779996531485774800,23.24277490234375,5.3680500984191895,-0.1570500135421753,0.06705000251531601
1779996531511689700,23.268689697265625,13.999051094055176,-0.12105000764131546,-0.7170000076293945
1779996531528966100,23.285966064453124,19.579050064086914,-0.3550500273704529,-0.9180000424385071
1779996531546242600,23.30324267578125,16.89000129699707,-0.15900000929832458,-0.8959500193595886
1779996531572157200,23.3291572265625,8.718000411987305,-0.13500000536441803,-0.34095001220703125
1779996531589433600,23.34643359375,2.200050115585327,0.039000000804662704,0.22305001318454742
1779996531606710300,23.363710205078124,1.2469500303268433,-0.010950000956654549,0.43800002336502075
1779996531632625000,23.389625,7.533000469207764,-0.06105000153183937,-0.22395001351833344
