time,seconds_elapsed,z,y,x
1779996174688684500,0.2006845703125,0.12329699844121933,-0.006792999804019928,-0.030480999499559402
1779996174705961200,0.217961181640625,-0.07376199960708618,-0.01920199953019619,-0.24114899337291718
1779996174723238000,0.23523779296875,-0.08213900029659271,-0.00977499969303608,-0.15042999386787415
1779996174740514600,0.2525146484375,-0.060520000755786896,-0.0055160000920295715,-0.09649199992418289
1779996174757791200,0.269791259765625,-0.04327499866485596,-0.0022279999684542418,-0.06424299627542496
1779996174775068000,0.28706787109375,-0.022909000515937805,0.001062000053934753,-0.045876000076532364
1779996174792344600,0.304344482421875,-0.010003999806940556,0.001547000021673739,-0.03347000107169151
1779996174809621200,0.321621337890625,-0.004526000004261732,0.0003260000084992498,-0.02364099957048893
1779996174826898000,0.33889794921875,-0.0011859999503940344,0.0008849999867379665,-0.016265999525785446
1779996174844174300,0.35617431640625,-0.0047530001029372215,0.001970000099390745,-0.011711999773979187
1779996174861451000,0.373450927734375,-0.008503999561071396,0.0025369999930262566,-0.00874600000679493
1779996174878728000,0.39072802734375,-0.003361999988555908,0.0028099999763071537,-0.008201000280678272
1779996174896004400,0.40800439453125,0.00880999956279993,0.004364000167697668,-0.010084999725222588
1779996174913281000,0.425281005859375,0.011777999810874462,0.002830999903380871,-0.00871300045400858
1779996174930557700,0.4425576171875,0.0035550000611692667,0.0008670000243000686,-0.004964000079780817
1779996174947834400,0.45983447265625,-0.005534000229090452,0.0011289999820291996,-0.0030869999900460243
1779996174973749200,0.485749267578125,-0.005700999870896339,0.006308000069111586,-0.007567999884486198
1779996174991026000,0.50302587890625,0.0016090000281110406,0.004726000130176544,-0.00846800021827221
1779996175008302600,0.520302490234375,0.005547999870032072,0.0018759999657049775,-0.0053170002065598965
1779996175025579300,0.537579345703125,-0.0014260000316426158,-0.0011980000417679548,-0.0010420000180602074
1779996175042856000,0.55485595703125,-0.007267999928444624,-0.0017109999898821115,0.0014250000240281224
1779996175060132600,0.572132568359375,-0.0014359999913722277,0.00014200000441633165,-0.00005700000110664405
1779996175077409300,0.5894091796875,-0.00292299990542233,0.00072900002123788,-0.0018990000244230032
1779996175094686000,0.60668603515625,0.0025820001028478146,-0.0022380000445991755,-0.002618999918922782
1779996175120600800,0.632600830078125,0.017667999491095543,0.0004360000020824373,-0.005005999933928251
1779996175137877500,0.64987744140625,0.012876000255346298,-0.0008689999813213944,-0.0026289999950677156
1779996175155154200,0.667154296875,-0.004495000001043081,-0.0014359999913722277,0.0018899999558925629
1779996175172430800,0.684430908203125,-0.016110999509692192,0.0016319999704137444,0.0015790000325068831
1779996175189707500,0.70170751953125,-0.013691999949514866,0.0036730000283569098,-0.0012860000133514404
1779996175215622700,0.72762255859375,-0.004191000014543533,0.0005230000242590904,0.0006709999870508909
1779996175232899000,0.744899169921875,-0.0010470000561326742,-0.0025229998864233494,0.004220000002533197
1779996175250175700,0.76217578125,0.0005150000215508044,0.00036199999158270657,0.002865999937057495
1779996175267452400,0.779452392578125,0.006455000024288893,0.0008190000080503523,0.0002640000020619482
1779996175284729000,0.79672900390625,0.007067000027745962,-0.00011300000187475234,-0.0006469999789260328
1779996175302005800,0.814005859375,0.0010509999701753259,0.0006799999973736703,-0.0007200000109151006
1779996175319282200,0.8312822265625,-0.0028230000752955675,0.0010600000387057662,-0.0016220000106841326
1779996175336559000,0.84855908203125,-0.003108999924734235,-0.0006350000039674342,-0.002391000045463443
1779996175353835800,0.865835693359375,-0.010476999916136265,0.0004090000002179295,-0.0033420000690966845
1779996175371112200,0.8831123046875,-0.011644000187516212,-0.0030040000565350056,-0.001512999995611608
1779996175388388900,0.900388916015625,-0.006560000125318766,-0.0036329999566078186,-0.00253800000064075
1779996175405665500,0.91766552734375,0.00010199999815085903,-0.0013680000556632876,-0.006881999783217907
1779996175422942500,0.9349423828125,0.007646000012755394,-0.0032999999821186066,-0.008080000057816505
1779996175448857000,0.960857177734375,-0.00005900000178371556,-0.006572000216692686,-0.005090999882668257
1779996175466134000,0.978134033203125,-0.02078700065612793,-0.0037980000488460064,-0.006384999956935644
1779996175483410700,0.99541064453125,-0.012845000252127647,-0.0019580000080168247,-0.008845999836921692
1779996175500687400,1.012687255859375,0.01155999954789877,-0.0009210000280290842,-0.010995999909937382
1779996175517964000,1.029964111328125,0.018691999837756157,-0.0037799999117851257,-0.010610999539494514
1779996175535240700,1.04724072265625,0.03764000162482262,-0.0006709999870508909,-0.011831999756395817
1779996175552517600,1.064517578125,0.03891900181770325,-0.000493000028654933,-0.010648000054061413
1779996175569794300,1.081794189453125,0.017862999811768532,-0.005266999825835228,-0.00547399977222085
1779996175587070700,1.09907080078125,0.002294000005349517,-0.0022350000217556953,-0.001883000019006431
1779996175604347400,1.116347412109375,0.00008900000102585182,0.0027169999666512012,-0.0014600000577047467
1779996175621624000,1.1336240234375,-0.0051739998161792755,0.0015219999477267265,-0.0005259999888949096
1779996175638901000,1.15090087890625,-0.015714000910520554,0.0002840000088326633,0.0010029999539256096
1779996175656177700,1.168177734375,-0.02299799956381321,0.0016749999485909939,0.0028750000055879354
1779996175673454300,1.185454345703125,-0.02775000035762787,0.00020399999630171806,0.00559200020506978
1779996175690731000,1.20273095703125,-0.0184480007737875,0.00018099999579135329,0.0036170000676065683
1779996175708007700,1.220007568359375,0.000750000006519258,0.001978999935090542,0.0007580000092275441
1779996175725284400,1.237284423828125,0.03215499967336655,0.0001049999991664663,0.0003440000000409782
1779996175742561000,1.25456103515625,0.021932000294327736,-0.001348000019788742,0.0024029999040067196
1779996175777114600,1.289114501953125,-0.019266000017523766,-0.0007719999994151294,0.00776199996471405
1779996175794391300,1.306391357421875,-0.036692000925540924,-0.0015150000108405948,0.0083619998767972
1779996175811668000,1.32366796875,-0.040724001824855804,-0.0016070000128820539,0.007011000066995621
1779996175828944600,1.340944580078125,-0.020601000636816025,0.0016380000161007047,0.0040270001627504826
1779996175846221300,1.35822119140625,-0.005078999791294336,-0.0013500000350177288,0.002474999986588955
1779996175863498000,1.375498046875,0.00005500000042957254,-0.003722999943420291,0.0014309999532997608
1779996175880775000,1.39277490234375,0.00826600007712841,-0.002739999908953905,-0.0014700000174343586
1779996175898051600,1.410051513671875,0.00803299993276596,-0.0016509999986737967,-0.004284000024199486
1779996175915328300,1.427328369140625,0.00816699955612421,-0.0026140001136809587,-0.00546000013127923
1779996175932605000,1.44460498046875,0.014031999744474888,-0.0019020000472664833,-0.008510000072419643
1779996175949881600,1.461881591796875,0.017364999279379845,0.0005300000193528831,-0.009886999614536762
1779996175975796700,1.487796630859375,0.00044800000614486635,-0.00342399999499321,-0.005001000128686428
1779996175993073400,1.505073486328125,-0.001677999971434474,-0.003938999958336353,-0.0020129999611526728
1779996176010350300,1.522350341796875,0.008255000226199627,-0.00023700000019744039,-0.004772999789565802
1779996176027627000,1.539626953125,0.0062779998406767845,0.0006900000153109431,-0.007546000182628632
1779996176044903400,1.5569033203125,-0.0017750000115484,0.0013599999947473407,-0.008160999976098537
1779996176062180400,1.574180419921875,-0.007747000083327293,0.004379999823868275,-0.006434999871999025
1779996176079457000,1.59145703125,-0.008760999888181686,0.0034409998916089535,-0.002650999929755926
1779996176096734000,1.60873388671875,-0.008120999671518803,0.002202000003308058,0.00010199999815085903
1779996176114010600,1.6260107421875,-0.010455000214278698,0.001370999962091446,0.002157999901100993
1779996176131287600,1.64328759765625,-0.019440000876784325,0.0015920000150799751,0.003155000042170286
1779996176148564200,1.660564208984375,-0.01610499992966652,0.004782999865710735,0.001560000004246831
1779996176165841200,1.677841064453125,-0.009963000193238258,0.0058559998869895935,-0.001016999944113195
1779996176183117800,1.695117919921875,-0.00785600021481514,0.0036329999566078186,-0.00267999991774559
1779996176209032700,1.72103271484375,0.016908999532461166,0.0021689999848604202,-0.00508299982175231
1779996176226309600,1.7383095703125,0.03928099945187569,0.0025110000278800726,-0.009748999960720539
1779996176243586300,1.75558642578125,0.09868799895048141,0.0022070000413805246,-0.014228000305593014
1779996176260863000,1.772863037109375,0.5047190189361572,-0.03635000064969063,0.020781999453902245
1779996176278139600,1.7901396484375,0.5354859828948975,-0.000981000019237399,-0.04583900049328804
1779996176295416600,1.80741650390625,0.46401500701904297,-0.002222999930381775,-0.0366239994764328
1779996176312693200,1.824693359375,-0.12216299772262573,-0.00698699988424778,-0.008290000259876251
1779996176329970000,1.841969970703125,-0.7875949740409851,0.002495999913662672,0.07022000104188919
1779996176355885300,1.86788525390625,-1.0671449899673462,0.03638099879026413,0.08363199979066849
1779996176373162000,1.885161865234375,-0.5402910113334656,0.01839599944651127,0.02311200089752674
1779996176390439000,1.90243896484375,0.6330959796905518,-0.03905799984931946,-0.014853999949991703
1779996176407715600,1.919715576171875,0.6659500002861023,0.005911999847739935,-0.04564899951219559
1779996176424992500,1.936992431640625,1.086650013923645,-0.042121000587940216,-0.04969799891114235
1779996176442269400,1.95426953125,0.44257399439811707,-0.02229899913072586,-0.02268199995160103
1779996176459546000,1.971546142578125,-0.3343780040740967,-0.0008580000139772892,0.047635000199079514
1779996176476822800,1.98882275390625,-0.8694549798965454,0.00698000006377697,0.11475499719381332
1779996176494099500,2.006099365234375,-1.0461349487304688,0.022167999297380447,0.11953999847173691
1779996176511376400,2.02337646484375,-0.7343720197677612,0.018386000767350197,0.07082600146532059
1779996176528653000,2.040653076171875,-0.17575199902057648,-0.0016830000095069408,0.03962400183081627
1779996176545930000,2.057929931640625,0.11650899797677994,-0.01598300039768219,0.030872000381350517
1779996176563206700,2.07520654296875,0.7626129984855652,-0.01821799948811531,-0.02116899937391281
1779996176589121800,2.101121826171875,0.8559780120849609,-0.004426999948918819,-0.06311199814081192
1779996176606398700,2.118398681640625,0.5234500169754028,-0.014204000122845173,-0.024298999458551407
1779996176623675400,2.13567529296875,0.059193000197410583,-0.045513998717069626,0.03968299925327301
1779996176649590800,2.1615908203125,-1.051285982131958,0.039232999086380005,0.07173900306224823
1779996176666867500,2.178867431640625,-0.43584200739860535,-0.012334000319242477,0.05567599833011627
1779996176684144400,2.196144287109375,-0.3111239969730377,0.02962600067257881,0.026545999571681023
1779996176701421000,2.213421142578125,0.466592013835907,0.0021150000393390656,-0.010679000057280064
1779996176718698000,2.230697998046875,0.7533599734306335,-0.004044000059366226,-0.05349300056695938
1779996176735974700,2.247974609375,0.6869699954986572,-0.012223999947309494,-0.059262000024318695
1779996176753251600,2.26525146484375,0.2975409924983978,-0.016820000484585762,-0.010425000451505184
1779996176770528300,2.2825283203125,-0.35534700751304626,0.012666000053286552,0.05087200179696083
1779996176787805200,2.29980517578125,-0.9648190140724182,0.049800001084804535,0.0561549998819828
1779996176805082000,2.31708203125,-0.3802349865436554,-0.012602999806404114,0.048381999135017395
1779996176822359000,2.334359130859375,-0.43981000781059265,0.03689400106668472,0.028922000899910927
1779996176848274200,2.360274169921875,0.6427440047264099,-0.01232299953699112,-0.027921000495553017
1779996176865551000,2.377551025390625,0.6587499976158142,0.0032659999560564756,-0.05832500010728836
1779996176882827800,2.394827880859375,0.4845049977302551,-0.00009100000170292333,-0.036396998912096024
1779996176908743200,2.4207431640625,-0.425476998090744,0.019930999726057053,0.04124699905514717
1779996176926020000,2.43802001953125,-0.7146300077438354,0.019277000799775124,0.0524200014770031
1779996176943296800,2.455296875,-0.5425770282745361,0.0000470000013592653,0.04661700129508972
1779996176969212000,2.4812119140625,0.15718799829483032,-0.003976999782025814,0.008673000149428844
1779996176986488800,2.49848876953125,0.5418019890785217,-0.009909000247716904,-0.03394699841737747
1779996177003765800,2.515765869140625,0.5804160237312317,0.006176999770104885,-0.05716700106859207
1779996177021042400,2.53304248046875,0.4846529960632324,-0.012701000086963177,-0.03528499975800514
1779996177038319400,2.5503193359375,0.056387998163700104,-0.016526000574231148,0.019046999514102936
1779996177055596300,2.56759619140625,-0.73089200258255,0.03148699924349785,0.0484980009496212
1779996177072873200,2.584873291015625,-0.5070639848709106,-0.005359000060707331,0.04247400164604187
1779996177098788400,2.610788330078125,-0.3620550036430359,0.02214900031685829,0.02081199921667576
1779996177116065300,2.628065185546875,0.478626012802124,-0.02721099928021431,-0.011297999881207943
1779996177133342200,2.64534228515625,0.5502060055732727,-0.008163000456988811,-0.048604998737573624
1779996177150619100,2.662619140625,0.5575640201568604,-0.007443999871611595,-0.05011000111699104
1779996177167895800,2.679895751953125,0.2792600095272064,-0.01298299990594387,-0.013961000367999077
1779996177185172700,2.6971728515625,-0.3136630058288574,0.005702999886125326,0.035144999623298645
1779996177202449700,2.71444970703125,-0.6951509714126587,0.019934000447392464,0.04792800173163414
1779996177228365000,2.740364990234375,-0.5163270235061646,0.014124000445008278,0.0361189991235733
1779996177245642000,2.75764208984375,0.10010699927806854,0.001841000048443675,0.007201999891549349
1779996177262918700,2.774918701171875,0.526760995388031,-0.014619999565184116,-0.030933000147342682
1779996177280195600,2.792195556640625,0.5275009870529175,0.003060000017285347,-0.05313200131058693
1779996177297472500,2.809472412109375,0.45430898666381836,-0.011134999804198742,-0.03316200152039528
1779996177314749200,2.826749267578125,0.06041400134563446,-0.012690000236034393,0.015900999307632446
1779996177332026000,2.844026123046875,-0.6396570205688477,0.02901500090956688,0.044162001460790634
1779996177357941200,2.869941162109375,-0.45866501331329346,-0.004925000015646219,0.04096800088882446
1779996177375218200,2.88721826171875,-0.34223300218582153,0.019308999180793762,0.025249000638723373
1779996177392495000,2.9044951171875,0.4068019986152649,-0.01912599988281727,-0.0067349998280406
1779996177418410500,2.930410400390625,0.5252280235290527,0.00203699991106987,-0.04868699982762337
1779996177435687400,2.9476875,0.4512479901313782,-0.01157199963927269,-0.03144099935889244
1779996177452964400,2.96496435546875,0.0617079995572567,-0.010444000363349915,0.012854999862611294
1779996177478879500,2.99087939453125,-0.5929210186004639,0.012911999598145485,0.043529998511075974
1779996177496156400,3.008156494140625,-0.4700550138950348,-0.005863000173121691,0.04244599863886833
1779996177513433300,3.025433349609375,-0.32522299885749817,0.0138330003246665,0.025250999256968498
1779996177530710000,3.0427099609375,0.37471699714660645,-0.016822999343276024,-0.008520999923348427
1779996177547987000,3.059987060546875,0.45977500081062317,0.004534000065177679,-0.04505399987101555
1779996177565264000,3.077263916015625,0.5546680092811584,-0.008621999993920326,-0.04871800169348717
1779996177591179000,3.103178955078125,0.06062500178813934,-0.01039199996739626,0.01219900045543909
1779996177608456000,3.1204560546875,-0.5590059757232666,0.020301999524235725,0.0420989990234375
1779996177625732900,3.13773291015625,-0.45806199312210083,-0.0057020001113414764,0.04477199912071228
1779996177643009800,3.155009765625,-0.5270259976387024,0.018160000443458557,0.03222699835896492
1779996177660286700,3.17228662109375,0.09170299768447876,-0.0034360000863671303,0.008334999904036522
1779996177686202000,3.1982021484375,0.4416620135307312,0.003988000098615885,-0.03886000066995621
1779996177703479000,3.21547900390625,0.5473499894142151,-0.009914999827742577,-0.043285999447107315
1779996177720756000,3.232755859375,0.27685898542404175,-0.013900999911129475,-0.012643000110983849
1779996177746671000,3.258671142578125,-0.511368989944458,0.021181000396609306,0.03429799899458885
1779996177763948000,3.275947998046875,-0.45803698897361755,-0.0015279999934136868,0.040098998695611954
1779996177781225000,3.293224853515625,-0.5099729895591736,0.015573999844491482,0.03139299899339676
1779996177798502000,3.310501953125,0.0875450000166893,-0.007567000109702349,0.00975400023162365
1779996177824417300,3.336417236328125,0.43055498600006104,0.00177800003439188,-0.036920998245477676
1779996177841694200,3.353694091796875,0.5281829833984375,-0.010602000169456005,-0.044686999171972275
1779996177858971100,3.37097119140625,0.26718199253082275,-0.010103000327944756,-0.016603000462055206
1779996177876248000,3.388248046875,-0.2670519948005676,0.013225000351667404,0.022975999861955643
1779996177893524700,3.405524658203125,-0.4647879898548126,0.006370999850332737,0.039590999484062195
1779996177910801700,3.4228017578125,-0.5140259861946106,0.008441999554634094,0.036671001464128494
1779996177928078600,3.44007861328125,-0.24639299511909485,0.008925000205636024,0.022537000477313995
1779996177945355500,3.45735546875,0.249767005443573,-0.012919999659061432,-0.0013749999925494194
1779996177971271000,3.48327099609375,0.5197629928588867,-0.00381199992261827,-0.042066000401973724
1779996177988547800,3.5005478515625,0.40656599402427673,-0.003957999870181084,-0.034821998327970505
1779996178005824800,3.51782470703125,0.03348299860954285,0.0032339999452233315,0.0020379999186843634
1779996178023101700,3.535101806640625,-0.3942210078239441,0.013682999648153782,0.032878000289201736
1779996178040378600,3.552378662109375,-0.4794290065765381,0.0016740000573918223,0.04435800015926361
1779996178057655600,3.569655517578125,-0.4488770067691803,0.011114999651908875,0.03286899998784065
1779996178074932500,3.586932373046875,0.03252600133419037,-0.0031590000726282597,0.008821999654173851
1779996178092209400,3.60420947265625,0.3213129937648773,-0.001728000002913177,-0.021880999207496643
1779996178118124800,3.630124755859375,0.49160900712013245,-0.004846000112593174,-0.04297000169754028
1779996178135401700,3.647401611328125,0.25707298517227173,-0.005092000123113394,-0.01641100086271763
1779996178152678700,3.6646787109375,-0.2064179927110672,0.005559000186622143,0.020406000316143036
1779996178169955600,3.68195556640625,-0.4307189881801605,0.001310999970883131,0.039145998656749725
1779996178187232500,3.699232421875,-0.5028380155563354,0.008279000408947468,0.03434399887919426
1779996178204509400,3.716509521484375,-0.22195200622081757,0.008450999855995178,0.016096999868750572
1779996178221786400,3.733786376953125,0.17930099368095398,-0.002004999900236726,-0.007346999831497669
1779996178239063300,3.751063232421875,0.4282679855823517,-0.004869000054895878,-0.02970300056040287
1779996178256340000,3.768340087890625,0.4829689860343933,-0.011973000131547451,-0.03389099985361099
1779996178273617000,3.785616943359375,0.23616500198841095,-0.00964100006967783,-0.012105000205338001
1779996178290893800,3.802893798828125,-0.18573600053787231,0.0071020000614225864,0.015977000817656517
1779996178308170800,3.820170654296875,-0.42486900091171265,0.006624999921768904,0.0321119986474514
1779996178334086100,3.846086181640625,-0.39690300822257996,0.007521999999880791,0.02788900025188923
1779996178351363000,3.863363037109375,-0.0018889999482780695,-0.003519000019878149,0.010343999601900578
1779996178368640000,3.880639892578125,0.3092440068721771,-0.00430699996650219,-0.01766500063240528
1779996178385917000,3.8979169921875,0.48521798849105835,-0.01071999967098236,-0.03816999867558479
1779996178403193900,3.91519384765625,0.37090399861335754,-0.006732999812811613,-0.03286400064826012
1779996178429109200,3.941109130859375,-0.16100500524044037,0.005919000133872032,0.014065000228583813
1779996178446386200,3.95838623046875,-0.41721001267433167,0.0055240001529455185,0.03420700132846832
1779996178463663000,3.9756630859375,-0.46628299355506897,0.0043390002101659775,0.03397800028324127
1779996178489578500,4.00157861328125,-0.019833000376820564,-0.002426000079140067,0.009139000438153744
1779996178506855400,4.01885546875,0.30191901326179504,-0.0024969999212771654,-0.021219000220298767
1779996178524132400,4.03613232421875,0.4685850143432617,-0.004660999868065119,-0.04086500033736229
1779996178541409300,4.0534091796875,0.36330899596214294,-0.004182000178843737,-0.03132199868559837
1779996178558686500,4.0706865234375,0.04619000107049942,-0.00048099999548867345,0.0014570000348612666
1779996178575963400,4.08796337890625,-0.30276399850845337,0.004259999841451645,0.029506999999284744
1779996178593240000,4.105239990234375,-0.45991000533103943,0.004321000073105097,0.0371600016951561
1779996178610517200,4.122517333984375,-0.3831540048122406,0.008520999923348427,0.026551000773906708
1779996178627794200,4.139794189453125,-0.02962600067257881,0.0008970000199042261,0.006386999972164631
1779996178653709600,4.16570947265625,0.40077900886535645,-0.0026209999341517687,-0.029797999188303947
1779996178670986500,4.182986572265625,0.44577500224113464,-0.006144000217318535,-0.035610001534223557
1779996178688263400,4.200263427734375,0.2311449944972992,-0.0065100002102553844,-0.013984999619424343
1779996178714178800,4.2261787109375,-0.29377999901771545,0.00445100013166666,0.027600999921560287
1779996178731456000,4.2434560546875,-0.4538800120353699,0.008973999880254269,0.0320729985833168
1779996178748733000,4.26073291015625,-0.37894999980926514,0.008295999839901924,0.02406200021505356
1779996178774648300,4.2866484375,0.1391489952802658,-0.004803000018000603,-0.0010849999962374568
1779996178791925200,4.30392529296875,0.39394399523735046,-0.00660899979993701,-0.026078000664711
1779996178809202200,4.3212021484375,0.4386439919471741,-0.006310000084340572,-0.03698199987411499
1779996178826479000,4.33847900390625,0.227524995803833,-0.0029529999010264874,-0.019214000552892685
1779996178843756300,4.35575634765625,-0.12873199582099915,0.00442600017413497,0.011567000299692154
1779996178861033200,4.373033203125,-0.38797900080680847,0.005384999793022871,0.03183000162243843
1779996178878310100,4.39031005859375,-0.4403400123119354,0.005539000034332275,0.0331839993596077
1779996178895587000,4.407587158203125,-0.22071099281311035,0.001988000003620982,0.02098199911415577
1779996178912864300,4.4248642578125,0.12629100680351257,-0.005185000132769346,-0.0009280000231228769
1779996178930141200,4.44214111328125,0.3776859939098358,-0.0059980000369250774,-0.028325999155640602
1779996178947418000,4.459418212890625,0.4256719946861267,-0.0055610002018511295,-0.03901999816298485
1779996178964695000,4.476695068359375,0.22828499972820282,-0.0026149998884648085,-0.020251000300049782
1779996178981972000,4.493971923828125,-0.11100099980831146,0.0016060000052675605,0.011861000210046768
1779996178999249000,4.511248779296875,-0.3690899908542633,0.003872999921441078,0.031647998839616776
1779996179016526000,4.528526123046875,-0.42669200897216797,0.007021999917924404,0.02987699955701828
1779996179033803000,4.545802978515625,-0.22274799644947052,0.004391999915242195,0.01581599935889244
1779996179059718400,4.571718505859375,0.25901100039482117,-0.006105000153183937,-0.013550999574363232
1779996179076995300,4.588995361328125,0.422681987285614,-0.008297000080347061,-0.03104499913752079
1779996179094272500,4.6062724609375,0.3469099998474121,-0.004224999807775021,-0.028801999986171722
1779996179111549700,4.6235498046875,0.06674399971961975,0.00039599998854100704,-0.0021100000012665987
1779996179128826400,4.640826416015625,-0.2528809905052185,0.004044000059366226,0.024376999586820602
1779996179146103600,4.658103515625,-0.4167160093784332,0.0065819998271763325,0.03217900171875954
1779996179163380700,4.675380615234375,-0.3556880056858063,0.007428999990224838,0.023862000554800034
1779996179180657700,4.69265771484375,-0.05597500130534172,0.0009889999637380242,0.00784400012344122
1779996179197934600,4.7099345703125,0.2530609965324402,-0.004087999928742647,-0.013381999917328358
1779996179215211800,4.727211669921875,0.41468900442123413,-0.005603000055998564,-0.030439000576734543
1779996179232488700,4.74448876953125,0.34096500277519226,-0.004594000056385994,-0.02795499935746193
1779996179249765600,4.761765625,0.06845399737358093,-0.000043000000005122274,-0.004414000082761049
1779996179267042600,4.77904248046875,-0.2452010065317154,0.003647000063210726,0.02218800038099289
1779996179284319500,4.796319580078125,-0.40623900294303894,0.003877999959513545,0.033100999891757965
1779996179301596700,4.8135966796875,-0.3472859859466553,0.0063229999504983425,0.02547300048172474
1779996179318873600,4.83087353515625,-0.05927800014615059,0.00228599994443357,0.006845000199973583
1779996179344789200,4.856789306640625,0.34491899609565735,-0.0026680000592023134,-0.027396999299526215
1779996179362066200,4.874066162109375,0.40051499009132385,-0.007910000160336494,-0.03372899815440178
1779996179379343400,4.89134326171875,0.22478200495243073,-0.006134000141173601,-0.01708099991083145
1779996179405258500,4.917258544921875,-0.23196600377559662,0.004751000087708235,0.02069300040602684
1779996179422535700,4.93453564453125,-0.39465200901031494,0.005898999981582165,0.02962999977171421
1779996179439812900,4.951812744140625,-0.34366199374198914,0.00609799986705184,0.024272000417113304
1779996179457089800,4.96908984375,-0.06669499725103378,0.0012860000133514404,0.009115000255405903
1779996179474367000,4.986366943359375,0.231331005692482,-0.004127999767661095,-0.013346999883651733
1779996179491644000,5.003643798828125,0.3928169906139374,-0.005462000146508217,-0.030672000721096992
1779996179508920800,5.0209208984375,0.3321619927883148,-0.00595899997279048,-0.026649000123143196
1779996179526198000,5.038197998046875,0.07846599817276001,-0.0009549999958835542,-0.0042420001700520515
1779996179543475000,5.055474853515625,-0.22305800020694733,0.005654000211507082,0.017907999455928802
1779996179569390300,5.081390380859375,-0.393530011177063,0.00585799990221858,0.027914000675082207
1779996179586667300,5.098667236328125,-0.2205290049314499,0.0013630000175908208,0.01962600089609623
1779996179603944400,5.1159443359375,0.08720199763774872,-0.005164000205695629,0.001993000041693449
1779996179621221400,5.133221435546875,0.32454198598861694,-0.0038789999671280384,-0.022870000451803207
1779996179638498300,5.150498291015625,0.3839400112628937,-0.0017290000105276704,-0.035374999046325684
1779996179655775500,5.167775390625,0.22347700595855713,-0.0015660000499337912,-0.020023999735713005
1779996179673052400,5.185052490234375,-0.07026799768209457,-0.0013470000121742487,0.010615999810397625
1779996179698967800,5.2109677734375,-0.3741210103034973,0.004220999777317047,0.032072000205516815
1779996179716245000,5.228244873046875,-0.33351999521255493,0.00723200011998415,0.0231929998844862
1779996179733522000,5.24552197265625,-0.07846699655056,0.00355600006878376,0.006802999880164862
1779996179759437300,5.271437255859375,0.31363001465797424,-0.00469700014218688,-0.021195000037550926
1779996179776714500,5.288714599609375,0.3781299889087677,-0.007230000104755163,-0.028586000204086304
1779996179793991400,5.305991455078125,0.22522099316120148,-0.004652999807149172,-0.016023000702261925
1779996179811268400,5.323268310546875,-0.06284700334072113,0.0011309999972581863,0.00824899971485138
1779996179828545300,5.340545166015625,-0.30789700150489807,0.0048329997807741165,0.024869000539183617
1779996179845822500,5.357822509765625,-0.37997299432754517,0.007329999934881926,0.025781000033020973
1779996179863099400,5.375099365234375,-0.22257199883460999,0.0044999998062849045,0.016078999266028404
1779996179889014800,5.401014892578125,0.20240600407123566,-0.00547999981790781,-0.00899800006300211
1779996179906292000,5.4182919921875,0.36289599537849426,-0.008038000203669071,-0.026944000273942947
1779996179923569000,5.43556884765625,0.3183470070362091,-0.004914000164717436,-0.028245000168681145
1779996179940846000,5.45284619140625,0.08957099914550781,0.0008740000193938613,-0.007904999889433384
1779996179966761500,5.478761474609375,-0.296519011259079,0.0030529999639838934,0.025093000382184982
1779996179984038700,5.49603857421875,-0.37070098519325256,0.0038429999258369207,0.028936000540852547
1779996180001315600,5.513315673828125,-0.22277699410915375,0.0035180000122636557,0.01745999976992607
1779996180018592500,5.530592529296875,0.061145998537540436,-0.0018820000113919377,-0.0014979999978095293
1779996180035869400,5.547869384765625,0.29221901297569275,-0.004126999992877245,-0.020471999421715736
1779996180053146600,5.565146728515625,0.35995998978614807,-0.005435999948531389,-0.02830200083553791
1779996180070423800,5.582423828125,0.22034400701522827,-0.003249000059440732,-0.016721999272704124
1779996180087700700,5.59970068359375,-0.05110099911689758,0.002693000016734004,0.005415999796241522
1779996180104977700,5.616977783203125,-0.2873989939689636,0.00532200001180172,0.022710999473929405
1779996180122254800,5.6342548828125,-0.36255601048469543,0.004044000059366226,0.028202999383211136
1779996180139531800,5.65153173828125,-0.2203570008277893,0.002856000093743205,0.019199000671505928
1779996180156808700,5.66880859375,0.056988999247550964,0.00007899999764049426,0.0013370000524446368
1779996180182724000,5.69472412109375,0.3418149948120117,-0.0035830000415444374,-0.025270000100135803
1779996180200001300,5.712001220703125,0.30514898896217346,-0.0034290000330656767,-0.025195999071002007
1779996180217278200,5.7292783203125,0.09250900149345398,-0.0012369999894872308,-0.006527999881654978
1779996180243193600,5.755193603515625,-0.27625301480293274,0.002819000044837594,0.022742999717593193
1779996180260470800,5.772470703125,-0.3513999879360199,0.0032339999452233315,0.0259770005941391
1779996180277747700,5.789747802734375,-0.21580900251865387,0.003447999944910407,0.01619100011885166
1779996180303663000,5.8156630859375,0.17790000140666962,-0.0018789999885484576,-0.012020999565720558
1779996180320940300,5.832940185546875,0.3349989950656891,-0.00457199988886714,-0.027488000690937042
1779996180338217200,5.85021728515625,0.3017289936542511,-0.005874000024050474,-0.024637000635266304
1779996180364132600,5.876132568359375,-0.03998899832367897,-0.002136999974027276,0.007555000018328428
1779996180381409800,5.893409912109375,-0.26934999227523804,0.005293999798595905,0.021642999723553658
1779996180398686700,5.910686767578125,-0.3475170135498047,0.007853999733924866,0.023002000525593758
1779996180424602600,5.9366025390625,-0.09227199852466583,0.0016580000519752502,0.009145000018179417
1779996180441879600,5.953879638671875,0.1693360060453415,-0.004616999998688698,-0.00762300007045269
1779996180459156500,5.971156494140625,0.3262760043144226,-0.007038999814540148,-0.023408999666571617
1779996180476433400,5.988433349609375,0.29646700620651245,-0.004083999898284674,-0.025050999596714973
1779996180493710600,6.005710693359375,0.09661199897527695,-0.0005080000264570117,-0.007953999564051628
1779996180510987500,6.022987548828125,-0.1621820032596588,0.004255999810993671,0.014639000408351421
1779996180528264400,6.040264404296875,-0.32210400700569153,0.0058120000176131725,0.02546199969947338
1779996180545541600,6.057541748046875,-0.3022960126399994,0.004689000081270933,0.02222999930381775
1779996180562818600,6.074818603515625,-0.09624700248241425,0.0009970000246539712,0.009645000100135803
1779996180588734000,6.10073388671875,0.255391001701355,-0.0045779999345541,-0.01606700010597706
1779996180606011000,6.118010986328125,0.3275960087776184,-0.004741999786347151,-0.02601899951696396
1779996180623288000,6.1352880859375,0.21106499433517456,-0.0016690000193193555,-0.017340999096632004
1779996180649203500,6.161203369140625,-0.1543779969215393,0.002870999975129962,0.013385999947786331
1779996180666480400,6.17848046875,-0.31307700276374817,0.0035349999088793993,0.0243149995803833
1779996180683757600,6.195757568359375,-0.2963930070400238,0.004253000020980835,0.020973000675439835
1779996180701034500,6.213034423828125,-0.09690999984741211,0.0022750000935047865,0.007691999897360802
1779996180718311400,6.2303115234375,0.15276400744915009,-0.002142000012099743,-0.009713999927043915
1779996180735588400,6.24758837890625,0.30918601155281067,-0.006207999773323536,-0.023190999403595924
1779996180752865500,6.264865478515625,0.288349986076355,-0.0044450000859797,-0.023584000766277313
1779996180778781000,6.290781005859375,-0.025100000202655792,0.0006380000268109143,0.0034000000450760126
1779996180796057900,6.308057861328125,-0.2438810020685196,0.0034970000851899385,0.020221000537276268
1779996180813335000,6.3253349609375,-0.325221985578537,0.005671000108122826,0.024351000785827637
1779996180839250400,6.35125048828125,-0.09877199679613113,0.001964000053703785,0.008983000181615353
1779996180856527400,6.36852734375,0.14688900113105774,-0.0012440000427886844,-0.008810999803245068
1779996180873804500,6.385804443359375,0.30191799998283386,-0.004253999795764685,-0.0235190000385046
1779996180899720000,6.411719970703125,0.21111099421977997,-0.0037529999390244484,-0.01779000088572502
1779996180916997000,6.4289970703125,-0.019272999837994576,-0.00009200000204145908,0.003481999970972538
1779996180934274300,6.4462744140625,-0.23594099283218384,0.002007999923080206,0.020005999132990837
1779996180960189400,6.472189453125,-0.28926700353622437,0.003967999946326017,0.020685000345110893
1779996180977466600,6.489466552734375,-0.10213900357484818,0.0022330000065267086,0.008592999540269375
1779996180994743600,6.50674365234375,0.1389780044555664,-0.00029299999005161226,-0.008577000349760056
1779996181012020700,6.524020751953125,0.2938939929008484,-0.005189999938011169,-0.02141599915921688
1779996181029297400,6.54129736328125,0.2805800139904022,-0.00658900011330843,-0.019819000735878944
1779996181046574600,6.55857470703125,0.10575400292873383,-0.0018680000212043524,-0.006111999973654747
1779996181063851800,6.575851806640625,-0.13358700275421143,0.003742000088095665,0.011261999607086182
1779996181089767000,6.601766845703125,-0.3124760091304779,0.0058189998380839825,0.022198999300599098
1779996181107044000,6.619044189453125,-0.21140499413013458,0.0015920000150799751,0.017728999257087708
1779996181124321300,6.6363212890625,0.018995000049471855,-0.0023620000574737787,0.004135999828577042
1779996181150236700,6.662236572265625,0.2864780128002167,-0.0033100000582635403,-0.0209989994764328
1779996181167513600,6.679513671875,0.2753860056400299,-0.003444999922066927,-0.023879000917077065
1779996181184790800,6.696790771484375,0.1077670007944107,-0.00036700000055134296,-0.008863000199198723
1779996181202067700,6.714067626953125,-0.12381500005722046,0.0030060000717639923,0.012168999761343002
1779996181219344600,6.7313447265625,-0.28206899762153625,0.0036979999858886003,0.023600000888109207
1779996181236621600,6.74862158203125,-0.27932900190353394,0.004126999992877245,0.02092299982905388
1779996181253898500,6.7658984375,-0.10596200078725815,0.0019779999274760485,0.009077000431716442
1779996181271175700,6.78317578125,0.12558099627494812,-0.0007120000082068145,-0.0076790000312030315
1779996181297091300,6.80909130859375,0.2988719940185547,-0.0028349999338388443,-0.025898000225424767
1779996181314368000,6.826367919921875,0.2090429961681366,-0.005131999962031841,-0.01638299971818924
1779996181331645200,6.843645263671875,-0.00203999993391335,-0.0018810000037774444,0.0035649999044835567
1779996181348922400,6.86092236328125,-0.21066999435424805,0.00279000005684793,0.01795399934053421
1779996181366199300,6.87819921875,-0.2979789972305298,0.006686000153422356,0.019899999722838402
1779996181383476200,6.895476318359375,-0.2109230011701584,0.004954999778419733,0.01397399976849556
1779996181400753200,6.912753173828125,0.007127999793738127,-0.001357999979518354,0.0026130001060664654
1779996181418030000,6.930030029296875,0.21086299419403076,-0.0045449999161064625,-0.012211999855935574
1779996181435307300,6.947307373046875,0.29237499833106995,-0.004937999881803989,-0.022607000544667244
1779996181452584200,6.964584228515625,0.20548400282859802,-0.0012199999764561653,-0.01882000081241131
1779996181469861400,6.981861328125,0.0004030000127386302,0.00031599999056197703,-0.0008779999916441739
1779996181487138300,6.99913818359375,-0.20310500264167786,0.002486000070348382,0.016436999663710594
1779996181504415200,7.016415283203125,-0.28993600606918335,0.002727000042796135,0.02233700081706047
1779996181521692400,7.0336923828125,-0.2065269947052002,0.0028170000296086073,0.015469999983906746
1779996181538969300,7.05096923828125,0.001825000043027103,-0.00033999999868683517,0.0015920000150799751
1779996181556246300,7.068246337890625,0.2019679993391037,-0.0019399999873712659,-0.014639000408351421
1779996181573523200,7.085523193359375,0.2827630043029785,-0.002440999960526824,-0.024096999317407608
1779996181599438800,7.11143896484375,0.11260700225830078,-0.004614000208675861,-0.006777999922633171
1779996181616715800,7.1287158203125,-0.10441900044679642,0.0009769999887794256,0.011460999958217144
1779996181633992700,7.14599267578125,-0.25949999690055847,0.005692000035196543,0.01942100003361702
1779996181651270000,7.163269775390625,-0.26742398738861084,0.004765999969094992,0.01781499944627285
1779996181668546800,7.180546875,-0.11208800226449966,0.0012499999720603228,0.00877199973911047
1779996181685823700,7.19782373046875,0.10592599958181381,-0.0023380001075565815,-0.00583299994468689
1779996181703100700,7.2151005859375,0.2569270133972168,-0.004699999932199717,-0.01945599913597107
1779996181720377600,7.232377685546875,0.26023799180984497,-0.0037990000564604998,-0.02195899933576584
1779996181737654800,7.24965478515625,0.11489199846982956,-0.0017930000321939588,-0.009064000099897385
1779996181763570400,7.2755703125,-0.18983499705791473,0.0017689999658614397,0.016628000885248184
1779996181780847400,7.292847412109375,-0.27866101264953613,0.002343999920412898,0.022050999104976654
1779996181798124300,7.310124267578125,-0.20513099431991577,0.0033889999613165855,0.014992999844253063
1779996181824040000,7.3360400390625,0.09987299889326096,-0.0029959999956190586,-0.005332999862730503
1779996181841316900,7.35331689453125,0.2522749900817871,-0.004112999886274338,-0.017412999644875526
1779996181858593800,7.37059375,0.25574299693107605,-0.0028359999414533377,-0.02026900090277195
1779996181875870700,7.38787060546875,0.11525499820709229,-0.0026569999754428864,-0.008236999623477459
1779996181893148000,7.40514794921875,-0.0947360023856163,-0.0002579999854788184,0.009518999606370926
1779996181910424800,7.4224248046875,-0.24762199819087982,0.00481100007891655,0.019020000472664833
1779996181927701800,7.43970166015625,-0.2603839933872223,0.005260999780148268,0.018515000119805336
1779996181944978700,7.456978759765625,-0.11419299989938736,0.0014649999793618917,0.010254000313580036
1779996181962256000,7.474255859375,0.09546399861574173,-0.001766999950632453,-0.0031610000878572464
1779996181979532800,7.49153271484375,0.24445100128650665,-0.005291000008583069,-0.015448999591171741
1779996181996809700,7.508809814453125,0.25073501467704773,-0.003117999993264675,-0.018718000501394272
1779996182022725000,7.53472509765625,0.01368900015950203,0.0025530001148581505,-0.0018420000560581684
1779996182040002300,7.552002197265625,-0.17927700281143188,0.0062790000811219215,0.012807999737560749
1779996182057279200,7.569279296875,-0.26706600189208984,0.0032530000898987055,0.021227000281214714
1779996182074556200,7.58655615234375,-0.19913999736309052,-0.0004569999873638153,0.01909800060093403
1779996182091833300,7.603833251953125,-0.01338099967688322,0.00020399999630171806,0.004987000022083521
1779996182109110300,7.6211103515625,0.17334799468517303,-0.0006089999806135893,-0.013054000213742256
1779996182126387200,7.63838720703125,0.2601580023765564,-0.0014609999489039183,-0.024268999695777893
1779996182143664000,7.6556640625,0.19813799858093262,-0.0026199999265372753,-0.018428999930620193
1779996182160941300,7.67294140625,0.022515999153256416,-0.0023399998899549246,0.0008140000281855464
1779996182178218200,7.69021826171875,-0.1680629998445511,0.0007479999912902713,0.0150950001552701
1779996182204133600,7.716133544921875,-0.25095298886299133,0.004244000185281038,0.015720000490546227
1779996182221410600,7.73341064453125,-0.11826799809932709,0.0016570000443607569,0.007853000424802303
1779996182238687700,7.750687744140625,0.0809520035982132,-0.0009679999784566462,-0.004838999826461077
1779996182255964700,7.767964599609375,0.22912700474262238,-0.003413999918848276,-0.01749200001358986
1779996182273241600,7.78524169921875,0.24323800206184387,-0.004788000136613846,-0.018813999369740486
1779996182290518500,7.8025185546875,0.11900699883699417,-0.004569999873638153,-0.0071020000614225864
1779996182307795700,7.819795654296875,-0.0765720009803772,0.0005200000014156103,0.007693000137805939
1779996182325072600,7.83707275390625,-0.22644899785518646,0.00634399987757206,0.01464799977838993
1779996182342349600,7.854349609375,-0.2470249980688095,0.006076000165194273,0.015283999964594841
1779996182359626500,7.87162646484375,-0.11699000000953674,0.0007619999814778566,0.009960000403225422
1779996182376903700,7.888903564453125,0.079305000603199,-0.00343000004068017,-0.0012440000427886844
1779996182394180600,7.9061806640625,0.22406500577926636,-0.004441000055521727,-0.015153000131249428
1779996182411457500,7.92345751953125,0.2373179942369461,-0.003109999932348728,-0.020277999341487885
1779996182428734500,7.940734375,0.11589299887418747,-0.0012369999894872308,-0.01075700018554926
1779996182446011400,7.958011474609375,-0.07261800020933151,0.0012110000243410468,0.006552999839186668
1779996182463288300,7.975288330078125,-0.21840700507164001,0.0025110000278800726,0.017479000613093376
1779996182489204000,8.001203857421874,-0.19355200231075287,0.0021200000774115324,0.014138000085949898
1779996182506481000,8.01848095703125,-0.02232399955391884,-0.00005900000178371556,0.00241199997253716
1779996182523757800,8.0357578125,0.1560859978199005,-0.0020800000056624413,-0.010604999959468842
1779996182549673200,8.061673095703124,0.23343800008296967,-0.0020630001090466976,-0.019311999902129173
1779996182566950400,8.078950439453125,0.11818300187587738,-0.0020729999523609877,-0.008377999998629093
1779996182584227300,8.096227294921874,-0.06722100079059601,-0.00045900000259280205,0.009429000318050385
1779996182601504300,8.113504150390625,-0.21372799575328827,0.0019519999623298645,0.01873300038278103
1779996182618781200,8.13078125,-0.2402230054140091,0.004759000148624182,0.01699100062251091
1779996182636058400,8.148058349609375,-0.12132800370454788,0.003160000080242753,0.008488000370562077
1779996182661973800,8.173973876953125,0.14993500709533691,-0.0015539999585598707,-0.009173999540507793
1779996182679250700,8.191250732421874,0.24148599803447723,-0.004005999770015478,-0.017076000571250916
1779996182696528000,8.20852783203125,0.19242799282073975,-0.0032659999560564756,-0.014233999885618687
1779996182713804800,8.2258046875,0.032248999923467636,0.0001939999929163605,-0.0001630000042496249
1779996182731081700,8.243081787109375,-0.14801199734210968,0.004168999847024679,0.013078000396490097
1779996182748359000,8.26035888671875,-0.24288199841976166,0.0064199999906122684,0.017583999782800674
1779996182765635800,8.2776357421875,-0.19540199637413025,0.00380200007930398,0.01406100019812584
1779996182782912800,8.294912841796876,-0.03150999918580055,-0.0007689999765716493,0.004889999981969595
1779996182800189700,8.312189697265625,0.1457419991493225,-0.0037849999498575926,-0.00775599991902709
1779996182817466600,8.329466552734376,0.2368360012769699,-0.003633999964222312,-0.01824899949133396
1779996182834743800,8.346743896484375,0.1907929927110672,-0.0015350000467151403,-0.018137000501155853
1779996182852020700,8.364020751953126,0.03625600039958954,-0.00015199999324977398,-0.0046270000748336315
1779996182869297700,8.381297607421875,-0.14017799496650696,0.0011139999842271209,0.011613000184297562
1779996182886574600,8.39857470703125,-0.23375900089740753,0.0008660000166855752,0.01909700036048889
1779996182903851500,8.4158515625,-0.19128799438476562,0.0006559999892488122,0.014480000361800194
1779996182921128700,8.433128662109375,-0.03328099846839905,0.0008539999835193157,0.0016479999758303165
1779996182938405400,8.4504052734375,0.13881300389766693,-0.0009200000204145908,-0.011694000102579594
1779996182955682600,8.4676826171875,0.2309730052947998,-0.004174999892711639,-0.018383000046014786
1779996182972959500,8.48495947265625,0.18934999406337738,-0.004459000192582607,-0.014252999797463417
1779996182990236400,8.502236328125,0.038600001484155655,-0.0016540000215172768,-0.002090000081807375
1779996183016152000,8.528152099609375,-0.19724400341510773,0.002687999978661537,0.014817999675869942
1779996183033429000,8.545428955078124,-0.22941699624061584,0.005255000200122595,0.015099000185728073
1779996183050706000,8.562705810546875,-0.12292300164699554,0.0030060000717639923,0.008871999569237232
1779996183076621300,8.588621337890626,0.13610799610614777,-0.002778999973088503,-0.006688000168651342
1779996183093898200,8.605898193359375,0.22689400613307953,-0.0031059999018907547,-0.01570199988782406
1779996183111175400,8.623175537109375,0.185808002948761,-0.0016560000367462635,-0.015014000236988068
1779996183128452400,8.640452392578124,0.0387439988553524,0.0004839999892283231,-0.0031640001107007265
1779996183145729300,8.657729248046875,-0.13252300024032593,0.003869999898597598,0.010022000409662724
1779996183163006200,8.675006103515624,-0.2249169945716858,0.0031399999279528856,0.016419000923633575
1779996183180283100,8.692283203125,-0.18664999306201935,0.0007329999934881926,0.015038999728858471
1779996183206198500,8.718198486328125,0.05125899985432625,-0.00013699999544769526,-0.0021619999315589666
1779996183223475700,8.735475830078125,0.19171999394893646,-0.0006360000115819275,-0.015995999798178673
1779996183240752600,8.752752685546875,0.21899199485778809,-0.0014280000468716025,-0.018851999193429947
1779996183266668000,8.77866796875,0.04339500144124031,-0.0027520000003278255,-0.0007210000185295939
1779996183283945000,8.795945068359375,-0.1254899948835373,0.0005600000149570405,0.012746999971568584
1779996183301222000,8.813221923828126,-0.2205290049314499,0.002337000099942088,0.016874000430107117
1779996183318499000,8.8304990234375,-0.18709500133991241,0.004660000093281269,0.011680000461637974
1779996183335776000,8.84777587890625,-0.04106299951672554,0.003083999967202544,0.0018720000516623259
1779996183353053000,8.865052978515624,0.12450599670410156,-0.0039079999551177025,-0.006548000033944845
1779996183370330000,8.882330078125,0.2169010043144226,-0.005781000014394522,-0.013837999664247036
1779996183396245500,8.90824560546875,0.12166400253772736,-0.0006089999806135893,-0.01057399995625019
1779996183413522400,8.9255224609375,-0.04347800090909004,0.003438000101596117,0.003504999913275242
1779996183430799400,8.94279931640625,-0.18383100628852844,0.004344000015407801,0.016574999317526817
1779996183456714800,8.96871484375,-0.1878490000963211,0.0027830000035464764,0.01500799972563982
1779996183473991700,8.98599169921875,-0.04490000009536743,0.001142999972216785,0.003452999982982874
1779996183491268900,9.003268798828126,0.11973799765110016,-0.0024580000899732113,-0.009593999944627285
1779996183508545500,9.020545654296875,0.21510100364685059,-0.00342399999499321,-0.017791999503970146
1779996183525822500,9.037822509765626,0.18660899996757507,-0.003097000066190958,-0.015471000224351883
1779996183543099600,9.055099609375,0.05127999931573868,-0.0019440000178292394,-0.004056000150740147
1779996183560376600,9.07237646484375,-0.11593600362539291,0.0022269999608397484,0.009145000018179417
1779996183577653500,9.089653564453124,-0.2160010039806366,0.001858999952673912,0.016394000500440598
1779996183594930400,9.106930419921875,-0.18910999596118927,0.0005510000046342611,0.014014000073075294
1779996183612207400,9.124207275390624,-0.047864001244306564,0.0008379999781027436,0.0036849998869001865
1779996183638122800,9.150122802734375,0.18048599362373352,-0.0029319999739527702,-0.013585000298917294
1779996183655399700,9.167399658203125,0.2169570028781891,-0.004224999807775021,-0.017180999740958214
1779996183672676900,9.1846767578125,0.1300089955329895,-0.00368599989451468,-0.009948999620974064
1779996183698592300,9.21059228515625,-0.1108430027961731,0.002718999981880188,0.0073460000567138195
1779996183715869200,9.227869140625,-0.20980599522590637,0.0030930000357329845,0.015843000262975693
1779996183733146400,9.245146484375,-0.18749399483203888,0.001787999994121492,0.015014000236988068
1779996183759061800,9.271061767578125,0.03073900006711483,0.00012599999899975955,0.00010599999950500205
1779996183776338700,9.288338623046876,0.1709049940109253,-0.00035200000274926424,-0.012004000134766102
1779996183793615600,9.30561572265625,0.20996999740600586,0.00041199999395757914,-0.01657800003886223
1779996183819531000,9.331531005859375,0.055334001779556274,-0.002587999915704131,-0.0012209999840706587
1779996183836808200,9.34880810546875,-0.10564599931240082,0.0015839999541640282,0.010665999725461006
1779996183854085000,9.366085205078125,-0.2055329978466034,0.0048039997927844524,0.015107999555766582
1779996183871362000,9.383362060546874,-0.1868019998073578,0.005282000172883272,0.01054999977350235
1779996183888639000,9.400638916015625,-0.05505499988794327,0.0021039999555796385,0.0019020000472664833
1779996183905916000,9.417916015625,0.10528899729251862,-0.0024049999192357063,-0.00633700005710125
1779996183923192800,9.43519287109375,0.2037619948387146,-0.005609999876469374,-0.01348700001835823
1779996183940470000,9.452469970703126,0.18315300345420837,-0.0029780000913888216,-0.01422099955379963
1779996183957746700,9.46974658203125,0.057732999324798584,0.0007479999912902713,-0.0061530000530183315
1779996183983662000,9.495662109375,-0.1635259985923767,0.004379999823868275,0.012392999604344368
1779996184000939000,9.51293896484375,-0.20739200711250305,0.0005440000095404685,0.018384000286459923
1779996184018216000,9.5302158203125,-0.1312370002269745,-0.0004290000069886446,0.013513999991118908
1779996184035492900,9.547492919921876,0.02082199975848198,-0.0013849999522790313,-0.0005009999731555581
1779996184052769800,9.564769775390625,0.15917199850082397,-0.002621999941766262,-0.014333000406622887
1779996184070047000,9.582046875,0.20488500595092773,-0.00165200000628829,-0.019280999898910522
1779996184087324000,9.599323974609375,0.13402299582958221,-0.0005849999724887311,-0.01185499969869852
1779996184104600800,9.616600830078125,-0.013295999728143215,-0.0005530000198632479,0.0032730000093579292
1779996184121877800,9.633877685546874,-0.1536259949207306,0.0003220000071451068,0.015622000209987164
1779996184139155000,9.651155029296875,-0.20575200021266937,0.0009840000420808792,0.017961999401450157
1779996184156432000,9.668431884765624,-0.1376029998064041,0.002377999946475029,0.011253000237047672
1779996184173708800,9.685708740234375,0.0114139998331666,0.0027340000960975885,-0.0020119999535381794
1779996184190985700,9.70298583984375,0.15248699486255646,-0.0003809999907389283,-0.013054000213742256
1779996184208262700,9.7202626953125,0.20393900573253632,-0.003918999806046486,-0.01582000032067299
1779996184234178300,9.74617822265625,0.07183200120925903,-0.003530000103637576,-0.003926000092178583
1779996184251455200,9.763455322265624,-0.08420199900865555,0.0015180000336840749,0.00587099976837635
1779996184268732200,9.780732177734375,-0.1895260065793991,0.005016999784857035,0.010381000116467476
1779996184294647600,9.8066474609375,-0.13666300475597382,0.001943000010214746,0.009806999936699867
1779996184311924500,9.823924560546875,0.009411999955773354,-0.0023670000955462456,0.003558000084012747
1779996184329201400,9.841201416015625,0.14718599617481232,-0.0022169998846948147,-0.008263999596238136
1779996184346478300,9.858478271484374,0.19630999863147736,-0.0018909999635070562,-0.01640399917960167
1779996184363755300,9.87575537109375,0.13332100212574005,-0.003163000103086233,-0.012132000178098679
1779996184381032000,9.893031982421874,-0.005350000225007534,-0.0003260000084992498,0.00023600000713486224
1779996184398308900,9.910308837890625,-0.14101199805736542,0.0035170000046491623,0.010347999632358551
1779996184415586000,9.9275859375,-0.1943349987268448,0.003272000001743436,0.012876000255346298
1779996184432863000,9.944863037109375,-0.13316699862480164,-0.00035600000410340726,0.010805999860167503
1779996184458778400,9.9707783203125,0.07895299792289734,-0.002687999978661537,-0.0026779999025166035
1779996184476055300,9.98805517578125,0.17835600674152374,-0.002498999936506152,-0.013811999931931496
1779996184493332200,10.005332275390625,0.1726740002632141,-0.0024029999040067196,-0.015220999717712402
1779996184519247600,10.03124755859375,-0.0025080000050365925,-0.00007899999764049426,0.0014359999913722277
1779996184536524500,10.048524658203124,-0.13444699347019196,0.0010969999711960554,0.013182999566197395
1779996184553801500,10.065801513671875,-0.18961000442504883,0.0028589998837560415,0.01563500054180622
1779996184571078400,10.083078369140624,-0.13332000374794006,0.002672000089660287,0.009291999973356724
1779996184588355300,10.100355224609375,0.00072900002123788,-0.00008900000102585182,-0.00035700001171790063
1779996184605632300,10.11763232421875,0.13411299884319305,-0.003106999909505248,-0.009557999670505524
1779996184622909200,10.1349091796875,0.18806999921798706,-0.0012730000307783484,-0.015037000179290771
1779996184648824600,10.160824462890625,0.07304400205612183,-0.002004999900236726,-0.005071999970823526
1779996184666101800,10.178101806640624,-0.06975699961185455,0.00008199999865610152,0.007639000192284584
1779996184683378700,10.195378662109375,-0.1716810017824173,0.004608000162988901,0.01374599989503622
1779996184709294000,10.221294189453126,-0.13508500158786774,0.0027979998849332333,0.009186999872326851
1779996184726571000,10.238571044921875,-0.002785000018775463,-0.00018600000475998968,0.001961000030860305
1779996184743848000,10.255847900390625,0.13061000406742096,-0.0021230001002550125,-0.007027000188827515
1779996184761124900,10.273124755859374,0.18389999866485596,-0.002788000041618943,-0.013175000436604023
1779996184778401800,10.29040185546875,0.13173499703407288,-0.002116000046953559,-0.011163000017404556
1779996184795678700,10.3076787109375,0.00342399999499321,0.0005849999724887311,-0.0014649999793618917
1779996184812955600,10.32495556640625,-0.1253650039434433,0.001867000013589859,0.009335000067949295
1779996184830232600,10.342232666015626,-0.1816920042037964,0.0024840000551193953,0.014065999537706375
1779996184847509500,10.359509521484375,-0.1306779980659485,0.0018189999973401427,0.010610000230371952
1779996184864786400,10.376786376953126,-0.0031560000497847795,0.0006409999914467335,0.0009069999796338379
1779996184882063400,10.3940634765625,0.12407000362873077,-0.0023330000694841146,-0.008977999910712242
1779996184899340300,10.41134033203125,0.17920400202274323,-0.0029609999619424343,-0.014066999778151512
1779996184916617200,10.4286171875,0.1308870017528534,-0.0019839999731630087,-0.0103169996291399
1779996184933894100,10.44589404296875,0.0078959995880723,-0.0007970000151544809,-0.00043899999582208693
1779996184951171000,10.463171142578124,-0.11998900026082993,0.002386000007390976,0.008523999713361263
1779996184968448000,10.480447998046875,-0.17730799317359924,0.004002999980002642,0.011912999674677849
1779996184994363600,10.50636376953125,-0.07443100214004517,0.0010659999679774046,0.004960999824106693
1779996185011640300,10.523640380859375,0.06130100041627884,-0.003911000210791826,-0.0021589999087154865
1779996185028917200,10.540917236328125,0.15977199375629425,-0.0033829999156296253,-0.010174999944865704
1779996185046194400,10.5581943359375,0.1639470010995865,-0.0015780000248923898,-0.01308399997651577
1779996185063471000,10.57547119140625,0.07473000138998032,0.00023999999393709004,-0.006446999963372946
1779996185080748000,10.592748046875,-0.05920799821615219,0.002234000014141202,0.004627999849617481
1779996185106663700,10.61866357421875,-0.17362700402736664,0.0018840000266209245,0.014986000023782253
1779996185123940400,10.6359404296875,-0.1312350034713745,0.0006179999909363687,0.01218200009316206
1779996185141217300,10.65321728515625,-0.010758999735116959,0.000012999999853491317,0.0018739999504759908
1779996185158494200,10.670494140625,0.11250399798154831,-0.0005019999807700515,-0.009442999958992004
1779996185175771400,10.687771484375,0.1704230010509491,-0.0010989999864250422,-0.015526000410318375
1779996185193048300,10.70504833984375,0.1301800012588501,-0.001673000049777329,-0.010995999909937382
1779996185218963700,10.730963623046875,-0.05060499906539917,-0.0019389999797567725,0.005921999923884869
1779996185236240600,10.74824072265625,-0.15161199867725372,0.0007619999814778566,0.01278700027614832
1779996185253517600,10.765517578125,-0.16418799757957458,0.003384999930858612,0.011526999995112419
1779996185279433000,10.791432861328126,-0.016850000247359276,0.0030060000717639923,-0.0005089999758638442
1779996185296710000,10.8087099609375,0.10978099703788757,-0.003473999910056591,-0.006897999905049801
1779996185313986800,10.82598681640625,0.16952300071716309,-0.0026310000102967024,-0.011114999651908875
1779996185339902200,10.851902099609376,0.08047600090503693,-0.0019600000232458115,-0.005524999927729368
1779996185357179100,10.86917919921875,-0.049327999353408813,-0.00018200000340584666,0.0036490000784397125
1779996185374456000,10.8864560546875,-0.14826700091362,0.003648000070825219,0.010528000071644783
1779996185391732700,10.903732666015625,-0.16124099493026733,0.004414999857544899,0.011025999672710896
1779996185409010000,10.921010009765626,-0.08006999641656876,0.002391000045463443,0.0063669998198747635
1779996185426286800,10.938286865234375,0.047242000699043274,-0.0017610000213608146,-0.0010930000571534038
1779996185443563800,10.955563720703125,0.14463500678539276,-0.004164999816566706,-0.008918000385165215
1779996185460840700,10.9728408203125,0.15811200439929962,-0.0033030000049620867,-0.011667000129818916
1779996185478117600,10.99011767578125,0.07920300215482712,0.001484000007621944,-0.007619999814778566
1779996185495394600,11.00739453125,-0.04523000121116638,0.002979000099003315,0.003060000017285347
1779996185512671200,11.024671142578125,-0.1429779976606369,0.0014979999978095293,0.012257999740540981
1779996185529948200,11.0419482421875,-0.15703800320625305,0.0008559999987483025,0.013549000024795532
1779996185547225000,11.05922509765625,-0.0791030004620552,0.0021299999207258224,0.006577999796718359
1779996185564501800,11.076501708984376,0.043150000274181366,0.0004440000047907233,-0.0042119999416172504
1779996185581778700,11.09377880859375,0.1403840035200119,-0.002624999964609742,-0.011130999773740768
1779996185599056000,11.111055908203125,0.15553100407123566,-0.0023429999127984047,-0.011730999685823917
1779996185616332800,11.128332763671875,0.08178699761629105,-0.0013589999871328473,-0.005694999825209379
1779996185633609700,11.145609619140625,-0.04029599949717522,0.0010179999517276883,0.0027729999274015427
1779996185650886700,11.16288671875,-0.13841600716114044,0.002604000037536025,0.010235999710857868
1779996185668163600,11.18016357421875,-0.1543630063533783,0.0012959999730810523,0.01234500017017126
1779996185694078700,11.20607861328125,-0.022646000608801842,0.00038300000596791506,0.003163000103086233
1779996185711356000,11.22335595703125,0.09462100267410278,0.00034699999378062785,-0.007151000201702118
1779996185728632800,11.2406328125,0.15464100241661072,-0.0013089999556541443,-0.012156999669969082
1779996185754548000,11.2665478515625,0.08235099911689758,-0.0033450000919401646,-0.00508800009265542
1779996185771825000,11.283824951171875,-0.03591499850153923,0.0003220000071451068,0.0027409999165683985
1779996185789101800,11.301101806640625,-0.13293099403381348,0.0021069999784231186,0.008836999535560608
1779996185806378800,11.318378662109374,-0.1528940051794052,0.0020759999752044678,0.010364999994635582
1779996185823655700,11.33565576171875,-0.08182299882173538,0.00024399999529123306,0.006940000224858522
1779996185840932600,11.3529326171875,0.03566500172019005,-0.0020129999611526728,-0.0017350000562146306
1779996185858209500,11.37020947265625,0.13163599371910095,-0.0018370000179857016,-0.011076999828219414
1779996185884125000,11.396125,0.1260800063610077,-0.00029399999766610563,-0.01296399999409914
1779996185901401900,11.41340185546875,0.028186999261379242,-0.0020000000949949026,-0.0020179999992251396
1779996185918678500,11.430678466796875,-0.08586899936199188,-0.0012669999850913882,0.008956000208854675
1779996185935955500,11.44795556640625,-0.15096500515937805,0.0017399999778717756,0.01218899991363287
1779996185953232400,11.465232421875,-0.12759199738502502,0.002440999960526824,0.00887299980968237
1779996185970509300,11.48250927734375,-0.02926900051534176,0.001344999996945262,0.002271000063046813
1779996185987786200,11.4997861328125,0.08584100008010864,-0.000311999989207834,-0.0055519999004900455
1779996186005063200,11.517063232421876,0.14977200329303741,-0.0017310000257566571,-0.010584999807178974
1779996186022340000,11.534340087890625,0.1249919980764389,-0.0014009999576956034,-0.008930999785661697
1779996186039617000,11.551616943359376,0.0286640003323555,0.00007200000254670158,-0.0016959999920800328
1779996186056894000,11.56889404296875,-0.0846330001950264,0.0018970000091940165,0.006839000154286623
1779996186074171000,11.5861708984375,-0.14746899902820587,0.003484999993816018,0.010924000293016434
1779996186091447800,11.60344775390625,-0.12545500695705414,0.0037869999650865793,0.008675999939441681
1779996186108724700,11.620724853515625,-0.02953599952161312,0.0019130000146105886,0.002604000037536025
1779996186126001700,11.638001708984374,0.08213400095701218,-0.0017610000213608146,-0.0043310001492500305
1779996186143278600,11.655278564453125,0.14456699788570404,-0.0052999998442828655,-0.008028999902307987
1779996186160555500,11.672555419921874,0.12278299778699875,-0.0030090000946074724,-0.00841899961233139
1779996186186470700,11.698470703125,-0.026551999151706696,0.003160000080242753,-0.0007440000190399587
1779996186203747600,11.71574755859375,-0.12048099935054779,0.004728000145405531,0.006413999944925308
1779996186238301200,11.75030126953125,-0.08134099841117859,-0.003080999944359064,0.009212000295519829
1779996186255578400,11.767578369140624,0.024883000180125237,-0.0016270000487565994,-0.000037999998312443495
1779996186272855300,11.784855224609375,0.11587899923324585,-0.00007100000220816582,-0.011587000451982021
1779996186290132200,11.80213232421875,0.13976000249385834,0.00008099999831756577,-0.014511000365018845
1779996186307409200,11.8194091796875,0.08482600003480911,-0.00202700006775558,-0.0058280001394450665
1779996186324685800,11.836685791015626,-0.020023999735713005,-0.0015020000282675028,0.0058280001394450665
1779996186341962800,11.853962646484375,-0.11501500010490417,-0.000015999999959603883,0.011629000306129456
1779996186359239700,11.87123974609375,-0.142985999584198,0.0016609999584034085,0.010799000039696693
1779996186376516600,11.8885166015625,-0.08703000098466873,0.0020840000361204147,0.004984000232070684
1779996186393793500,11.90579345703125,0.020337000489234924,0.0010400000028312206,-0.0026420000940561295
1779996186411070200,11.9230703125,0.11415600031614304,-0.0014009999576956034,-0.009321999736130238
1779996186428347100,11.94034716796875,0.14293399453163147,-0.003601999953389168,-0.010726000182330608
1779996186445624000,11.9576240234375,0.08778800070285797,-0.0030070000793784857,-0.005869000218808651
1779996186462901000,11.97490087890625,-0.017311999574303627,-0.000750000006519258,0.001551999943330884
1779996186488816000,12.000816162109375,-0.13742199540138245,0.004007999785244465,0.008058999665081501
1779996186506093000,12.018093017578124,-0.12281599640846252,0.0030879999976605177,0.007441999856382608
1779996186523370000,12.035369873046875,-0.035836998373270035,-0.0015709999715909362,0.0055160000920295715
1779996186540647000,12.05264697265625,0.07074999809265137,-0.004182999953627586,-0.00027200000477023423
1779996186557923800,12.069923828125,0.13416799902915955,-0.00267699989490211,-0.009095000103116035
1779996186575200800,12.08720068359375,0.11926499754190445,0.0001880000054370612,-0.01255900040268898
1779996186592477700,12.104477783203125,0.036577001214027405,0.0016639999812468886,-0.005229999776929617
1779996186618393000,12.13039306640625,-0.10625600069761276,0.0007699999841861427,0.010494999587535858
1779996186635670000,12.147669921875,-0.13583500683307648,0.0010160000529140234,0.012969999574124813
1779996186652946700,12.16494677734375,-0.0854019969701767,0.0013259999686852098,0.006513999775052071
1779996186678862000,12.190862060546875,0.06404300034046173,0.0009389999904669821,-0.004708999767899513
1779996186696138800,12.208138671875,0.12854799628257751,-0.00030399998649954796,-0.009394999593496323
1779996186713415700,12.225415771484375,0.11779999732971191,-0.0016880000475794077,-0.008066999725997448
1779996186730692600,12.242692626953126,0.03895600140094757,-0.0008249999955296516,-0.001500000013038516
1779996186756608000,12.26860791015625,-0.10402099788188934,0.0006259999936446548,0.008558000437915325
1779996186773884700,12.285884765625,-0.1335349977016449,0.002876000013202429,0.009151999838650227
1779996186791161600,12.30316162109375,-0.08534800261259079,0.0032190000638365746,0.0041600000113248825
1779996186808438500,12.3204384765625,0.013818999752402306,-0.0007340000011026859,-0.0019950000569224358
1779996186825715500,12.337715576171876,0.10403800010681152,-0.0024349999148398638,-0.006918000057339668
1779996186842992400,12.354992431640625,0.13251300156116486,-0.0033319999929517508,-0.009607999585568905
1779996186868907800,12.38090771484375,0.038830000907182693,0.00030700000934302807,-0.004741000011563301
1779996186886184700,12.398184814453124,-0.06105000153183937,0.002199999988079071,0.0025289999321103096
1779996186903461400,12.41546142578125,-0.12437599897384644,0.0028880001045763493,0.009441999718546867
1779996186929376800,12.441376708984375,-0.08361099660396576,0.0007660000119358301,0.00849200040102005
1779996186946653700,12.45865380859375,0.009863999672234058,-0.0008229999803006649,0.0012740000383928418
1779996186963930400,12.475930419921875,0.09696300327777863,-0.001943000010214746,-0.006816000211983919
1779996186989845800,12.501845703125,0.11408200114965439,-0.0008490000036545098,-0.009384999983012676
1779996187007122700,12.519122802734374,0.04168099910020828,-0.00013499999477062374,-0.0029690000228583813
1779996187024399600,12.536399658203125,-0.056021999567747116,-0.0004180000105407089,0.0047610001638531685
1779996187041676500,12.553676513671874,-0.12064500153064728,0.00038300000596791506,0.008496000431478024
1779996187058953500,12.570953369140625,-0.11399199813604355,0.001979999942705035,0.007083999924361706
1779996187076230100,12.588230224609376,-0.040410999208688736,0.001496999990195036,0.002529999939724803
1779996187093507000,12.605507080078125,0.05716700106859207,-0.0013770000077784061,-0.003498000092804432
1779996187110784300,12.6227841796875,0.11941300332546234,-0.001825000043027103,-0.008875000290572643
1779996187128061000,12.64006103515625,0.11303900182247162,-0.0014359999913722277,-0.009100000374019146
1779996187145337900,12.657337890625,0.041179001331329346,-0.0022720000706613064,-0.0021359999664127827
1779996187162614800,12.67461474609375,-0.05487599968910217,-0.0005859999801032245,0.005561999976634979
1779996187179891500,12.691891357421875,-0.12006500363349915,0.0013849999522790313,0.009328000247478485
1779996187197168400,12.70916845703125,-0.11502499878406525,0.0022899999748915434,0.007565000094473362
1779996187214445300,12.7264453125,-0.04259100183844566,0.0016570000443607569,0.0023270000237971544
1779996187231722200,12.74372216796875,0.054343000054359436,-0.0012229999992996454,-0.0033080000430345535
1779996187248999000,12.7609990234375,0.11736299842596054,-0.002365000080317259,-0.00817899964749813
1779996187266275800,12.77827587890625,0.11233899742364883,-0.0023690001107752323,-0.008016999810934067
1779996187283552800,12.795552734375,0.043271999806165695,0.0010870000114664435,-0.002795000094920397
1779996187300829700,12.81282958984375,-0.0523109994828701,0.003043999895453453,0.0043230000883340836
1779996187326745000,12.8387451171875,-0.1251869946718216,0.0017389999702572823,0.01028400007635355
1779996187344022000,12.85602197265625,-0.08675699681043625,0.000678999989759177,0.006976999808102846
1779996187361299000,12.873298828125,0.0036539998836815357,-0.00015199999324977398,0.00015199999324977398
1779996187378575600,12.89057568359375,0.08975800126791,-0.002010999945923686,-0.0060789999552071095
1779996187395852300,12.907852294921875,0.12332399934530258,-0.0016700000269338489,-0.009696999564766884
1779996187413129200,12.925129150390624,0.0850910022854805,-0.000048000001697801054,-0.007992999628186226
1779996187439044600,12.951044677734375,-0.04779199883341789,-0.00024900000425986946,0.0031330001074820757
1779996187456321300,12.9683212890625,-0.1128389984369278,0.0001720000000204891,0.00838600005954504
1779996187473598200,12.98559814453125,-0.11084800213575363,0.0007859999896027148,0.00786800030618906
1779996187499513600,13.011513671875,0.001973999897018075,-0.0005099999834783375,0.00018899999849963933
1779996187516790500,13.02879052734375,0.08692300319671631,-0.00044100001105107367,-0.0069229998625814915
1779996187534067500,13.0460673828125,0.11985000222921371,-0.0005890000029467046,-0.010964999906718731
1779996187551344000,13.06334423828125,0.08431000262498856,-0.002558999927714467,-0.006775000132620335
1779996187568621000,13.08062109375,-0.00026699999580159783,-0.0015739999944344163,0.0023250000085681677
1779996187585898000,13.09789794921875,-0.0845789983868599,0.0014929999597370625,0.008098999969661236
1779996187603174700,13.115174560546874,-0.119548000395298,0.002831999910995364,0.00850099977105856
1779996187620451600,13.13245166015625,-0.08622299879789352,0.0022330000065267086,0.005785000044852495
1779996187637728500,13.149728515625,-0.0028699999675154686,0.00035700001171790063,-0.0006230000290088356
1779996187655005200,13.167005126953125,0.08246800303459167,-0.002489000093191862,-0.005987999960780144
1779996187672282000,13.1842822265625,0.11876100301742554,-0.004592000041157007,-0.008682000450789928
1779996187689559000,13.20155908203125,0.08565600216388702,-0.0021470000501722097,-0.006998000200837851
1779996187706836000,13.2188359375,0.003387999953702092,0.0008970000199042261,-0.001429000054486096
1779996187724113000,13.23611279296875,-0.08152499794960022,0.0022330000065267086,0.004776999820023775
1779996187741389800,13.253389892578125,-0.11800199747085571,0.0013010000111535192,0.008697999641299248
1779996187758666500,13.27066650390625,-0.08600100129842758,0.00024500000290572643,0.006676999852061272
1779996187784582000,13.296581787109375,0.040258001536130905,-0.0010369999799877405,-0.002432999899610877
1779996187801858800,13.31385888671875,0.10495399683713913,-0.0013269999762997031,-0.007836000062525272
1779996187819135700,13.3311357421875,0.10799500346183777,0.00042600001324899495,-0.00950700044631958
1779996187836412400,13.348412353515625,0.04858199879527092,-0.000007000000096013537,-0.004271999932825565
1779996187853689300,13.365689453125,-0.03946800157427788,-0.00010699999984353781,0.00455200020223856
1779996187870966300,13.38296630859375,-0.1055459976196289,0.0009009999921545386,0.009703000076115131
1779996187888243200,13.4002431640625,-0.10898800194263458,0.0014949999749660492,0.009081000462174416
1779996187905520000,13.41752001953125,-0.049639999866485596,0.0024629998952150345,0.004191000014543533
1779996187922797000,13.434797119140624,0.03833400085568428,0.0023159999400377274,-0.003073000116273761
1779996187948712200,13.460712158203124,0.11441399902105331,-0.001534000039100647,-0.007550999987870455
1779996187965989000,13.477989013671875,0.08522100001573563,-0.0018110000528395176,-0.005572999827563763
1779996187983266000,13.49526611328125,0.006554999854415655,-0.00017600000137463212,-0.0005670000100508332
1779996188009181200,13.52118115234375,-0.10165199637413025,0.002317999955266714,0.006912000011652708
1779996188026457900,13.538457763671875,-0.10615000128746033,0.001854000031016767,0.008022000081837177
1779996188043734800,13.55573486328125,-0.04830799996852875,-0.0007779999868944287,0.005146999843418598
1779996188069650200,13.581650146484375,0.07254400104284286,-0.003091000020503998,-0.004883999936282635
1779996188086927000,13.598927001953125,0.10968899726867676,-0.003470999887213111,-0.009455000050365925
1779996188104203800,13.616203857421874,0.08347299695014954,-0.0007789999945089221,-0.008565000258386135
1779996188121480700,13.633480712890625,0.011359999887645245,-9.999999974752427e-7,-0.002188999904319644
1779996188138757600,13.650757568359374,-0.068511001765728,0.0012369999894872308,0.005400000140070915
1779996188156034600,13.66803466796875,-0.10744199901819229,0.001353000057861209,0.009033000096678734
1779996188173311200,13.685311279296876,-0.08447299897670746,-0.0014179999707266688,0.0073640001937747
1779996188190588200,13.702588134765625,-0.012330999597907066,-0.001800999976694584,0.0011139999842271209
1779996188207865000,13.719864990234376,0.06686799973249435,-0.000003999999989900971,-0.006790999788790941
1779996188225142000,13.73714208984375,0.10724499821662903,-0.00024500000290572643,-0.009208000265061855
1779996188242419000,13.7544189453125,0.08693700283765793,-0.001598999951966107,-0.005177999846637249
1779996188268334000,13.780333984375,-0.02811500057578087,0.0008549999911338091,0.00418600020930171
1779996188285611000,13.797611083984375,-0.09498699754476547,0.0008789999992586672,0.008063999935984612
1779996188302887700,13.8148876953125,-0.10677500069141388,0.002131999935954809,0.007867000065743923
1779996188328803000,13.840802978515624,-0.014035999774932861,0.00014200000441633165,0.0016410000389441848
1779996188346079700,13.858079833984375,0.06662099808454514,0.0006900000153109431,-0.005394000094383955
1779996188363356700,13.875356689453126,0.10776299983263016,-0.000526999996509403,-0.009398999623954296
1779996188389272000,13.90127197265625,0.054962001740932465,-0.0019539999775588512,-0.004387999884784222
1779996188406549000,13.918549072265625,-0.025289999321103096,-0.0012629999546334147,0.0022319999989122152
1779996188423825700,13.93582568359375,-0.09083200246095657,0.002099999925121665,0.005652000196278095
1779996188441102300,13.953102294921875,-0.10235399752855301,0.004356000106781721,0.005506000015884638
1779996188458379300,13.970379150390626,-0.05342099815607071,0.0014990000054240227,0.004838000051677227
1779996188475656200,13.98765625,0.02660899981856346,-0.0017330000409856439,0.0015899999998509884
1779996188492932900,14.004932861328125,0.08919999748468399,-0.0023719999007880688,-0.003857000032439828
1779996188518848300,14.03084814453125,0.08126000314950943,-0.0009539999882690609,-0.006920999847352505
1779996188536125200,14.048125244140625,0.014116000384092331,0.0010479999473318458,-0.0022849999368190765
1779996188553402000,14.065402099609376,-0.06064699962735176,0.0021379999816417694,0.00393499992787838
1779996188579317200,14.091317138671876,-0.09747900068759918,0.001247999956831336,0.008138000033795834
1779996188596594200,14.10859423828125,-0.05113200098276138,-0.0001829999964684248,0.006089000031352043
1779996188613871000,14.12587109375,0.023530999198555946,-0.001711999997496605,0.0010760000441223383
1779996188639786200,14.1517861328125,0.09685800224542618,0.0007249999907799065,-0.007973000407218933
1779996188657063200,14.169063232421875,0.07886199653148651,0.00227600010111928,-0.008561000227928162
1779996188674340000,14.186340087890626,0.016064999625086784,-0.0001500000071246177,-0.0005910000181756914
1779996188691617000,14.203616943359375,-0.05726899951696396,-0.002176000038161874,0.008132999762892723
1779996188708893700,14.220893798828126,-0.09728500247001648,-0.0003330000035930425,0.009620999917387962
1779996188726170600,14.238170654296875,-0.08171000331640244,0.0029639999847859144,0.003949000034481287
1779996188743447600,14.255447509765625,-0.01820800080895424,0.0017940000398084521,-0.0016189999878406525
1779996188760724500,14.272724365234374,0.05638299882411957,-0.00010099999781232327,-0.005541000049561262
1779996188778001200,14.290001220703125,0.09784100204706192,-0.0025530001148581505,-0.007311000023037195
1779996188795278000,14.307278076171874,0.08317700028419495,-0.002348999958485365,-0.0063760001212358475
1779996188812554800,14.3245546875,0.019708000123500824,-0.001221999991685152,-0.0027409999165683985
1779996188829831700,14.341831787109374,-0.05387600138783455,0.0008510000188834965,0.002647999906912446
1779996188847108400,14.3591083984375,-0.09617500007152557,0.0033009999897331,0.005675999913364649
1779996188864385300,14.37638525390625,-0.08104100078344345,0.002061000093817711,0.005100000184029341
1779996188881662200,14.393662109375,-0.019130999222397804,0.000450999999884516,0.001323999953456223
1779996188898939100,14.410939208984376,0.053658999502658844,-0.0012159999459981918,-0.003452999982982874
1779996188924854300,14.436854248046876,0.09401000291109085,-0.0023580000270158052,-0.006380000151693821
1779996188942131200,14.454131103515625,0.05471799895167351,0.0013360000448301435,-0.004503999836742878
1779996188959407900,14.471407958984376,-0.017674999311566353,0.0029730000533163548,-0.00011300000187475234
1779996188976684800,14.488684814453125,-0.07873299717903137,0.0016090000281110406,0.006754999980330467
1779996188993961700,14.505961669921875,-0.09457200020551682,-0.0004619999963324517,0.009286999702453613
1779996189011238400,14.52323828125,-0.05533299967646599,0.0002010000025620684,0.004896999802440405
1779996189028515300,14.540515380859375,0.016158999875187874,-0.00043200000072829425,-0.001816999982111156
1779996189045792000,14.5577919921875,0.0775969997048378,-0.0011309999972581863,-0.0072119999676942825
1779996189063069000,14.57506884765625,0.0945340022444725,-0.00017499999376013875,-0.008023000322282314
1779996189088984300,14.600984375,0.023213999345898628,-0.0018970000091940165,-0.0002690000110305846
1779996189106261200,14.61826123046875,-0.04908100143074989,-0.0011749999830499291,0.005237999837845564
1779996189123538000,14.635537841796875,-0.09328199923038483,0.0009190000128000975,0.007156000006943941
1779996189149453300,14.661453369140625,-0.05626000091433525,0.0013760000001639128,0.004234999883919954
1779996189166730000,14.67872998046875,0.014619999565184116,-0.001032999949529767,-0.00013499999477062374
1779996189184007000,14.6960068359375,0.07663899660110474,-0.001044000033289194,-0.0051910001784563065
1779996189201283800,14.713283935546874,0.09203100204467773,-0.0023010000586509705,-0.0071760001592338085
1779996189218560800,14.730560791015625,0.056334998458623886,-0.00279999990016222,-0.003200999926775694
1779996189244476200,14.75647607421875,-0.047318000346422195,0.0019600000232458115,0.0036329999566078186
1779996189261752800,14.7737529296875,-0.08953800052404404,0.0031820000149309635,0.006269000004976988
1779996189279029500,14.791029541015625,-0.08004499971866608,0.0017300000181421638,0.006386000197380781
1779996189296306200,14.80830615234375,-0.022413000464439392,0.0005840000230818987,0.0036140000447630882
1779996189313583000,14.8255830078125,0.045841000974178314,-0.0011699999449774623,-0.001272000023163855
1779996189330860000,14.842860107421876,0.08764900267124176,-0.002343999920412898,-0.005038000177592039
1779996189348137000,14.860136962890625,0.07641399651765823,0.0008980000275187194,-0.007321000099182129
1779996189365413600,14.87741357421875,0.022549999877810478,0.0027570000384002924,-0.004366000182926655
1779996189382690600,14.894690673828125,-0.04431099817156792,0.0019940000493079424,0.0028460000175982714
1779996189399967500,14.911967529296875,-0.08659200370311737,-0.0003440000000409782,0.008534000255167484
1779996189417244200,14.929244140625,-0.07807199656963348,-0.0009089999948628247,0.0077840001322329044
1779996189434521000,14.94652099609375,-0.025846000760793686,0.00006800000119255856,0.0015360000543296337
1779996189451797800,14.9637978515625,0.042406998574733734,-0.000707999977748841,-0.004375999793410301
1779996189469074700,14.98107470703125,0.08437900245189667,-0.0001849999971454963,-0.008186000399291515
1779996189486351600,14.9983515625,0.07795800268650055,-0.000029000000722589903,-0.007969999685883522
1779996189512266800,15.024266845703124,-0.008352000266313553,-0.0026229999493807554,0.0001990000018849969
1779996189529543400,15.04154345703125,-0.0671909973025322,-0.001487000030465424,0.005257999990135431
1779996189546820600,15.058820556640624,-0.08845999836921692,0.0013699999544769526,0.005164000205695629
1779996189564097300,15.07609716796875,-0.05759799852967262,0.001310999970883131,0.0027050001081079245
1779996189590012400,15.102012451171875,0.040383998304605484,0.00036700000055134296,-0.0027520000003278255
1779996189607289300,15.119289306640624,0.08369600027799606,-0.001487000030465424,-0.005410999990999699
1779996189624566300,15.136566162109375,0.07736600190401077,-0.001614999957382679,-0.004674999974668026
1779996189641843200,15.15384326171875,0.0256740003824234,-0.0006249999860301614,-0.0013970000436529517
1779996189659119900,15.171119873046875,-0.03979799896478653,0.001934999949298799,0.0029720000457018614
1779996189676396800,15.188396728515626,-0.08298999816179276,0.002437999937683344,0.0061519998125731945
1779996189693673700,15.205673828125,-0.07649199664592743,0.0017509999452158809,0.006386999972164631
1779996189710950700,15.22295068359375,-0.02645600028336048,-0.00002700000004551839,0.0031049998942762613
1779996189736865500,15.248865478515626,0.06466200202703476,-0.002339000115171075,-0.003909999970346689
1779996189754142500,15.266142578125,0.08403600007295609,-0.002070999937132001,-0.006816000211983919
1779996189771419100,15.283419189453125,0.05541599914431572,0.0015200000489130616,-0.006225000135600567
1779996189788696000,15.300696044921875,-0.005437000188976526,0.0014700000174343586,-0.0006019999855197966
1779996189814611500,15.326611572265625,-0.0777050033211708,-0.0003490000090096146,0.008910000324249268
1779996189831888100,15.34388818359375,-0.07530499994754791,0.0005799999926239252,0.00815299991518259
1779996189849165000,15.3611650390625,-0.029270000755786896,0.0004349999944679439,0.0022700000554323196
1779996189866442000,15.37844189453125,0.03299200162291527,0.0009289999725297093,-0.003625999903306365
1779996189883718400,15.395718505859374,0.07614400237798691,-0.00278700003400445,-0.005001000128686428
1779996189900995300,15.412995361328125,0.07452499866485596,-0.004246000200510025,-0.003237999975681305
1779996189926910700,15.43891064453125,-0.00101200002245605,-0.0004839999892283231,-0.001193000003695488
1779996189944187400,15.4561875,-0.05827999860048294,0.0025480000767856836,0.0005239999736659229
1779996189961464300,15.47346435546875,-0.07889100164175034,0.002191999927163124,0.003576999995857477
1779996189987379700,15.499379638671876,-0.02579299919307232,-0.0007859999896027148,0.004453000146895647
1779996190004656400,15.516656494140625,0.03375000134110451,-0.0010639999527484179,0.00018200000340584666
1779996190021933300,15.533933349609375,0.07138500362634659,-0.0008340000058524311,-0.004745000042021275
1779996190039210000,15.5512099609375,0.06861899793148041,0.000805000017862767,-0.006010000128298998
1779996190056487000,15.56848681640625,0.025730999186635017,0.001728000002913177,-0.003272000001743436
1779996190073763800,15.585763916015624,-0.032079000025987625,0.0001610000035725534,0.002409999957308173
1779996190091040800,15.603040771484375,-0.07049299776554108,-0.0004189999890513718,0.005652000196278095
1779996190116956000,15.628955810546875,-0.0500900000333786,-0.0006050000083632767,0.003496000077575445
1779996190134232800,15.64623291015625,0.0048500001430511475,0.0002500000118743628,-0.0022799998987466097
1779996190151509500,15.663509521484375,0.05644800141453743,0.0001340000017080456,-0.006767999846488237
1779996190168786400,15.680786376953124,0.07658399641513824,0.0002770000137388706,-0.008441000245511532
1779996190186063400,15.6980634765625,0.051235001534223557,-0.0008430000161752105,-0.0038580000400543213
1779996190203339800,15.71533984375,-0.0023560000117868185,-0.0020580000709742308,0.003515999997034669
1779996190229255200,15.741255126953124,-0.07304999977350235,0.002580000087618828,0.0063760001212358475
1779996190246532000,15.758531982421875,-0.07148300111293793,0.002876000013202429,0.0039530000649392605
1779996190263808800,15.775808837890626,-0.028622999787330627,0.001955999992787838,0.0017389999702572823
1779996190289724200,15.80172412109375,0.054965998977422714,-0.002428000094369054,-0.0004670000053010881
1779996190307000800,15.819000732421875,0.07453899830579758,-0.0032130000181496143,-0.0029150000773370266
1779996190324277500,15.836277587890624,0.05034700036048889,0.0005460000247694552,-0.0040480000898242
1779996190341554400,15.853554443359375,-0.0028359999414533377,0.0032969999592751265,-0.00190100003965199
1779996190358831000,15.8708310546875,-0.05421600118279457,0.0036800000816583633,0.0027000000700354576
1779996190384746500,15.89674658203125,-0.06650599837303162,0.00014600000577047467,0.008640999905765057
1779996190402023200,15.914023193359375,-0.025933999568223953,-0.0006719999946653843,0.0059899999760091305
1779996190419300000,15.931300048828126,0.028233999386429787,0.00041199999395757914,-0.0007600000244565308
1779996190436576800,15.94857666015625,0.06471399962902069,-0.0008210000232793391,-0.00468500005081296
1779996190453853700,15.965853759765626,0.06363599747419357,-0.0009459999855607748,-0.006393000017851591
1779996190471130600,15.983130615234375,0.0254139993339777,-0.001357999979518354,-0.003913000226020813
1779996190488407600,16.000407470703124,-0.025631999596953392,-0.0018390000332146883,0.00022600000374950469
1779996190505684200,16.017684326171874,-0.0625780001282692,-0.0008449999731965363,0.0028250000905245543
1779996190522961000,16.0349609375,-0.06057099997997284,-0.0023529999889433384,0.002216000109910965
1779996190548876300,16.060876220703125,0.005371000152081251,-0.0006859999848529696,-0.003653000108897686
1779996190566153000,16.078153076171876,0.053631000220775604,-0.0006300000241026282,-0.006000999826937914
1779996190583430000,16.095429931640624,0.07070700079202652,-0.0015770000172778964,-0.006519999820739031
1779996190609345300,16.12134521484375,0.023893000558018684,-0.0028750000055879354,-0.000019999999494757503
1779996190626622000,16.1386220703125,-0.030636999756097794,-0.0014309999532997608,0.004261999856680632
1779996190643899000,16.15589892578125,-0.06785000115633011,0.001597000053152442,0.005189999938011169
1779996190669814300,16.181814208984374,-0.04884500056505203,0.003208999987691641,0.003091000020503998
1779996190687091000,16.199091064453125,0.0036559998989105225,0.0009050000226125121,0.00010199999815085903
1779996190704367600,16.21636767578125,0.05323600023984909,0.000004999999873689376,-0.00202700006775558
1779996190721644500,16.23364453125,0.07096599787473679,-0.0001880000054370612,-0.003071000101044774
1779996190738921200,16.250921142578125,0.04629800096154213,0.0010019999463111162,-0.0021440000273287296
1779996190756198100,16.2681982421875,-0.006101999897509813,0.0022750000935047865,0.0004780000017490238
1779996190773474800,16.285474853515623,-0.05364000052213669,0.003318999893963337,0.004720999859273434
1779996190790751700,16.302751708984374,-0.07253800332546234,0.0031320000998675823,0.006798999849706888
1779996190816667000,16.3286669921875,-0.024071000516414642,0.0005389999714680016,0.0032659999560564756
1779996190833943800,16.34594384765625,0.029248999431729317,-0.0013259999686852098,-0.00047400000039488077
1779996190851220700,16.363220703125,0.06605300307273865,-0.002457000082358718,-0.0031620000954717398
1779996190868497700,16.38049755859375,0.06201599910855293,0.00032900000223889947,-0.005762999877333641
1779996190885774300,16.3977744140625,0.02324100024998188,0.0010140000376850367,-0.003969000186771154
1779996190903051000,16.415051025390625,-0.02933499962091446,-0.0007029999978840351,0.0017859999788925052
1779996190920328000,16.432327880859376,-0.06390000134706497,-0.0021730000153183937,0.00634999992325902
1779996190937604900,16.44960498046875,-0.0614439994096756,0.0005489999894052744,0.004497000016272068
1779996190963519700,16.475519775390627,0.0025430000387132168,-0.0015999999595806003,-0.0014769999543204904
1779996190980796700,16.492796630859374,0.0499190017580986,-0.0021979999728500843,-0.004160999786108732
1779996190998073600,16.510073486328125,0.06874100118875504,-0.0004360000020824373,-0.005164000205695629
1779996191015350500,16.5273505859375,0.048934001475572586,-0.00036800000816583633,-0.002552000107243657
1779996191032627200,16.544627197265626,-0.002220999915152788,0.0007719999994151294,0.001505000051110983
1779996191049904000,16.561904052734373,-0.04979100078344345,0.000455000001238659,0.005685000214725733
1779996191067180800,16.579180908203124,-0.07061100006103516,0.0018609999679028988,0.007046000100672245
1779996191084457700,16.596457763671875,-0.04946700111031532,0.00227600010111928,0.005288000218570232
1779996191101734400,16.613734375,-0.000990999978967011,0.0028089999686926603,-0.00013699999544769526
1779996191119011300,16.63101123046875,0.04794999957084656,0.0008019999950192869,-0.004503000061959028
1779996191136288000,16.6482880859375,0.06880699843168259,-0.003237999975681305,-0.003826000029221177
1779996191153565000,16.66556494140625,0.04849199950695038,-0.0034759999252855778,-0.0026779999025166035
1779996191170841600,16.682841552734374,0.0005849999724887311,0.0001230000052601099,-0.0026579999830573797
1779996191188118500,16.700118408203124,-0.048197999596595764,0.00023200000578071922,-0.0009360000258311629
1779996191205395500,16.7173955078125,-0.06549599766731262,-0.0012550000101327896,0.0016080000204965472
1779996191222672100,16.734672119140626,-0.04438000172376633,0.0007019999902695417,0.0011820000363513827
1779996191248587300,16.760587158203126,0.02902499958872795,-0.004637000150978565,-0.0006910000229254365
1779996191265864200,16.7778642578125,0.06056400015950203,-0.0037589999847114086,-0.004486999940127134
1779996191283141000,16.79514111328125,0.057812999933958054,-0.0016400000313296914,-0.00684100016951561
1779996191309056300,16.82105615234375,-0.0017030000453814864,0.001120000029914081,-0.002420000033453107
1779996191326333000,16.8383330078125,-0.04541200026869774,0.00046099998871795833,0.003823000006377697
1779996191343609900,16.85560986328125,-0.06366200000047684,-0.0015030000358819962,0.006785999983549118
1779996191369525000,16.88152490234375,-0.024327000603079796,-0.0006619999767281115,0.0032569998875260353
1779996191386802000,16.898802001953126,0.02380100078880787,0.00007300000288523734,-0.001934999949298799
1779996191404078600,16.91607861328125,0.05811399966478348,0.002701000077649951,-0.006037000101059675
1779996191421355300,16.933355224609375,0.05952699854969978,0.0016139999497681856,-0.004935000091791153
1779996191438632200,16.950632080078126,0.025922000408172607,0.00031800000579096377,0.0007970000151544809
1779996191455908900,16.967908935546873,-0.023266000673174858,0.0011729999678209424,0.005793000105768442
1779996191481824300,16.99382421875,-0.06699799746274948,0.0023640000727027655,0.006002999842166901
1779996191499101000,17.011100830078124,-0.050165001302957535,0.0036949999630451202,0.0023870000150054693
1779996191516377900,17.0283779296875,-0.004604000132530928,0.0021730000153183937,-0.0001429999974789098
1779996191533654800,17.04565478515625,0.043928999453783035,-0.001429000054486096,-0.0018269999418407679
1779996191550931500,17.062931396484377,0.06507299840450287,-0.0016029999824240804,-0.0028029999230057
1779996191568208400,17.08020849609375,0.04727499932050705,-0.0004130000015720725,-0.003324999939650297
1779996191585485300,17.0974853515625,0.002598999999463558,-0.000022000000171829015,-0.001962000038474798
1779996191602762000,17.114761962890626,-0.04351300001144409,0.0012359999818727374,0.0014750000555068254
1779996191620038700,17.13203857421875,-0.06298299878835678,0.0008670000243000686,0.003725999966263771
1779996191645953800,17.157953857421877,-0.025337999686598778,-0.00017800000205170363,0.0017999999690800905
1779996191663230700,17.175230712890624,0.02346000075340271,-0.002167999977245927,-0.0016169999726116657
1779996191680507600,17.192507568359375,0.05737200006842613,-0.001297999988310039,-0.004455000162124634
1779996191697784300,17.209784423828125,0.05827400088310242,-0.00041000000783242285,-0.004714000038802624
1779996191715061200,17.227061279296876,0.024979999288916588,-0.0010019999463111162,-0.0009369999752379954
1779996191732338000,17.244337890625,-0.022579999640583992,-0.0013299999991431832,0.0037640000227838755
1779996191749614800,17.26161474609375,-0.05650300160050392,0.0011390000581741333,0.005024999845772982
1779996191766891800,17.278891845703125,-0.05739700049161911,0.0033319999929517508,0.0028840000741183758
1779996191784168400,17.29616845703125,-0.023460999131202698,0.003025999991223216,0.0003910000086762011
1779996191801445400,17.3134453125,0.023423999547958374,-0.00018099999579135329,-0.00039999998989515007
1779996191827360500,17.339360595703123,0.061879001557826996,-0.004375999793410301,-0.0007689999765716493
1779996191844637200,17.35663720703125,0.041464000940322876,-0.0008350000134669244,-0.002188999904319644
1779996191861914000,17.3739140625,-0.0020490000024437904,0.0029490001033991575,-0.0038769999518990517
1779996191879190800,17.391190673828124,-0.043744999915361404,0.0018110000528395176,-0.0007450000266544521
1779996191896467700,17.4084677734375,-0.058334000408649445,-0.0016740000573918223,0.004219000227749348
1779996191913744400,17.425744384765625,-0.03894200176000595,-0.0019259999971836805,0.003734000027179718
1779996191939659800,17.45165966796875,0.025442000478506088,-0.0008609999786131084,-0.00381799996830523
1779996191956936700,17.468936767578125,0.05511699989438057,-0.0017500000540167093,-0.00647599995136261
1779996191974213400,17.48621337890625,0.0532820001244545,0.00037200000951997936,-0.006645999848842621
1779996191991490300,17.503490234375,0.021529000252485275,0.001961000030860305,-0.0036279999185353518
1779996192008767000,17.52076708984375,-0.02287299931049347,-0.0001740000006975606,0.0028840000741183758
1779996192026044000,17.5380439453125,-0.05494299903512001,-0.0020639998838305473,0.007460999768227339
1779996192043320600,17.555320556640623,-0.05592700093984604,0.00003099999958067201,0.004978999961167574
1779996192069236000,17.581236083984376,-0.0006309999735094607,0.0023670000955462456,-0.003254000097513199
1779996192086512600,17.5985126953125,0.041391998529434204,0.0023950000759214163,-0.006012999918311834
1779996192103789300,17.615789306640625,0.06093500182032585,-0.0013760000001639128,-0.00431999983265996
1779996192129704700,17.64170458984375,0.023987000808119774,-0.002225999953225255,0.0017330000409856439
1779996192146981400,17.6589814453125,-0.023879000917077065,0.0006169999833218753,0.0036100000143051147
1779996192164258300,17.67625830078125,-0.058788001537323,0.003611000021919608,0.00367600005120039
1779996192181535200,17.69353515625,-0.05877099931240082,0.003561000106856227,0.003819999983534217
1779996192207450400,17.719450439453126,-0.00006299999949987978,0.001383999944664538,0.0009319999953731894
1779996192224727000,17.73672705078125,0.044982001185417175,-0.001091000041924417,-0.0010870000114664435
1779996192242004000,17.75400390625,0.06253200024366379,-0.003800000064074993,-0.0010270000202581286
1779996192259280600,17.77128076171875,0.042764000594615936,-0.0013849999522790313,-0.0021120000164955854
1779996192276557600,17.7885576171875,-0.001803999999538064,0.0023419999051839113,-0.0029720000457018614
1779996192293834200,17.805834228515625,-0.04427900165319443,0.0028639999218285084,0.0005600000149570405
1779996192311111200,17.823111083984376,-0.06076600030064583,-0.0007699999841861427,0.005909999832510948
1779996192328387800,17.840387939453127,-0.04118699952960014,-0.002305000089108944,0.005824000108987093
1779996192345664800,17.857664794921874,0.0014979999978095293,-0.0012450000504031777,9.999999974752427e-7
1779996192362941400,17.87494140625,0.04335499927401543,-0.00045200000749900937,-0.0059079998172819614
1779996192388856600,17.900856689453125,0.057314999401569366,-0.0005070000188425183,-0.005530999973416328
1779996192406133500,17.918133544921876,0.02587199956178665,0.0009250000002793968,-0.001892999978736043
1779996192423410200,17.93541015625,-0.02078399993479252,0.0002859999949578196,0.0020669999066740274
1779996192449325600,17.96132568359375,-0.060780998319387436,-0.00033000000985339284,0.005392000079154968
1779996192466602200,17.978602294921874,-0.04502600058913231,-0.0012069999938830733,0.005543999839574099
1779996192483879000,17.99587890625,-0.0025140000507235527,0.0006179999909363687,0.0008299999753944576
1779996192501155800,18.01315576171875,0.04063199833035469,0.002219999907538295,-0.00496899988502264
1779996192518432800,18.030432861328126,0.060552000999450684,0.00027200000477023423,-0.0056940000504255295
1779996192535709400,18.04770947265625,0.045134998857975006,-0.00318100000731647,-0.0006830000202171504
1779996192552986400,18.064986328125,0.0035800000187009573,-0.0025339999701827765,0.002739999908953905
1779996192570263000,18.082262939453123,-0.04057599976658821,0.0013379999436438084,0.00228899996727705
1779996192587540000,18.0995400390625,-0.06058000028133392,0.003025999991223216,0.0013119999784976244
1779996192604817000,18.11681689453125,-0.04392699897289276,0.0017579999985173345,0.0014009999576956034
1779996192622093600,18.134093505859376,-0.0008270000107586384,-0.0008140000281855464,0.0013050000416114926
1779996192639370200,18.151370361328127,0.04207000136375427,-0.0022950000129640102,-0.001091000041924417
1779996192656647200,18.168647216796874,0.0588809996843338,-0.0014680000022053719,-0.0042329998686909676
1779996192673924000,18.185924072265625,0.04190700128674507,0.0002209999947808683,-0.00559299997985363
1779996192691200800,18.20320068359375,0.0008490000036545098,0.00031999999191612005,-0.0017419999931007624
1779996192708477700,18.220477783203126,-0.03999999910593033,-0.00017699999443721026,0.004792999941855669
1779996192725754400,18.23775439453125,-0.05736599862575531,0.0012509999796748161,0.0059009999968111515
1779996192743031300,18.25503125,-0.043772000819444656,0.0028039999306201935,0.0028830000665038824
1779996192768946400,18.280946533203124,0.017791999503970146,-0.0016210000030696392,-0.0012209999840706587
1779996192786223400,18.298223388671875,0.0510529987514019,-0.001854000031016767,-0.002696000039577484
1779996192803500000,18.3155,0.054420001804828644,-0.0005230000242590904,-0.003166999900713563
1779996192829415200,18.341415283203126,0.0033990000374615192,0.0014880000380799174,-0.000990999978967011
1779996192846692000,18.358692138671874,-0.03840800002217293,0.0018319999799132347,0.0020200000144541264
1779996192863968800,18.37596875,-0.057277001440525055,-0.00012799999967683107,0.005018999800086021
1779996192889884000,18.4018837890625,-0.025475999340415,0.0006230000290088356,0.00303900009021163
1779996192907160600,18.41916064453125,0.017092999070882797,-0.0006089999806135893,-0.001041000010445714
1779996192924437500,18.4364375,0.050411999225616455,-0.0026990000624209642,-0.003461000043898821
1779996192941714200,18.453714111328125,0.05295100063085556,-0.0008720000041648746,-0.0032480000518262386
1779996192958991000,18.4709912109375,0.02570899948477745,0.00013000000035390258,-0.00203999993391335
1779996192976268000,18.48826806640625,-0.017875000834465027,0.0019079999765381217,-0.00029799999902024865
1779996192993544700,18.505544677734374,-0.04986700043082237,-0.0010499999625608325,0.0032160000409930944
1779996193019459800,18.5314599609375,-0.04047900065779686,-0.000813000020571053,0.0038999998942017555
1779996193036736500,18.548736572265625,-0.0016339999856427312,-0.00034100000630132854,-0.0003229999856557697
1779996193054013400,18.566013427734376,0.03759700059890747,0.0008270000107586384,-0.0051460000686347485
1779996193071290000,18.5832900390625,0.05508600175380707,-0.0003760000108741224,-0.005934999790042639
1779996193088567000,18.600567138671874,0.04217299818992615,-0.0032909999135881662,-0.00279000005684793
1779996193105843700,18.61784375,0.004147000145167112,-0.0013909999979659915,0.0005239999736659229
1779996193123120600,18.63512060546875,-0.03453399986028671,0.00041099998634308577,0.0032319999299943447
1779996193140397300,18.652397216796874,-0.05441499873995781,0.001398000051267445,0.003573999973013997
1779996193157674200,18.66967431640625,-0.04098999872803688,0.002643000101670623,0.0019809999503195286
1779996193174951200,18.686951171875,-0.0038109999150037766,0.0019340000580996275,0.0005019999807700515
1779996193192227800,18.704227783203127,0.03421400114893913,-0.002002999885007739,0.000028000000384054147
1779996193209504800,18.7215048828125,0.052041999995708466,-0.002902999985963106,-0.001601999974809587
1779996193235420000,18.747419921875,0.022047000005841255,-0.0008549999911338091,-0.003777999896556139
1779996193252696600,18.764696533203125,-0.015637999400496483,0.0018129999516531825,-0.0022269999608397484
1779996193269973500,18.781973388671876,-0.04424799978733063,0.0023089998867362738,0.0009219999774359167
1779996193287250200,18.799250244140627,-0.0449099987745285,0.00013699999544769526,0.0038320000749081373
1779996193304527000,18.816527099609374,-0.021875999867916107,-0.00007699999696342275,0.0033450000919401646
1779996193321803800,18.8338037109375,0.014520999975502491,-0.0012359999818727374,-0.0000019999999949504854
1779996193339080700,18.851080810546875,0.041439998894929886,0.00036899998667649925,-0.0039059999398887157
1779996193356357400,18.868357421875,0.044286999851465225,0.0003260000084992498,-0.0034829999785870314
1779996193382272500,18.8942724609375,0.0034229999873787165,0.00006900000153109431,0.0012100000167265534
1779996193399549200,18.911549072265625,-0.03142299875617027,0.002329000039026141,0.0021780000533908606
1779996193416826000,18.928826171875,-0.04859599843621254,-0.0002570000069681555,0.003269999986514449
1779996193434102800,18.946102783203123,-0.03776400163769722,-0.0018489999929443002,0.003739000065252185
1779996193451379700,18.963379638671874,-0.0029690000228583813,0.0005259999888949096,-0.00014600000577047467
1779996193468656600,18.98065673828125,0.03156000003218651,0.001892999978736043,-0.0043299999088048935
1779996193485933300,18.997933349609376,0.04990899935364723,0.000534999999217689,-0.00408599991351366
1779996193503210000,19.0152099609375,0.03727699816226959,-0.000818000000435859,-0.0011729999678209424
1779996193520487000,19.03248681640625,0.0032210000790655613,-0.0023990001063793898,0.003536999924108386
1779996193537763600,19.049763671875,-0.033851999789476395,-0.0005649999948218465,0.004509999882429838
1779996193555040500,19.06704052734375,-0.051617998629808426,0.0016659999964758754,0.0030900000128895044
1779996193572317200,19.084317138671874,-0.037629999220371246,0.002188999904319644,0.0004079999926034361
1779996193589594000,19.101593994140625,-0.001825000043027103,0.0014900000533089042,0.000018000000636675395
1779996193606870800,19.118870849609376,0.0359949991106987,-0.001917000045068562,0.00021600000036414713
1779996193624147700,19.136147705078123,0.050717998296022415,-0.0008689999813213944,-0.002171000000089407
1779996193641424400,19.15342431640625,0.035638000816106796,-0.0002629999944474548,-0.0033289999701082706
1779996193658701300,19.170701416015625,0.0005370000144466758,-0.0011759999906644225,-0.001888000057078898
1779996193675978200,19.187978271484376,-0.034265998750925064,0.0007650000043213367,0.001560000004246831
1779996193693255000,19.2052548828125,-0.04736499860882759,0.0028890001121908426,0.002899999963119626
1779996193710531600,19.222531494140625,-0.03373299911618233,0.0009679999784566462,0.002595999976620078
1779996193727808500,19.23980859375,0.0007050000131130219,-0.0018550000386312604,0.0015079999575391412
1779996193745085200,19.257085205078123,0.03302000090479851,-0.0021699999924749136,-0.00152299995534122
1779996193762361900,19.27436181640625,0.046720001846551895,-0.0004309999931138009,-0.003973000217229128
1779996193779638800,19.291638671875,0.03338399901986122,0.0019310000352561474,-0.005018999800086021
1779996193796915700,19.308915771484376,0.0012009999481961131,0.0023709998931735754,-0.0013099999632686377
1779996193822830800,19.334830810546876,-0.04256900027394295,-0.0010900000343099236,0.005617999937385321
1779996193840107500,19.352107421875,-0.04516199976205826,-0.001744000008329749,0.005853999871760607
1779996193857384400,19.369384521484374,-0.022509999573230743,-0.0009369999752379954,0.0012959999730810523
1779996193874661400,19.386661376953125,0.01318500004708767,0.0007520000217482448,-0.0037899999879300594
1779996193891938000,19.40393798828125,0.04213099926710129,-0.0009340000106021762,-0.005679999943822622
1779996193909214700,19.421214599609375,0.046720001846551895,-0.0003809999907389283,-0.0031109999399632215
1779996193926491400,19.438491455078125,0.023749999701976776,0.00030399998649954796,0.00026699999580159783
1779996193943768300,19.455768310546876,-0.01344900019466877,-0.001016999944113195,0.0022640000097453594
1779996193961045000,19.473044921875,-0.04370399937033653,-0.0012629999546334147,0.003911999985575676
1779996193978322000,19.490322021484374,-0.04887399822473526,0.0017300000181421638,0.002363000065088272
1779996194004237000,19.516237060546874,-0.005543999839574099,0.001433999976143241,-0.0002880000101868063
1779996194021514000,19.533513916015625,0.03154899924993515,-0.0006000000284984708,-0.000783999974373728
1779996194038790700,19.550790771484376,0.04852199926972389,-0.002515000058338046,-0.00018200000340584666
1779996194064705800,19.576705810546876,0.020503999665379524,-0.000615999975707382,-0.001955999992787838
1779996194081982700,19.593982666015624,-0.016394000500440598,0.0021059999708086252,-0.0009330000029876828
1779996194099259400,19.61125927734375,-0.04249899834394455,0.0025730000343173742,0.0013549999566748738
1779996194125174500,19.637174560546875,-0.03398299962282181,0.0012989999959245324,0.0027099999133497477
1779996194142451500,19.654451416015625,-0.0021200000774115324,-0.0012989999959245324,0.0020910000894218683
1779996194159728000,19.67172802734375,0.02984599955379963,-0.002004999900236726,-0.0007539999787695706
1779996194177005000,19.689005126953123,0.043859001249074936,-0.0018060000147670507,-0.0032770000398159027
1779996194194282000,19.706281982421874,0.03295699879527092,0.00036199999158270657,-0.0035780000034719706
1779996194211558700,19.72355859375,0.00216599996201694,0.002196999965235591,-0.0014220000011846423
1779996194228835300,19.74083544921875,-0.02857699990272522,0.0011889999732375145,0.001462999964132905
1779996194246112000,19.758112060546875,-0.043953001499176025,-0.0008340000058524311,0.004585999995470047
1779996194263389000,19.775388916015626,-0.03316099941730499,-0.0008650000090710819,0.002896999940276146
1779996194289304000,19.801303955078126,0.013256999664008617,-0.0006619999767281115,-0.004253999795764685
1779996194306581000,19.8185810546875,0.04055500030517578,0.000048000001697801054,-0.006959000136703253
1779996194323857700,19.835857666015624,0.04430700093507767,-0.0007469999836757779,-0.005014999769628048
1779996194341134300,19.85313427734375,0.02437499910593033,-0.0017930000321939588,-0.0013849999522790313
1779996194358411300,19.870411376953125,-0.010982000268995762,-0.002320999978110194,0.0022780001163482666
1779996194375688000,19.88768798828125,-0.03818099945783615,-0.0005920000257901847,0.0037169998977333307
1779996194392964600,19.904964599609375,-0.04359100013971329,0.0035890000872313976,0.0022640000097453594
1779996194410241500,19.922241455078126,-0.022297000512480736,0.003240999998524785,0.0007469999836757779
1779996194436156700,19.94815673828125,0.027155999094247818,-0.0007639999967068434,-0.000004999999873689376
1779996194453433600,19.96543359375,0.04347800090909004,-0.0020719999447464943,-0.0013940000208094716
1779996194470710500,19.98271044921875,0.034359999001026154,-0.0010189999593421817,-0.0023089998867362738
1779996194487987200,19.9999873046875,0.005934999790042639,0.0005719999899156392,-0.0009800000116229057
1779996194505264000,20.01726416015625,-0.02522199973464012,0.0024590000975877047,0.0003800000122282654
1779996194522540800,20.034540771484377,-0.04152600094676018,0.00047599998652003706,0.003370000049471855
1779996194539817500,20.0518173828125,-0.03193499892950058,0.0004189999890513718,0.004261999856680632
1779996194557094400,20.069094482421875,-0.005073000211268663,0.0004720000142697245,0.0017709999810904264
1779996194574371000,20.08637109375,0.025443999096751213,-0.00044999999227002263,-0.0017500000540167093
1779996194591648000,20.10364794921875,0.03998199850320816,0.00029799999902024865,-0.004579000174999237
1779996194608924700,20.120924560546875,0.03231300041079521,0.0006370000191964209,-0.004767999984323978
1779996194626201300,20.138201416015626,0.006118000019341707,0.00029299999005161226,-0.0009330000029876828
1779996194643478300,20.155478271484377,-0.02431200072169304,-0.001572999986819923,0.004302999936044216
1779996194669393400,20.181393310546873,-0.04092700034379959,-0.0006469999789260328,0.0037189999129623175
1779996194686670000,20.198670166015624,-0.02301499992609024,0.0022140000946819782,-0.0003499999875202775
1779996194703947000,20.215947021484375,0.008635999634861946,0.0010849999962374568,-0.0022279999684542418
1779996194721223700,20.2332236328125,0.03527599945664406,-0.0009379999828524888,-0.001858999952673912
1779996194738500600,20.25050048828125,0.04067400097846985,-0.0014039999805390835,-0.0011899999808520079
1779996194755777300,20.26777734375,0.021230999380350113,-0.0014220000011846423,-0.0005569999921135604
1779996194773054200,20.28505419921875,-0.009728999808430672,0.001246000058017671,0.00014000000373926014
1779996194790331000,20.302330810546874,-0.03678999841213226,0.0012309999438002706,0.002974000060930848
1779996194807607800,20.31960791015625,-0.040824998170137405,-0.0008449999731965363,0.004863999783992767
1779996194824884500,20.336884521484375,-0.02311599999666214,-0.00011899999663000926,0.0031769999768584967
1779996194842161400,20.354161376953126,0.0088919997215271,-0.0001140000022132881,0.0000670000008540228
1779996194859438000,20.37143798828125,0.034699998795986176,0.00007899999764049426,-0.0027379998937249184
1779996194876714800,20.38871484375,0.04020300135016441,0.0010460000485181808,-0.004164000041782856
1779996194893991400,20.405991455078127,0.023392999544739723,-0.00009600000339560211,-0.002971000038087368
1779996194911268400,20.423268310546874,-0.007718999870121479,-0.0002519999979995191,-0.0004980000085197389
1779996194928545300,20.440545166015625,-0.03353999927639961,0.0005520000122487545,0.0021569998934865
1779996194954460400,20.46646044921875,-0.03342900052666664,0.0005430000019259751,0.0010219999821856618
1779996194971737300,20.4837373046875,-0.0068720001727342606,0.0001429999974789098,-0.001475999946705997
1779996194989013800,20.501013671875,0.023473000153899193,0.0004619999963324517,-0.003790999995544553
1779996195006290700,20.518290771484374,0.041531000286340714,-0.0011840000515803695,-0.0033829999156296253
1779996195023567400,20.5355673828125,0.03445599973201752,-0.0017399999778717756,-0.0016029999824240804
1779996195040844300,20.55284423828125,0.007668000180274248,-0.00014400000509340316,-0.00008199999865610152
1779996195058121000,20.570120849609374,-0.02394700050354004,0.0020260000601410866,0.0007890000124461949
1779996195084036000,20.5960361328125,-0.04066099971532822,0.0018720000516623259,0.003080999944359064
1779996195101313000,20.61331298828125,-0.022986000403761864,0.0010189999593421817,0.002265000017359853
1779996195118589700,20.630589599609376,0.007992000319063663,-0.0005210000090301037,0.0007859999896027148
1779996195135866600,20.64786669921875,0.03407200053334236,-0.002655999967828393,-0.0005810000002384186
1779996195153143300,20.665143310546874,0.039034001529216766,-0.00164899998344481,-0.002004999900236726
1779996195170420200,20.682420166015625,0.021435000002384186,0.0011520000407472253,-0.0027000000700354576
1779996195187697000,20.69969677734375,-0.008704000152647495,0.0017579999985173345,-0.001433999976143241
1779996195204973600,20.7169736328125,-0.03286899998784065,0.0006140000186860561,0.0023739999160170555
1779996195222250500,20.73425048828125,-0.03844499960541725,-0.0004349999944679439,0.005003000143915415
1779996195239527200,20.751527099609376,-0.021973999217152596,-0.0010319999419152737,0.004095000214874744
1779996195256803800,20.768803955078123,0.007273999974131584,-0.00013699999544769526,-0.0005430000019259751
1779996195274080800,20.786080810546874,0.03204299882054329,0.0009330000029876828,-0.004009999800473452
1779996195291357400,20.803357421875,0.038860999047756195,-0.00009100000170292333,-0.0038300000596791506
1779996195308634000,20.820634033203124,0.021882999688386917,-0.0006329999887384474,-0.001276999944821
1779996195325911000,20.8379111328125,-0.007218000013381243,-0.00030300000798888505,0.0010839999886229634
1779996195343187700,20.855187744140625,-0.03249099850654602,-0.00023200000578071922,0.0026199999265372753
1779996195369103000,20.88110302734375,-0.0333699993789196,0.0002629999944474548,0.0030950000509619713
1779996195386379800,20.8983798828125,-0.00867099966853857,0.00013000000035390258,0.0006150000263005495
1779996195403656400,20.915656494140624,0.021608000621199608,0.002176000038161874,-0.0025659999810159206
1779996195420933400,20.932933349609375,0.03820500150322914,0.001711999997496605,-0.003684000112116337
1779996195446848500,20.9588486328125,0.023152999579906464,-0.003083999967202544,0.00024199999461416155
1779996195464125200,20.976125244140626,-0.006725000217556953,-0.001934999949298799,0.0019409999949857593
1779996195481402000,20.993402099609376,-0.0322519987821579,0.0012489999644458294,0.0013569999719038606
1779996195498678800,21.0106787109375,-0.038927000015974045,0.002216000109910965,-0.00016399999731220305
1779996195515955700,21.027955810546874,-0.021608000621199608,0.00048600000445730984,0.0002390000008745119
1779996195533232400,21.045232421875,0.007916999980807304,-0.0004030000127386302,-0.0006510000093840063
1779996195559147500,21.0711474609375,0.03787900134921074,-0.0025309999473392963,-0.0011320000048726797
1779996195576424400,21.088424560546876,0.030991999432444572,-0.0016840000171214342,-0.0012860000133514404
1779996195593701000,21.105701171875,0.00687999976798892,-0.000018000000636675395,-0.001474000047892332
1779996195610977800,21.122977783203126,-0.020826000720262527,0.0019660000689327717,-0.0008410000009462237
1779996195628254700,21.140254638671873,-0.036006998270750046,0.0021510000806301832,0.000661000027321279
1779996195645531400,21.157531494140624,-0.028914999216794968,0.0007130000158213079,0.0028860000893473625
1779996195662808300,21.174808349609375,-0.0062409997917711735,-0.0018400000408291817,0.002828999888151884
1779996195688723500,21.200723388671875,0.029308000579476357,-0.0014169999631121755,-0.0006230000290088356
1779996195706000100,21.218000244140626,0.033139001578092575,0.0017600000137463212,-0.0036909999325871468
1779996195723277000,21.235277099609377,0.01854199916124344,0.0011129999766126275,-0.002911000046879053
1779996195740553700,21.2525537109375,-0.006790999788790941,0.0005719999899156392,0.0004970000009052455
1779996195766468900,21.27846875,-0.03253199905157089,-0.0010079999919980764,0.004521999973803759
1779996195783745500,21.29574560546875,-0.028490999713540077,-0.0014489999739453197,0.0034940000623464584
1779996195801022500,21.3130224609375,-0.007027999963611364,-0.00003400000059627928,0.000014999999621068127
1779996195818299100,21.330299072265625,0.018766000866889954,0.0017389999702572823,-0.004188000224530697
1779996195835576000,21.347576171875,0.03463499993085861,0.0007169999880716205,-0.0052709998562932014
1779996195852852700,21.364852783203126,0.031647998839616776,-0.00017800000205170363,-0.0025820001028478146
1779996195878768000,21.39076806640625,-0.00494399992749095,-0.00008900000102585182,0.002686999971047044
1779996195896044800,21.408044921875,-0.029569000005722046,-0.00008199999865610152,0.0037869999650865793
1779996195913321500,21.425321533203125,-0.038221001625061035,-0.0012260000221431255,0.004579999949783087
1779996195939236600,21.451236572265625,-0.011223999783396721,0.0015839999541640282,-0.00018600000475998968
1779996195956513500,21.468513427734376,0.017994999885559082,0.001243000035174191,-0.002862999914214015
1779996195973790200,21.485790283203126,0.0378200002014637,-0.0005430000019259751,-0.002750999992713332
1779996195991067000,21.50306689453125,0.03345799818634987,-0.0007939999923110008,-0.0020669999066740274
1779996196008343600,21.520343505859376,0.011610000394284725,-0.0008650000090710819,-0.0005949999904260039
1779996196025620500,21.537620361328123,-0.018960999324917793,0.0004659999976865947,0.0010479999473318458
1779996196042897200,21.554897216796874,-0.03700900077819824,0.0007070000283420086,0.00317199993878603
1779996196060173800,21.572173828125,-0.03417399898171425,0.0003499999875202775,0.004033000208437443
1779996196077450800,21.58945068359375,-0.01128000020980835,0.0006699999794363976,0.0016499999910593033
1779996196094727400,21.6067275390625,0.018265999853610992,0.0007350000087171793,-0.001534000039100647
1779996196112004600,21.624004638671874,0.035172998905181885,0.0008789999992586672,-0.003240999998524785
1779996196129281000,21.641281005859376,0.032962001860141754,-0.0032140000257641077,-0.0017160000279545784
1779996196146558000,21.658557861328124,0.010847999714314938,-0.004188000224530697,0.0006489999941550195
1779996196163835000,21.6758349609375,-0.01673099957406521,-0.00010199999815085903,0.0007089999853633344
1779996196181111600,21.693111572265625,-0.034304000437259674,0.002486000070348382,-0.0010900000343099236
1779996196198388200,21.71038818359375,-0.031221000477671623,0.00253499997779727,-0.0007479999912902713
1779996196215665200,21.7276650390625,-0.009003999643027782,-0.00030399998649954796,0.0007580000092275441
1779996196232942000,21.744942138671874,0.01805100031197071,-0.003768000053241849,0.0014420000370591879
1779996196250218500,21.762218505859376,0.03463900089263916,-0.002257999964058399,0.00004199999966658652
1779996196267495200,21.7794951171875,0.029611000791192055,0.00016199999663513154,-0.0024220000486820936
1779996196284772000,21.796772216796874,0.00861200038343668,0.003192000091075897,-0.0031449999660253525
1779996196302048800,21.814048828125,-0.01763799972832203,0.0020169999916106462,-0.0005709999823011458
1779996196319325700,21.83132568359375,-0.03272800147533417,-0.0004180000105407089,0.00392200006172061
1779996196336602600,21.8486025390625,-0.03002000041306019,-0.0011480000102892518,0.005049999803304672
1779996196353879000,21.865879150390626,-0.011339000426232815,-0.0017430000007152557,0.0023640000727027655
1779996196371155700,21.88315576171875,0.014093000441789627,-0.0026469998992979527,-0.0015999999595806003
1779996196388432600,21.9004326171875,0.031380001455545425,0.0007559999939985573,-0.004865000024437904
