time,seconds_elapsed,z,y,x
1779996174710280400,0.222280517578125,9.859050750732422,-0.16395001113414764,-0.6379500031471252
1779996174727557000,0.23955712890625,9.766050338745117,-0.1469999998807907,-0.62295001745224
1779996174744833800,0.256833740234375,9.628950119018555,-0.1399500072002411,-0.6430500149726868
1779996174762110500,0.2741103515625,9.796950340270996,-0.10605000704526901,-0.7020000219345093
1779996174779387100,0.29138720703125,9.979050636291504,-0.11400000751018524,-0.736050009727478
1779996174796663600,0.30866357421875,9.823050498962402,-0.1489500105381012,-0.7000500559806824
1779996174822578700,0.33457861328125,9.85200023651123,-0.1489500105381012,-0.6450000405311584
1779996174839855400,0.35185546875,9.735000610351562,-0.12105000764131546,-0.6589500308036804
1779996174857132000,0.369132080078125,9.700950622558594,-0.12495000660419464,-0.6469500064849854
1779996174874408400,0.386408447265625,9.856950759887695,-0.12300000339746475,-0.6739500164985657
1779996174891685000,0.40368505859375,10.054950714111328,-0.10200000554323196,-0.736050009727478
1779996174908962000,0.420962158203125,9.952950477600098,-0.1570500135421753,-0.6760500073432922
1779996174926238500,0.438238525390625,9.718050003051758,-0.17295001447200775,-0.597000002861023
1779996174943515100,0.45551513671875,9.618000030517578,-0.14205001294612885,-0.62295001745224
1779996174960791800,0.472791748046875,9.768000602722168,-0.05595000088214874,-0.6949500441551208
1779996174982387700,0.4943876953125,9.895050048828125,-0.11400000751018524,-0.7099500298500061
1779996174999664400,0.511664306640625,9.75195026397705,-0.15195000171661377,-0.6550500392913818
1779996175016941000,0.528941162109375,9.712950706481934,-0.17100000381469727,-0.6400500535964966
1779996175034217700,0.5462177734375,9.782999992370605,-0.13305000960826874,-0.6810000538825989
1779996175051494400,0.563494384765625,9.897000312805176,-0.11100000888109207,-0.7170000076293945
1779996175068770800,0.580770751953125,9.86400032043457,-0.15900000929832458,-0.7020000219345093
1779996175086047500,0.598047607421875,9.865950584411621,-0.17295001447200775,-0.6690000295639038
1779996175103324200,0.61532421875,9.921000480651855,-0.11805000901222229,-0.6949500441551208
1779996175120600800,0.632600830078125,9.979050636291504,-0.11400000751018524,-0.7050000429153442
1779996175137877500,0.64987744140625,9.859050750732422,-0.14505000412464142,-0.6589500308036804
1779996175155154200,0.667154296875,9.742050170898438,-0.11400000751018524,-0.6499500274658203
1779996175172430800,0.684430908203125,9.652950286865234,-0.0970500037074089,-0.6709500551223755
1779996175189707500,0.70170751953125,9.670050621032715,-0.11400000751018524,-0.6619500517845154
1779996175215622700,0.72762255859375,9.771000862121582,-0.14505000412464142,-0.6160500049591064
1779996175232899000,0.744899169921875,9.844950675964355,-0.12105000764131546,-0.6550500392913818
1779996175250175700,0.76217578125,9.895050048828125,-0.07800000160932541,-0.7020000219345093
1779996175267452400,0.779452392578125,9.853950500488281,-0.16095000505447388,-0.6670500040054321
1779996175284729000,0.79672900390625,9.766050338745117,-0.16395001113414764,-0.6709500551223755
1779996175302005800,0.814005859375,9.766050338745117,-0.11100000888109207,-0.697950005531311
1779996175319282200,0.8312822265625,9.84000015258789,-0.11595000326633453,-0.7410000562667847
1779996175336559000,0.84855908203125,9.792000770568848,-0.1879500150680542,-0.7170000076293945
1779996175353835800,0.865835693359375,9.715950012207031,-0.1570500135421753,-0.7099500298500061
1779996175371112200,0.8831123046875,9.877950668334961,-0.16095000505447388,-0.7000500559806824
1779996175388388900,0.900388916015625,9.996000289916992,-0.17295001447200775,-0.7290000319480896
1779996175405665500,0.91766552734375,9.952950477600098,-0.09405000507831573,-0.7740000486373901
1779996175422942500,0.9349423828125,9.796950340270996,-0.18105000257492065,-0.7099500298500061
1779996175448857000,0.960857177734375,9.5910005569458,-0.17295001447200775,-0.6760500073432922
1779996175466134000,0.978134033203125,9.199050903320312,-0.09405000507831573,-0.7120500206947327
1779996175483410700,0.99541064453125,10.093950271606445,-0.14205001294612885,-0.7459500432014465
1779996175509325800,1.021325927734375,10.075050354003906,-0.1489500105381012,-0.7860000133514404
1779996175526602500,1.0386025390625,10.339950561523438,-0.15405000746250153,-0.7740000486373901
1779996175543879200,1.055879150390625,10.240050315856934,-0.1279500126838684,-0.753000020980835
1779996175561155800,1.07315576171875,9.735000610351562,-0.21195000410079956,-0.697950005531311
1779996175578432500,1.0904326171875,9.63900089263916,-0.1489500105381012,-0.6859500408172607
1779996175595709200,1.107709228515625,9.715950012207031,-0.0799500048160553,-0.7170000076293945
1779996175612985900,1.12498583984375,9.643950462341309,-0.15195000171661377,-0.7020000219345093
1779996175630262500,1.142262451171875,9.643950462341309,-0.1879500150680542,-0.6760500073432922
1779996175647539200,1.159539306640625,9.670050621032715,-0.14205001294612885,-0.6810000538825989
1779996175664816000,1.176816162109375,9.691950798034668,-0.11100000888109207,-0.6880500316619873
1779996175682092800,1.1940927734375,9.663000106811523,-0.19005000591278076,-0.6810000538825989
1779996175699369500,1.211369384765625,9.811050415039062,-0.15900000929832458,-0.7050000429153442
1779996175716646100,1.228646240234375,9.949950218200684,-0.12300000339746475,-0.7069500088691711
1779996175733922800,1.2459228515625,9.8860502243042,-0.15900000929832458,-0.6949500441551208
1779996175751199500,1.263199462890625,9.792000770568848,-0.18300001323223114,-0.6690000295639038
1779996175777114600,1.289114501953125,9.847050666809082,-0.1279500126838684,-0.7069500088691711
1779996175794391300,1.306391357421875,9.796950340270996,-0.15900000929832458,-0.697950005531311
1779996175811668000,1.32366796875,9.703950881958008,-0.1660500019788742,-0.7099500298500061
1779996175828944600,1.340944580078125,9.780000686645508,-0.14505000412464142,-0.6949500441551208
1779996175846221300,1.35822119140625,9.816000938415527,-0.16905000805854797,-0.697950005531311
1779996175863498000,1.375498046875,9.784950256347656,-0.15195000171661377,-0.7309500575065613
1779996175880775000,1.39277490234375,9.808950424194336,-0.17295001447200775,-0.7480500340461731
1779996175898051600,1.410051513671875,9.700950622558594,-0.18105000257492065,-0.7500000596046448
1779996175915328300,1.427328369140625,9.736950874328613,-0.14505000412464142,-0.7549500465393066
1779996175932605000,1.44460498046875,9.904950141906738,-0.1399500072002411,-0.7960500121116638
1779996175949881600,1.461881591796875,9.816000938415527,-0.1489500105381012,-0.778950035572052
1779996175975796700,1.487796630859375,9.748950004577637,-0.22800001502037048,-0.6690000295639038
1779996175993073400,1.505073486328125,9.919050216674805,-0.17100000381469727,-0.6829500198364258
1779996176010350300,1.522350341796875,9.981000900268555,-0.11805000901222229,-0.7570500373840332
1779996176027627000,1.539626953125,9.838050842285156,-0.13305000960826874,-0.7840500473976135
1779996176044903400,1.5569033203125,9.694050788879395,-0.10395000129938126,-0.7740000486373901
1779996176062180400,1.574180419921875,9.579000473022461,-0.08700000494718552,-0.7120500206947327
1779996176079457000,1.59145703125,9.703950881958008,-0.16905000805854797,-0.6690000295639038
1779996176096734000,1.60873388671875,9.732000350952148,-0.14505000412464142,-0.6619500517845154
1779996176114010600,1.6260107421875,9.664950370788574,-0.16395001113414764,-0.6640500426292419
1779996176131287600,1.64328759765625,9.547950744628906,-0.1279500126838684,-0.7069500088691711
1779996176148564200,1.660564208984375,9.720000267028809,-0.0990000069141388,-0.7720500230789185
1779996176165841200,1.677841064453125,9.724950790405273,-0.12495000660419464,-0.7890000343322754
1779996176183117800,1.695117919921875,9.841950416564941,-0.1399500072002411,-0.8220000267028809
1779996176209032700,1.72103271484375,10.288050651550293,-0.1660500019788742,-0.8509500622749329
1779996176226309600,1.7383095703125,10.414050102233887,-0.13695000112056732,-0.8700000643730164
1779996176243586300,1.75558642578125,11.824050903320312,-0.22800001502037048,-0.8460000157356262
1779996176260863000,1.772863037109375,23.362051010131836,-1.3650000095367432,0.6580500602722168
1779996176278139600,1.7901396484375,11.13900089263916,0.814050018787384,-1.4940000772476196
1779996176295416600,1.80741650390625,12.451050758361816,-0.8239500522613525,-0.46800002455711365
1779996176312693200,1.824693359375,-4.047000408172607,0.24000000953674316,-0.5850000381469727
1779996176329970000,1.841969970703125,-5.494950294494629,0.13005000352859497,0.4020000100135803
1779996176355885300,1.86788525390625,1.6080000400543213,0.62295001745224,-0.3460500240325928
1779996176373162000,1.885161865234375,17.21700096130371,-0.9940500259399414,-1.6189501285552979
1779996176390439000,1.90243896484375,27.58605194091797,-0.7279500365257263,-1.3270500898361206
1779996176407715600,1.919715576171875,14.556000709533691,0.6510000228881836,-1.4419500827789307
1779996176424992500,1.936992431640625,23.590051651000977,-1.390950083732605,-1.15500009059906
1779996176442269400,1.95426953125,0.9529500603675842,0.38805001974105835,-0.7000500559806824
1779996176459546000,1.971546142578125,-2.3680500984191895,0.08205000311136246,0.6559500098228455
1779996176476822800,1.98882275390625,-2.6550002098083496,-0.010950000956654549,0.8929500579833984
1779996176494099500,2.006099365234375,1.5940500497817993,0.28005000948905945,-0.11100000888109207
1779996176511376400,2.02337646484375,16.03499984741211,-0.7909500598907471,-1.3200000524520874
1779996176528653000,2.040653076171875,24.139951705932617,-0.6109500527381897,-1.1790000200271606
1779996176545930000,2.057929931640625,16.693050384521484,0.43605002760887146,-1.3099501132965088
1779996176563206700,2.07520654296875,23.290950775146484,-1.1470500230789185,-1.237950086593628
1779996176589121800,2.101121826171875,-1.659000039100647,0.29205000400543213,0.20100000500679016
1779996176606398700,2.118398681640625,-2.8339500427246094,-0.08700000494718552,0.8449500203132629
1779996176623675400,2.13567529296875,-0.24300001561641693,-0.0970500037074089,0.3330000042915344
1779996176658229200,2.170229248046875,19.9549503326416,-0.36000001430511475,-1.2310500144958496
1779996176675506000,2.187505859375,21.29505157470703,-0.13695000112056732,-1.3720500469207764
1779996176692782800,2.204782958984375,22.09200096130371,-0.5299500226974487,-1.3129500150680542
1779996176710059500,2.2220595703125,8.694000244140625,0.04605000093579292,-0.7669500112533569
1779996176727336400,2.23933642578125,2.7499501705169678,-0.1660500019788742,0.18405000865459442
1779996176744613000,2.256613037109375,-2.707050085067749,-0.010950000956654549,0.7159500122070312
1779996176761889800,2.273889892578125,-1.2139500379562378,0.1770000010728836,0.4240500330924988
1779996176779166700,2.291166748046875,5.904000282287598,0.25394999980926514,-0.625950038433075
1779996176796443600,2.308443603515625,22.977001190185547,-0.7810500264167786,-1.1640000343322754
1779996176813720600,2.325720458984375,18.10004997253418,0.15105000138282776,-1.2649500370025635
1779996176830997200,2.342997314453125,24.07305145263672,-0.6780000329017639,-1.1980500221252441
1779996176848274200,2.360274169921875,7.966050148010254,0.1080000028014183,-0.7099500298500061
1779996176865551000,2.377551025390625,1.9150501489639282,0.08895000070333481,0.12195000797510147
1779996176882827800,2.394827880859375,-0.6330000162124634,-0.19995000958442688,0.6030000448226929
1779996176908743200,2.4207431640625,1.281000018119812,0.2560500204563141,0.010050000622868538
1779996176926020000,2.43802001953125,14.953950881958008,-0.39795002341270447,-0.9150000214576721
1779996176943296800,2.455296875,20.290050506591797,-0.3550500273704529,-1.1640000343322754
1779996176969212000,2.4812119140625,23.571001052856445,-0.6139500141143799,-1.228950023651123
1779996176986488800,2.49848876953125,8.66295051574707,0.031050002202391624,-0.7020000219345093
1779996177003765800,2.515765869140625,2.2710001468658447,0.04800000041723251,0.1680000126361847
1779996177021042400,2.53304248046875,-0.34995001554489136,-0.2070000171661377,0.6390000581741333
1779996177038319400,2.5503193359375,-0.6570000052452087,0.13395000994205475,0.3540000021457672
1779996177055596300,2.56759619140625,5.715000152587891,0.20400001108646393,-0.5400000214576721
1779996177072873200,2.584873291015625,21.051000595092773,-0.6970500349998474,-1.0249500274658203
1779996177098788400,2.610788330078125,20.54400062561035,-0.1879500150680542,-1.1809500455856323
1779996177116065300,2.628065185546875,18.09105110168457,-0.5659500360488892,-1.0300500392913818
1779996177133342200,2.64534228515625,4.7220001220703125,0.25200000405311584,-0.46800002455711365
1779996177150619100,2.662619140625,2.26200008392334,-0.26205000281333923,0.37095001339912415
1779996177167895800,2.679895751953125,-1.9800001382827759,0.10305000841617584,0.5719500184059143
1779996177185172700,2.6971728515625,1.5390000343322754,0.22800001502037048,0.0070500001311302185
1779996177202449700,2.71444970703125,14.700000762939453,-0.48000001907348633,-0.7500000596046448
1779996177228365000,2.740364990234375,17.611949920654297,0.10095000267028809,-1.207050085067749
1779996177245642000,2.75764208984375,23.03205108642578,-0.5509500503540039,-1.1980500221252441
1779996177262918700,2.774918701171875,8.892000198364258,0.04305000230669975,-0.7050000429153442
1779996177280195600,2.792195556640625,3.891000270843506,-0.09000000357627869,0.11295000463724136
1779996177297472500,2.809472412109375,-0.29100000858306885,-0.0799500048160553,0.5890500545501709
1779996177314749200,2.826749267578125,-0.5269500017166138,0.14595000445842743,0.37095001339912415
1779996177332026000,2.844026123046875,6.016050338745117,0.1489500105381012,-0.4339500069618225
1779996177357941200,2.869941162109375,17.7220516204834,-0.22095000743865967,-0.9900000691413879
1779996177375218200,2.88721826171875,20.878950119018555,-0.2880000174045563,-1.1069999933242798
1779996177392495000,2.9044951171875,17.083051681518555,-0.4249500334262848,-0.9900000691413879
1779996177418410500,2.930410400390625,4.758000373840332,-0.10905000567436218,0.04605000093579292
1779996177435687400,2.9476875,-0.3910500109195709,-0.030000001192092896,0.5359500050544739
1779996177452964400,2.96496435546875,-0.3739500045776367,0.16500000655651093,0.3829500079154968
1779996177478879500,2.99087939453125,14.439001083374023,-0.5440500378608704,-0.6330000162124634
1779996177496156400,3.008156494140625,16.89000129699707,-0.16095000505447388,-0.9610500335693359
1779996177513433300,3.025433349609375,21.118051528930664,-0.2639999985694885,-1.152000069618225
1779996177530710000,3.0427099609375,16.47300148010254,-0.31200000643730164,-1.002000093460083
1779996177547987000,3.059987060546875,6.715050220489502,0.13005000352859497,-0.4320000112056732
1779996177565264000,3.077263916015625,3.3480000495910645,-0.27105000615119934,0.30195000767707825
1779996177591179000,3.103178955078125,-0.19200000166893005,0.12495000660419464,0.4069500267505646
1779996177608456000,3.1204560546875,6.897000312805176,-0.0990000069141388,-0.30000001192092896
1779996177625732900,3.13773291015625,16.753049850463867,-0.42705002427101135,-0.7840500473976135
1779996177643009800,3.155009765625,17.683950424194336,0.004950000438839197,-1.0920000076293945
1779996177660286700,3.17228662109375,21.682950973510742,-0.5350500345230103,-1.0830000638961792
1779996177686202000,3.1982021484375,7.567050457000732,0.06300000101327896,-0.40605002641677856
1779996177703479000,3.21547900390625,3.2380502223968506,-0.24300001561641693,0.28200000524520874
1779996177720756000,3.232755859375,-0.9679500460624695,0.04605000093579292,0.5290500521659851
1779996177746671000,3.258671142578125,7.440000534057617,-0.11805000901222229,-0.2959500253200531
1779996177763948000,3.275947998046875,15.403950691223145,-0.30000001192092896,-0.7570500373840332
1779996177781225000,3.293224853515625,18.261001586914062,-0.10605000704526901,-1.0609500408172607
1779996177807140400,3.319140380859375,15.315000534057617,-0.19200000166893005,-0.8800500631332397
1779996177824417300,3.336417236328125,8.469000816345215,-0.05400000140070915,-0.42000001668930054
1779996177841694200,3.353694091796875,2.854950189590454,-0.13500000536441803,0.226950004696846
1779996177858971100,3.37097119140625,-0.7260000109672546,0.08700000494718552,0.5410500168800354
1779996177876248000,3.388248046875,2.7400500774383545,0.08205000311136246,0.1290000081062317
1779996177893524700,3.405524658203125,12.336000442504883,-0.29100000858306885,-0.5040000081062317
1779996177910801700,3.4228017578125,16.08795166015625,-0.030000001192092896,-0.9780000448226929
1779996177928078600,3.44007861328125,21.175050735473633,-0.4320000112056732,-1.0039499998092651
1779996177945355500,3.45735546875,15.00195026397705,-0.20400001108646393,-0.8029500246047974
1779996177971271000,3.48327099609375,6.238950252532959,-0.14505000412464142,-0.0970500037074089
1779996177988547800,3.5005478515625,0.07005000114440918,0.09105000644922256,0.37800002098083496
1779996178005824800,3.51782470703125,0.9100500345230103,0.12000000476837158,0.32100000977516174
1779996178023101700,3.535101806640625,7.657950401306152,-0.208950012922287,-0.15000000596046448
1779996178040378600,3.552378662109375,13.654050827026367,-0.19005000591278076,-0.6520500183105469
1779996178057655600,3.569655517578125,19.302000045776367,-0.2639999985694885,-1.0110000371932983
1779996178074932500,3.586932373046875,18.510000228881836,-0.24300001561641693,-1.0180500745773315
1779996178092209400,3.60420947265625,12.312000274658203,-0.14505000412464142,-0.7069500088691711
1779996178118124800,3.630124755859375,2.5440001487731934,0.0580500029027462,0.17205001413822174
1779996178135401700,3.647401611328125,0.38100001215934753,0.015000000596046448,0.49500003457069397
1779996178152678700,3.6646787109375,3.58305025100708,-0.08205000311136246,0.16995000839233398
1779996178169955600,3.68195556640625,10.588950157165527,-0.15405000746250153,-0.4510500133037567
1779996178187232500,3.699232421875,16.78005027770996,-0.1660500019788742,-0.9180000424385071
1779996178204509400,3.716509521484375,19.483051300048828,-0.2550000250339508,-1.0060499906539917
1779996178221786400,3.733786376953125,15.68595027923584,-0.20205001533031464,-0.817050039768219
1779996178239063300,3.751063232421875,9.232050895690918,-0.1399500072002411,-0.36000001430511475
1779996178256340000,3.768340087890625,2.998950242996216,-0.05595000088214874,0.20805001258850098
1779996178273617000,3.785616943359375,0.6850500106811523,0.016950000077486038,0.4330500066280365
1779996178290893800,3.802893798828125,3.421950101852417,0.027000000700354576,0.10095000267028809
1779996178308170800,3.820170654296875,10.635000228881836,-0.19005000591278076,-0.4510500133037567
1779996178334086100,3.846086181640625,18.285001754760742,-0.23805001378059387,-0.9199500679969788
1779996178351363000,3.863363037109375,18.475950241088867,-0.31905001401901245,-0.9370500445365906
1779996178368640000,3.880639892578125,12.405000686645508,-0.1279500126838684,-0.6690000295639038
1779996178385917000,3.8979169921875,6.070950508117676,-0.0970500037074089,-0.10395000129938126
1779996178403193900,3.91519384765625,1.3020000457763672,0.015000000596046448,0.361050009727478
1779996178429109200,3.941109130859375,3.592050075531006,0.003000000026077032,0.14805001020431519
1779996178446386200,3.95838623046875,10.468950271606445,-0.1660500019788742,-0.4129500091075897
1779996178463663000,3.9756630859375,16.147951126098633,-0.22800001502037048,-0.817050039768219
1779996178489578500,4.00157861328125,18.165000915527344,-0.25005000829696655,-0.9130500555038452
1779996178506855400,4.01885546875,12.496050834655762,-0.10905000567436218,-0.6670500040054321
1779996178524132400,4.03613232421875,6.259950160980225,-0.08700000494718552,-0.10695000737905502
1779996178541409300,4.0534091796875,1.527000069618225,0.027000000700354576,0.364050030708313
1779996178558686500,4.0706865234375,1.7710500955581665,-0.003000000026077032,0.35895001888275146
1779996178575963400,4.08796337890625,6.885000228881836,-0.13500000536441803,-0.11595000326633453
1779996178593240000,4.105239990234375,13.312050819396973,-0.16905000805854797,-0.6330000162124634
1779996178610517200,4.122517333984375,17.847000122070312,-0.2160000056028366,-0.9250500202178955
1779996178627794200,4.139794189453125,17.977951049804688,-0.2639999985694885,-0.934950053691864
1779996178653709600,4.16570947265625,9.606000900268555,-0.09000000357627869,-0.40800002217292786
1779996178670986500,4.182986572265625,3.8050501346588135,-0.06599999964237213,0.1579500138759613
1779996178688263400,4.200263427734375,1.3450500965118408,-0.039000000804662704,0.45000001788139343
1779996178714178800,4.2261787109375,6.681000232696533,-0.05595000088214874,-0.1279500126838684
1779996178731456000,4.2434560546875,13.080000877380371,-0.12105000764131546,-0.6589500308036804
1779996178748733000,4.26073291015625,17.581050872802734,-0.24000000953674316,-0.8719500303268433
1779996178774648300,4.2866484375,15.68595027923584,-0.23295001685619354,-0.7240500450134277
1779996178791925200,4.30392529296875,9.723000526428223,-0.0990000069141388,-0.4129500091075897
1779996178809202200,4.3212021484375,4.021049976348877,-0.003000000026077032,0.07200000435113907
1779996178826479000,4.33847900390625,1.5079500675201416,-0.022950001060962677,0.3850500285625458
1779996178843756300,4.35575634765625,3.811950206756592,-0.04905000329017639,0.15300001204013824
1779996178861033200,4.373033203125,9.859050750732422,-0.1469999998807907,-0.35100001096725464
1779996178878310100,4.39031005859375,15.564001083374023,-0.2160000056028366,-0.7740000486373901
1779996178895587000,4.407587158203125,18.373050689697266,-0.2689500153064728,-0.8989500403404236
1779996178912864300,4.4248642578125,15.645000457763672,-0.208950012922287,-0.7840500473976135
1779996178930141200,4.44214111328125,9.819000244140625,-0.11805000901222229,-0.42705002427101135
1779996178947418000,4.459418212890625,4.260000228881836,-0.05595000088214874,0.09300000220537186
1779996178964695000,4.476695068359375,1.7310000658035278,-0.003000000026077032,0.38100001215934753
1779996178981972000,4.493971923828125,3.882000207901001,-0.018000001087784767,0.1579500138759613
1779996178999249000,4.511248779296875,9.732000350952148,-0.12105000764131546,-0.36000001430511475
1779996179016526000,4.528526123046875,15.346050262451172,-0.18300001323223114,-0.7620000243186951
1779996179033803000,4.545802978515625,18.145950317382812,-0.28095000982284546,-0.8560500144958496
1779996179059718400,4.571718505859375,12.901050567626953,-0.15405000746250153,-0.597000002861023
1779996179076995300,4.588995361328125,6.96405029296875,-0.06795000284910202,-0.15900000929832458
1779996179094272500,4.6062724609375,2.5350000858306885,0.024000000208616257,0.26100000739097595
1779996179111549700,4.6235498046875,2.3620500564575195,-0.019950000569224358,0.34200000762939453
1779996179128826400,4.640826416015625,6.576000213623047,-0.10905000567436218,-0.06105000153183937
1779996179146103600,4.658103515625,12.580050468444824,-0.1469999998807907,-0.5850000381469727
1779996179163380700,4.675380615234375,16.94700050354004,-0.21900001168251038,-0.8509500622749329
1779996179180657700,4.69265771484375,17.418001174926758,-0.25200000405311584,-0.8440500497817993
1779996179202253800,4.71425390625,11.491050720214844,-0.1570500135421753,-0.4729500114917755
1779996179219530800,4.73153076171875,5.7960004806518555,-0.06599999964237213,-0.010950000956654549
1779996179236807700,4.7488076171875,2.287950038909912,0.016950000077486038,0.28200000524520874
1779996179254084900,4.7660849609375,3.1180500984191895,0.003000000026077032,0.20805001258850098
1779996179271361800,4.78336181640625,7.9710001945495605,-0.13695000112056732,-0.17805001139640808
1779996179288639000,4.800638916015625,13.708950996398926,-0.19995000958442688,-0.5779500007629395
1779996179305916000,4.817916015625,17.398950576782227,-0.2160000056028366,-0.8340000510215759
1779996179323193000,4.835193115234375,16.626001358032227,-0.20400001108646393,-0.8290500640869141
1779996179349108500,4.8611083984375,8.731950759887695,-0.10200000554323196,-0.3169500231742859
1779996179366385400,4.878385498046875,3.7960500717163086,-0.10200000554323196,0.1960500031709671
1779996179383662300,4.895662353515625,2.259000062942505,-0.019950000569224358,0.39000001549720764
1779996179409578000,4.921577880859375,7.909050464630127,-0.06105000153183937,-0.24300001561641693
1779996179426855000,4.93885498046875,13.516050338745117,-0.19005000591278076,-0.6280500292778015
1779996179444131800,4.9561318359375,17.17005157470703,-0.24495001137256622,-0.7980000376701355
1779996179461409000,4.973408935546875,16.564050674438477,-0.2569500207901001,-0.76500004529953
1779996179478686000,4.99068603515625,11.625000953674316,-0.1399500072002411,-0.5040000081062317
1779996179495963000,5.007962890625,6.11400032043457,-0.06300000101327896,-0.06795000284910202
1779996179513240000,5.025239990234375,2.665950059890747,-0.003000000026077032,0.2749500274658203
1779996179530517000,5.04251708984375,3.346050262451172,-0.019950000569224358,0.226950004696846
1779996179547794000,5.0597939453125,7.89900016784668,-0.09405000507831573,-0.18105000257492065
1779996179573709600,5.08570947265625,15.72195053100586,-0.21900001168251038,-0.7120500206947327
1779996179590986800,5.10298681640625,17.371049880981445,-0.25905001163482666,-0.8010000586509705
1779996179608263400,5.120263427734375,14.254950523376465,-0.18300001323223114,-0.6859500408172607
1779996179625540600,5.13754052734375,8.974050521850586,-0.08205000311136246,-0.3360000252723694
1779996179642817500,5.154817626953125,4.180950164794922,-0.013050000183284283,0.13395000994205475
1779996179660094500,5.172094482421875,2.616000175476074,-0.04200000315904617,0.34005001187324524
1779996179677371400,5.189371337890625,5.277000427246094,-0.09000000357627869,0.08895000070333481
1779996179694648600,5.206648681640625,10.672950744628906,-0.12105000764131546,-0.3840000033378601
1779996179711925500,5.223925537109375,15.483000755310059,-0.1660500019788742,-0.7500000596046448
1779996179729202400,5.241202392578125,17.17905044555664,-0.24000000953674316,-0.8149500489234924
1779996179755118000,5.2671181640625,11.742000579833984,-0.16095000505447388,-0.48000001907348633
1779996179772395000,5.28439501953125,6.4830002784729,-0.10395000129938126,-0.04005000367760658
1779996179789672000,5.301671875,3.0990002155303955,-0.010950000956654549,0.2560500204563141
1779996179806949000,5.31894921875,3.5850002765655518,-0.013050000183284283,0.21495001018047333
1779996179824226000,5.33622607421875,7.789050579071045,-0.09195000678300858,-0.16395001113414764
1779996179841503200,5.353503173828125,13.068000793457031,-0.16905000805854797,-0.5560500025749207
1779996179858780200,5.3707802734375,16.576051712036133,-0.22800001502037048,-0.7549500465393066
1779996179876057000,5.38805712890625,16.176000595092773,-0.24300001561641693,-0.7260000109672546
1779996179893334300,5.405334228515625,11.800050735473633,-0.17295001447200775,-0.492000013589859
1779996179910611500,5.422611572265625,6.652950286865234,-0.06599999964237213,-0.11100000888109207
1779996179927888400,5.439888427734375,3.30495023727417,-0.019950000569224358,0.23205001652240753
1779996179945165300,5.457165283203125,3.7380001544952393,-0.018000001087784767,0.23205001652240753
1779996179962442200,5.474442138671875,7.7410502433776855,-0.0990000069141388,-0.13500000536441803
1779996179979719400,5.491719482421875,12.898050308227539,-0.17595000565052032,-0.544950008392334
1779996179996996400,5.508996337890625,16.3439998626709,-0.19005000591278076,-0.7570500373840332
1779996180014273300,5.526273193359375,16.05900001525879,-0.24495001137256622,-0.7309500575065613
1779996180031550200,5.54355029296875,11.85300064086914,-0.1570500135421753,-0.46095001697540283
1779996180048827400,5.560827392578125,6.838950157165527,-0.08205000311136246,-0.06599999964237213
1779996180066104300,5.578104248046875,3.504000186920166,-0.015000000596046448,0.2350500077009201
1779996180083381500,5.595381591796875,3.7960500717163086,-0.003000000026077032,0.17505000531673431
1779996180109297000,5.621296875,10.306950569152832,-0.16905000805854797,-0.33195000886917114
1779996180126574000,5.638573974609375,14.91300106048584,-0.24000000953674316,-0.625950038433075
1779996180143851000,5.65585107421875,16.70505142211914,-0.23100000619888306,-0.7429500222206116
1779996180161128200,5.673128173828125,14.20995044708252,-0.17595000565052032,-0.6520500183105469
1779996180187043600,5.699043701171875,6.95205020904541,-0.043950002640485764,-0.10395000129938126
1779996180204320500,5.716320556640625,3.66195011138916,-0.043950002640485764,0.23205001652240753
1779996180221597700,5.73359765625,3.9180002212524414,-0.05100000277161598,0.22305001318454742
1779996180247512800,5.759512939453125,10.216050148010254,-0.15195000171661377,-0.3460500240325928
1779996180264790000,5.7767900390625,14.707050323486328,-0.18495000898838043,-0.6790500283241272
1779996180282067200,5.794067138671875,16.564050674438477,-0.22395001351833344,-0.7690500617027283
1779996180307982300,5.819982421875,11.974950790405273,-0.1469999998807907,-0.48900002241134644
1779996180325259500,5.837259521484375,7.099950313568115,-0.08505000174045563,-0.10905000567436218
1779996180342536700,5.85453662109375,3.8359501361846924,-0.04905000329017639,0.22305001318454742
1779996180368452000,5.8804521484375,5.425050258636475,-0.05100000277161598,0.07695000618696213
1779996180385729000,5.89772900390625,10.101000785827637,-0.11400000751018524,-0.3360000252723694
1779996180403006200,5.915006103515625,14.521050453186035,-0.18300001323223114,-0.6430500149726868
1779996180428921600,5.940921630859375,15.754950523376465,-0.21900001168251038,-0.6829500198364258
1779996180446198500,5.958198486328125,12.006000518798828,-0.17100000381469727,-0.4729500114917755
1779996180463475700,5.975475830078125,7.23900032043457,-0.07304999977350235,-0.1279500126838684
1779996180480752600,5.992752685546875,3.979950189590454,-0.031950000673532486,0.18000000715255737
1779996180498029600,6.010029541015625,4.111050128936768,-0.05100000277161598,0.1960500031709671
1779996180523945000,6.035945068359375,10.021950721740723,-0.11805000901222229,-0.32895001769065857
1779996180541222100,6.05322216796875,14.383950233459473,-0.19995000958442688,-0.625950038433075
1779996180558499000,6.0704990234375,16.251001358032227,-0.22395001351833344,-0.7219500541687012
1779996180575776300,6.0877763671875,14.154000282287598,-0.20400001108646393,-0.6000000238418579
1779996180593053200,6.10505322265625,9.699000358581543,-0.12105000764131546,-0.30000001192092896
1779996180610330000,6.122330078125,5.410950183868408,-0.0580500029027462,0.06495000422000885
1779996180627607000,6.13960693359375,3.6760501861572266,-0.015000000596046448,0.23895001411437988
1779996180644884000,6.156884033203125,5.502000331878662,-0.043950002640485764,0.0499500036239624
1779996180662161200,6.1741611328125,9.93600082397461,-0.15195000171661377,-0.30000001192092896
1779996180679438000,6.19143798828125,14.202000617980957,-0.18105000257492065,-0.5899500250816345
1779996180696715300,6.20871533203125,16.12095069885254,-0.22605000436306,-0.7309500575065613
1779996180713992200,6.2259921875,14.152050971984863,-0.19995000958442688,-0.6139500141143799
1779996180731269400,6.243269287109375,9.823050498962402,-0.13305000960826874,-0.31995001435279846
1779996180748546300,6.26054638671875,5.5759501457214355,-0.06300000101327896,0.040950000286102295
1779996180765823200,6.2778232421875,3.8149502277374268,-0.015000000596046448,0.22305001318454742
1779996180783100400,6.295100341796875,5.550000190734863,-0.06795000284910202,0.07200000435113907
1779996180800377300,6.31237744140625,9.838050842285156,-0.10905000567436218,-0.29100000858306885
1779996180817654300,6.329654296875,14.032051086425781,-0.19005000591278076,-0.5879999995231628
1779996180843570000,6.35556982421875,15.46605110168457,-0.20400001108646393,-0.6640500426292419
1779996180860846800,6.372846923828125,12.094050407409668,-0.1399500072002411,-0.47805002331733704
1779996180878123800,6.390123779296875,7.621950149536133,-0.11100000888109207,-0.1279500126838684
1779996180895400700,6.407400634765625,4.456050395965576,-0.015000000596046448,0.16005000472068787
1779996180912678000,6.424677978515625,4.384050369262695,-0.043950002640485764,0.1770000010728836
1779996180929954800,6.441954833984375,7.492950439453125,-0.1279500126838684,-0.07800000160932541
1779996180947231700,6.459231689453125,11.943000793457031,-0.15405000746250153,-0.45600003004074097
1779996180964509000,6.476509033203125,15.26205062866211,-0.18495000898838043,-0.6739500164985657
1779996180981785900,6.493785888671875,15.38895034790039,-0.19200000166893005,-0.6739500164985657
1779996180999062800,6.511062744140625,12.147000312805176,-0.16395001113414764,-0.4849500358104706
1779996181016339700,6.528339599609375,7.782000541687012,-0.13305000960826874,-0.10395000129938126
1779996181033616600,6.54561669921875,4.6120500564575195,-0.05100000277161598,0.16305001080036163
1779996181050893800,6.562893798828125,4.444050312042236,0,0.14595000445842743
1779996181068170800,6.580170654296875,7.404000282287598,-0.07500000298023224,-0.12105000764131546
1779996181094086100,6.606086181640625,13.729050636291504,-0.22095000743865967,-0.5299500226974487
1779996181111363300,6.62336328125,15.712050437927246,-0.2569500207901001,-0.6160500049591064
1779996181128640300,6.64064013671875,14.065950393676758,-0.16905000805854797,-0.6000000238418579
1779996181154555600,6.6665556640625,7.846950531005859,-0.07304999977350235,-0.17805001139640808
1779996181171832800,6.683832763671875,4.7410502433776855,-0.027000000700354576,0.13395000994205475
1779996181189110000,6.701110107421875,4.570950031280518,-0.07800000160932541,0.20100000500679016
1779996181206387000,6.718386962890625,7.4350504875183105,-0.09405000507831573,-0.06599999964237213
1779996181223664000,6.7356640625,11.713950157165527,-0.15405000746250153,-0.43695002794265747
1779996181240941000,6.752941162109375,14.970000267028809,-0.17295001447200775,-0.6690000295639038
1779996181258218000,6.770218017578125,15.190950393676758,-0.21195000410079956,-0.6550500392913818
1779996181275495000,6.787494873046875,12.20205020904541,-0.16395001113414764,-0.4630500078201294
1779996181301410600,6.81341064453125,6.169050216674805,-0.07800000160932541,0.013950000517070293
1779996181318687500,6.8306875,4.333950042724609,-0.0580500029027462,0.20100000500679016
1779996181344603000,6.856602783203125,7.3750505447387695,-0.07304999977350235,-0.0970500037074089
1779996181361880000,6.873880126953125,11.593950271606445,-0.16095000505447388,-0.4030500054359436
1779996181379157000,6.891156982421875,14.815051078796387,-0.208950012922287,-0.6040500402450562
1779996181396434000,6.908433837890625,15.12600040435791,-0.21405000984668732,-0.6210000514984131
1779996181413711000,6.925711181640625,12.2160005569458,-0.15900000929832458,-0.4729500114917755
1779996181439626500,6.95162646484375,6.315000534057617,-0.05400000140070915,-0.010950000956654549
1779996181456903400,6.9689033203125,4.44195032119751,-0.039000000804662704,0.18405000865459442
1779996181474180400,6.986180419921875,5.748000144958496,-0.09195000678300858,0.07695000618696213
1779996181491457500,7.00345751953125,9.439949989318848,-0.13005000352859497,-0.2530499994754791
1779996181508734500,7.020734375,13.309950828552246,-0.18105000257492065,-0.527999997138977
1779996181526011400,7.038011474609375,15.270000457763672,-0.20205001533031464,-0.6499500274658203
1779996181543288600,7.05528857421875,13.96095085144043,-0.2070000171661377,-0.5680500268936157
1779996181560565500,7.0725654296875,10.314000129699707,-0.07800000160932541,-0.35805001854896545
1779996181577842400,7.089842529296875,6.418050289154053,-0.10395000129938126,0.0070500001311302185
1779996181595119400,7.107119384765625,4.594950199127197,-0.08205000311136246,0.22500000894069672
1779996181612396300,7.124396240234375,5.752950191497803,-0.034950003027915955,0.08595000207424164
1779996181629673500,7.141673583984375,9.36405086517334,-0.06795000284910202,-0.27195000648498535
1779996181646950700,7.15895068359375,13.137001037597656,-0.19500000774860382,-0.5059500336647034
1779996181664227600,7.1762275390625,15.130950927734375,-0.23100000619888306,-0.6019500494003296
1779996181690143200,7.202143310546875,12.25200080871582,-0.15405000746250153,-0.4729500114917755
1779996181707420200,7.219420166015625,8.344950675964355,-0.09405000507831573,-0.2050500065088272
1779996181724697000,7.236697021484375,5.332050323486328,-0.06300000101327896,0.08895000070333481
1779996181741974300,7.253974365234375,4.932000160217285,-0.07500000298023224,0.15300001204013824
1779996181759251200,7.271251220703125,7.36305046081543,-0.0970500037074089,-0.06599999964237213
1779996181776528100,7.288528076171875,11.238000869750977,-0.15195000171661377,-0.3720000088214874
1779996181793805000,7.30580517578125,14.386950492858887,-0.16905000805854797,-0.6190500259399414
1779996181811082200,7.323082275390625,14.845951080322266,-0.17100000381469727,-0.6430500149726868
1779996181828359200,7.340359130859375,12.300000190734863,-0.17295001447200775,-0.4510500133037567
1779996181845636000,7.357635986328125,8.434950828552246,-0.10605000704526901,-0.13095000386238098
1779996181862913000,7.3749130859375,5.4559502601623535,-0.07005000114440918,0.11700000613927841
1779996181880190000,7.39218994140625,4.980000019073486,-0.043950002640485764,0.15105000138282776
1779996181897467100,7.409467041015625,7.299000263214111,-0.046950001269578934,-0.09000000357627869
1779996181914744000,7.426744140625,11.12700080871582,-0.12495000660419464,-0.3750000298023224
1779996181932021000,7.44402099609375,14.272050857543945,-0.2070000171661377,-0.5640000104904175
1779996181949298000,7.4612978515625,14.833950996398926,-0.19005000591278076,-0.6019500494003296
1779996181966575000,7.4785751953125,12.352951049804688,-0.1660500019788742,-0.4540500342845917
1779996181983852000,7.49585205078125,8.530950546264648,-0.11805000901222229,-0.17805001139640808
1779996182001129000,7.51312890625,5.5570502281188965,-0.05400000140070915,0.07905000448226929
1779996182027044400,7.53904443359375,5.832000255584717,-0.030000001192092896,0.036000002175569534
1779996182044321500,7.556321533203125,9.153000831604004,-0.12300000339746475,-0.2070000171661377
1779996182070237000,7.58223681640625,14.158950805664062,-0.23805001378059387,-0.5179499983787537
1779996182087513900,7.599513916015625,14.719050407409668,-0.17295001447200775,-0.612000048160553
1779996182104790800,7.616790771484375,12.333000183105469,-0.1399500072002411,-0.492000013589859
1779996182122067700,7.634067626953125,8.596050262451172,-0.08700000494718552,-0.22395001351833344
1779996182139345000,7.651344970703125,5.704950332641602,-0.0799500048160553,0.09300000220537186
1779996182156621800,7.668621826171875,5.182950019836426,-0.06599999964237213,0.1579500138759613
1779996182173898800,7.685898681640625,7.315950393676758,-0.0970500037074089,-0.06105000153183937
1779996182191176000,7.703176025390625,10.966950416564941,-0.12495000660419464,-0.37905001640319824
1779996182208452900,7.720452880859375,14.004000663757324,-0.17595000565052032,-0.5730000138282776
1779996182225730000,7.73772998046875,14.652000427246094,-0.208950012922287,-0.5879999995231628
1779996182243007000,7.755007080078125,12.355051040649414,-0.16395001113414764,-0.43695002794265747
1779996182260284000,7.772283935546875,8.71500015258789,-0.09195000678300858,-0.1879500150680542
1779996182277561000,7.78956103515625,5.808000087738037,-0.0799500048160553,0.08100000023841858
1779996182294838000,7.806838134765625,5.236050128936768,-0.07005000114440918,0.11505000293254852
1779996182312115000,7.824114990234375,7.300950527191162,-0.06300000101327896,-0.07304999977350235
1779996182329391900,7.841391845703125,10.879050254821777,-0.10605000704526901,-0.35295000672340393
1779996182346668800,7.858668701171875,13.909950256347656,-0.20205001533031464,-0.5179499983787537
1779996182363946000,7.875946044921875,14.56605052947998,-0.2160000056028366,-0.5560500025749207
1779996182381223000,7.893222900390625,12.343050956726074,-0.16395001113414764,-0.44895002245903015
1779996182398499800,7.910499755859375,8.779950141906738,-0.0990000069141388,-0.19500000774860382
1779996182415776800,7.92777685546875,5.8969502449035645,-0.07005000114440918,0.04605000093579292
1779996182433054000,7.945053955078125,5.302950382232666,-0.05400000140070915,0.11700000613927841
1779996182450331000,7.962330810546875,7.311000347137451,-0.09000000357627869,-0.08295000344514847
1779996182467607800,7.97960791015625,10.821000099182129,-0.1489500105381012,-0.3360000252723694
1779996182493523200,8.005523193359375,14.491950988769531,-0.19500000774860382,-0.5730000138282776
1779996182510800100,8.022800048828126,13.70205020904541,-0.17805001139640808,-0.5400000214576721
1779996182528077000,8.0400771484375,10.72800064086914,-0.12300000339746475,-0.35805001854896545
1779996182545354000,8.05735400390625,7.270050525665283,-0.07800000160932541,-0.07800000160932541
1779996182562631200,8.074631103515625,5.350950241088867,-0.06599999964237213,0.1270500123500824
1779996182579908000,8.091908203125,6.007050514221191,-0.07005000114440918,0.08100000023841858
1779996182605823700,8.11782373046875,10.7160005569458,-0.13500000536441803,-0.3240000009536743
1779996182623100700,8.1351005859375,13.62600040435791,-0.17805001139640808,-0.5419500470161438
1779996182640377600,8.152377685546876,14.406001091003418,-0.18300001323223114,-0.5850000381469727
1779996182657654500,8.169654541015625,12.369000434875488,-0.15405000746250153,-0.44895002245903015
1779996182674931500,8.186931396484376,8.976000785827637,-0.1279500126838684,-0.18105000257492065
1779996182692208600,8.204208740234375,6.153000354766846,-0.07304999977350235,0.05505000427365303
1779996182709485600,8.221485595703125,5.458950042724609,-0.039000000804662704,0.11295000463724136
1779996182735401000,8.24740087890625,8.875950813293457,-0.08205000311136246,-0.1980000138282776
1779996182752678000,8.264677978515625,12.259050369262695,-0.17100000381469727,-0.44895002245903015
1779996182769954800,8.281954833984376,14.257050514221191,-0.21195000410079956,-0.5400000214576721
1779996182787231700,8.299231689453125,13.623001098632812,-0.19005000591278076,-0.5040000081062317
1779996182804509000,8.316509033203126,10.85205078125,-0.13305000960826874,-0.3630000054836273
1779996182821786000,8.3337861328125,7.5169501304626465,-0.06105000153183937,-0.11595000326633453
1779996182839063000,8.35106298828125,5.566050052642822,-0.046950001269578934,0.07395000010728836
1779996182856340000,8.368340087890624,6.1050004959106445,-0.08205000311136246,0.07395000010728836
1779996182873617200,8.3856171875,8.827950477600098,-0.13695000112056732,-0.1469999998807907
1779996182890894000,8.40289404296875,12.147000312805176,-0.16905000805854797,-0.42195001244544983
1779996182908171000,8.4201708984375,14.133000373840332,-0.16095000505447388,-0.5850000381469727
1779996182925448000,8.437447998046874,13.585050582885742,-0.15195000171661377,-0.5539500117301941
1779996182942724900,8.454724853515625,10.912050247192383,-0.1660500019788742,-0.34800001978874207
1779996182960001800,8.472001708984376,7.660050392150879,-0.10395000129938126,-0.06105000153183937
1779996182977279000,8.489279052734375,5.662050247192383,-0.05595000088214874,0.1080000028014183
1779996182994556000,8.506555908203126,6.100050449371338,-0.043950002640485764,0.031050002202391624
1779996183011832800,8.523832763671875,8.734950065612793,-0.10200000554323196,-0.19305001199245453
1779996183029109800,8.54110986328125,12.027000427246094,-0.13500000536441803,-0.4320000112056732
1779996183046386700,8.55838671875,14.080050468444824,-0.19995000958442688,-0.5110500454902649
1779996183063663900,8.575663818359375,13.587000846862793,-0.2070000171661377,-0.48000001907348633
1779996183080940800,8.59294091796875,10.954950332641602,-0.12105000764131546,-0.35100001096725464
1779996183098217500,8.610217529296875,7.70805025100708,-0.06300000101327896,-0.12600000202655792
1779996183124132900,8.6361328125,5.641050338745117,-0.07005000114440918,0.1099500060081482
1779996183141410000,8.65341015625,7.237050533294678,-0.0990000069141388,-0.025050001218914986
1779996183158687200,8.670687255859375,10.374000549316406,-0.15900000929832458,-0.30300000309944153
1779996183175964200,8.687964111328125,13.188000679016113,-0.18105000257492065,-0.5040000081062317
1779996183193240800,8.70524072265625,14.134950637817383,-0.17595000565052032,-0.5590500235557556
1779996183210518000,8.72251806640625,12.484050750732422,-0.15195000171661377,-0.4630500078201294
1779996183227795000,8.739794921875,9.34005069732666,-0.08700000494718552,-0.21900001168251038
1779996183245072100,8.757072021484374,6.535050392150879,-0.11595000326633453,0.037950001657009125
1779996183270987500,8.782987548828125,6.154950141906738,-0.07005000114440918,0.06195000186562538
1779996183288264400,8.800264404296875,8.65095043182373,-0.0990000069141388,-0.16905000805854797
1779996183305541000,8.817541015625,11.850000381469727,-0.15195000171661377,-0.40800002217292786
1779996183322818300,8.834818359375,13.909950256347656,-0.13305000960826874,-0.5490000247955322
1779996183340095200,8.85209521484375,13.531950950622559,-0.19995000958442688,-0.47505003213882446
1779996183357372200,8.8693720703125,11.03700065612793,-0.1879500150680542,-0.31995001435279846
1779996183374649300,8.8866494140625,7.8949503898620605,-0.06795000284910202,-0.0990000069141388
1779996183400564700,8.912564697265625,5.734050273895264,-0.034950003027915955,0.06195000186562538
1779996183417841700,8.929841552734375,7.198050498962402,-0.08205000311136246,-0.016050001606345177
1779996183435118600,8.94711865234375,10.233000755310059,-0.16905000805854797,-0.24105000495910645
1779996183461034000,8.973033935546875,13.812000274658203,-0.1570500135421753,-0.5590500235557556
1779996183478311200,8.990311279296876,13.518000602722168,-0.15405000746250153,-0.5520000457763672
1779996183495588000,9.007588134765625,11.119950294494629,-0.16095000505447388,-0.3550500273704529
1779996183521503500,9.03350341796875,6.748050212860107,-0.11100000888109207,0.024000000208616257
1779996183538780400,9.050780517578126,5.821950435638428,-0.06599999964237213,0.08400000631809235
1779996183556057300,9.068057373046875,7.189050197601318,-0.06300000101327896,-0.06599999964237213
1779996183573334300,9.085334228515626,10.099050521850586,-0.1399500072002411,-0.27195000648498535
1779996183590611500,9.102611572265625,12.868950843811035,-0.17295001447200775,-0.4630500078201294
1779996183607888400,9.119888427734375,13.933950424194336,-0.1879500150680542,-0.5179499983787537
1779996183633803800,9.1458037109375,11.182050704956055,-0.1570500135421753,-0.3550500273704529
1779996183651080700,9.163080810546875,8.11500072479248,-0.07800000160932541,-0.14505000412464142
1779996183668357600,9.180357666015626,6.100050449371338,-0.07005000114440918,0.0690000057220459
1779996183685634600,9.197634521484375,6.2440505027771,-0.06599999964237213,0.05505000427365303
1779996183702911700,9.214911865234376,8.48805046081543,-0.11595000326633453,-0.12600000202655792
1779996183720188700,9.232188720703125,11.556000709533691,-0.1570500135421753,-0.3769500255584717
1779996183737465600,9.249465576171875,13.635000228881836,-0.16095000505447388,-0.5179499983787537
1779996183754742500,9.266742431640624,13.492050170898438,-0.18495000898838043,-0.5179499983787537
1779996183772019500,9.28401953125,11.221050262451172,-0.14205001294612885,-0.35100001096725464
1779996183789296400,9.30129638671875,8.212950706481934,-0.07304999977350235,-0.12600000202655792
1779996183815211800,9.327211669921875,5.92995023727417,-0.0970500037074089,0.1080000028014183
1779996183832489000,9.344489013671875,7.147950172424316,-0.07005000114440918,-0.022950001060962677
1779996183849766000,9.361765869140624,9.943050384521484,-0.09195000678300858,-0.29295000433921814
1779996183875681300,9.387681396484375,13.558950424194336,-0.16095000505447388,-0.544950008392334
1779996183892958200,9.404958251953126,13.50105094909668,-0.1969500035047531,-0.49695003032684326
1779996183910235100,9.422235107421875,11.271000862121582,-0.18300001323223114,-0.32895001769065857
1779996183927512000,9.439511962890625,8.308950424194336,-0.11100000888109207,-0.11595000326633453
1779996183944789000,9.4567890625,6.246000289916992,-0.030000001192092896,0.004950000438839197
1779996183962066000,9.47406591796875,6.279000282287598,-0.019950000569224358,0.010050000622868538
1779996183979342800,9.4913427734375,8.397000312805176,-0.10395000129938126,-0.10905000567436218
1779996183996619800,9.508619873046875,11.379000663757324,-0.2070000171661377,-0.29100000858306885
1779996184013897000,9.52589697265625,13.46505069732666,-0.19500000774860382,-0.46800002455711365
1779996184039812400,9.551812255859375,12.556050300598145,-0.14205001294612885,-0.49695003032684326
1779996184057089300,9.56908935546875,9.82800006866455,-0.10395000129938126,-0.28395000100135803
1779996184074366200,9.5863662109375,7.183950424194336,-0.11100000888109207,-0.010950000956654549
1779996184091643100,9.60364306640625,6.093000411987305,-0.06105000153183937,0.1080000028014183
1779996184108920000,9.620920166015624,7.171950340270996,-0.0799500048160553,-0.018000001087784767
1779996184126197200,9.638197265625,9.795000076293945,-0.1399500072002411,-0.24300001561641693
1779996184143474000,9.655473876953126,12.439050674438477,-0.15405000746250153,-0.43905001878738403
1779996184160751000,9.672751220703125,13.611001014709473,-0.1660500019788742,-0.5130000114440918
1779996184178028000,9.690028076171876,12.541950225830078,-0.1570500135421753,-0.46800002455711365
1779996184195305000,9.707304931640625,9.949950218200684,-0.12495000660419464,-0.2689500153064728
1779996184212582000,9.724581787109376,7.323000431060791,-0.08205000311136246,-0.04905000329017639
1779996184238497500,9.75049755859375,6.436950206756592,-0.07005000114440918,0.04605000093579292
1779996184255774500,9.7677744140625,8.308950424194336,-0.11595000326633453,-0.12105000764131546
1779996184273051400,9.785051513671876,11.122950553894043,-0.13305000960826874,-0.35100001096725464
1779996184290328300,9.802328369140625,13.188000679016113,-0.17805001139640808,-0.46800002455711365
1779996184307605200,9.819605224609376,13.32705020904541,-0.19200000166893005,-0.47505003213882446
1779996184324882200,9.836882080078125,11.38800048828125,-0.1279500126838684,-0.3630000054836273
1779996184350797600,9.862797607421875,7.411050319671631,-0.0990000069141388,-0.046950001269578934
1779996184368074500,9.880074462890626,6.2820000648498535,-0.11100000888109207,0.08100000023841858
1779996184393990000,9.905989990234374,8.305950164794922,-0.07005000114440918,-0.13305000960826874
1779996184411266800,9.923266845703125,11.050950050354004,-0.13005000352859497,-0.3630000054836273
1779996184428543700,9.940543701171874,13.105950355529785,-0.21900001168251038,-0.45600003004074097
1779996184454459100,9.966459228515625,12.53895092010498,-0.17100000381469727,-0.42705002427101135
1779996184471736000,9.983736083984375,10.060050010681152,-0.0990000069141388,-0.29100000858306885
1779996184489013000,10.001012939453124,7.497000217437744,-0.09000000357627869,-0.08700000494718552
1779996184514928400,10.026928466796875,6.531000137329102,-0.08205000311136246,0.05505000427365303
1779996184532205300,10.044205322265626,8.299050331115723,-0.10605000704526901,-0.09000000357627869
1779996184549482200,10.061482177734375,10.96500015258789,-0.13500000536441803,-0.3169500231742859
1779996184566759400,10.078759521484375,12.984000205993652,-0.16905000805854797,-0.47505003213882446
1779996184592674800,10.1046748046875,12.481950759887695,-0.1489500105381012,-0.43695002794265747
1779996184609951700,10.12195166015625,10.129950523376465,-0.13005000352859497,-0.2650500237941742
1779996184627228700,10.139228759765626,7.629000186920166,-0.0990000069141388,-0.05895000323653221
1779996184644505600,10.156505615234375,6.459000110626221,-0.09405000507831573,0.06000000238418579
1779996184661782500,10.173782470703125,7.216950416564941,-0.06795000284910202,-0.031950000673532486
1779996184679059500,10.1910595703125,9.531000137329102,-0.0799500048160553,-0.23100000619888306
1779996184704974800,10.216974853515625,12.889050483703613,-0.1879500150680542,-0.4320000112056732
1779996184722251800,10.234251708984376,13.153950691223145,-0.17805001139640808,-0.4459500312805176
1779996184739528700,10.25152880859375,11.494050979614258,-0.13005000352859497,-0.37005001306533813
1779996184765444000,10.277444091796875,7.70805025100708,-0.10395000129938126,-0.07800000160932541
1779996184782721300,10.29472119140625,6.5209503173828125,-0.07304999977350235,0.036000002175569534
1779996184799998000,10.311998046875,7.240950107574463,-0.08205000311136246,-0.010950000956654549
1779996184817275100,10.329275146484376,9.498000144958496,-0.14205001294612885,-0.2070000171661377
1779996184834552000,10.346552001953125,11.946000099182129,-0.1469999998807907,-0.38895002007484436
1779996184851829000,10.3638291015625,13.213950157165527,-0.15900000929832458,-0.49695003032684326
1779996184869106000,10.38110595703125,12.469950675964355,-0.17295001447200775,-0.4320000112056732
1779996184886382800,10.3983828125,10.234950065612793,-0.1570500135421753,-0.2530499994754791
1779996184903659800,10.41565966796875,7.81095027923584,-0.0970500037074089,-0.06105000153183937
1779996184920936400,10.4329365234375,6.592950344085693,-0.07500000298023224,0.025950001552700996
1779996184938213600,10.450213623046874,7.249050140380859,-0.05100000277161598,-0.05895000323653221
1779996184955490300,10.467490234375,9.409049987792969,-0.09405000507831573,-0.22095000743865967
1779996184972767200,10.484767333984376,11.878950119018555,-0.1570500135421753,-0.37005001306533813
1779996184998683000,10.510682861328124,13.047000885009766,-0.21195000410079956,-0.4440000355243683
1779996185015959600,10.52795947265625,11.517000198364258,-0.17595000565052032,-0.3460500240325928
1779996185033236500,10.545236572265624,9.010050773620605,-0.05400000140070915,-0.20205001533031464
1779996185050513400,10.562513427734375,7.05495023727417,-0.06599999964237213,-0.028050001710653305
1779996185067790600,10.57979052734375,6.721950531005859,-0.034950003027915955,0.010050000622868538
1779996185085067500,10.597067626953125,8.19105052947998,-0.10395000129938126,-0.06795000284910202
1779996185102344400,10.614344482421876,10.675050735473633,-0.15195000171661377,-0.2740500271320343
1779996185119621400,10.631621337890625,12.606000900268555,-0.16395001113414764,-0.42195001244544983
1779996185145536800,10.657536865234375,12.424050331115723,-0.17295001447200775,-0.43695002794265747
1779996185162813700,10.674813720703124,10.330950736999512,-0.11100000888109207,-0.2959500253200531
1779996185180090600,10.692090576171875,8.019000053405762,-0.0970500037074089,-0.0970500037074089
1779996185197367600,10.709367431640626,6.763050556182861,-0.07304999977350235,0.010050000622868538
1779996185223283000,10.735282958984374,8.19105052947998,-0.13305000960826874,-0.09000000357627869
1779996185240559900,10.752559814453125,10.575000762939453,-0.12495000660419464,-0.286050021648407
1779996185257836800,10.7698369140625,12.51300048828125,-0.13695000112056732,-0.43905001878738403
1779996185275113700,10.78711376953125,12.898050308227539,-0.16905000805854797,-0.45795002579689026
1779996185292390700,10.804390625,11.556000709533691,-0.20205001533031464,-0.34095001220703125
1779996185309667600,10.82166748046875,9.208050727844238,-0.0799500048160553,-0.17595000565052032
1779996185326944500,10.838944580078126,7.258050441741943,-0.06105000153183937,-0.037050001323223114
1779996185344221400,10.856221435546875,6.826950550079346,-0.10605000704526901,0.019050000235438347
1779996185361498000,10.873498046875,8.151000022888184,-0.09195000678300858,-0.09000000357627869
1779996185378775000,10.890775146484375,10.495950698852539,-0.10605000704526901,-0.286050021648407
1779996185396052000,10.908052001953125,12.405000686645508,-0.1489500105381012,-0.4300500154495239
1779996185413329000,10.925328857421874,12.87405014038086,-0.18495000898838043,-0.4510500133037567
1779996185430605800,10.942605712890625,11.56095027923584,-0.1660500019788742,-0.3439500033855438
1779996185447882800,10.9598828125,9.280050277709961,-0.1279500126838684,-0.19995000958442688
1779996185465159700,10.97715966796875,7.354050159454346,-0.08205000311136246,-0.05895000323653221
1779996185482436600,10.9944365234375,6.88200044631958,-0.043950002640485764,-0.010950000956654549
1779996185499713500,11.011713623046875,8.152950286865234,-0.11595000326633453,-0.07605000585317612
1779996185516990500,11.028990478515626,10.4170503616333,-0.1570500135421753,-0.2550000250339508
1779996185534267400,11.046267333984375,12.349950790405273,-0.15405000746250153,-0.42000001668930054
1779996185551544300,11.06354443359375,12.79995059967041,-0.17805001139640808,-0.45600003004074097
1779996185568821200,11.0808212890625,11.556000709533691,-0.13005000352859497,-0.3750000298023224
1779996185586098200,11.09809814453125,9.33495044708252,-0.11595000326633453,-0.18105000257492065
1779996185603375000,11.115375,7.45395040512085,-0.10605000704526901,-0.022950001060962677
1779996185620652000,11.132652099609375,6.946950435638428,-0.07005000114440918,0
1779996185637929000,11.149928955078124,8.152950286865234,-0.06105000153183937,-0.12600000202655792
1779996185655206000,11.167205810546875,10.354950904846191,-0.14205001294612885,-0.27900001406669617
1779996185672482800,11.18448291015625,12.277950286865234,-0.19500000774860382,-0.3720000088214874
1779996185698398200,11.210398193359374,12.352951049804688,-0.15900000929832458,-0.4300500154495239
1779996185715675100,11.227675048828125,10.52400016784668,-0.0990000069141388,-0.3169500231742859
1779996185732952000,11.2449521484375,8.320950508117676,-0.0990000069141388,-0.12300000339746475
1779996185750228700,11.262228759765625,7.086000442504883,-0.11595000326633453,0.010050000622868538
1779996185767506000,11.279505859375,7.404000282287598,-0.09195000678300858,-0.028050001710653305
1779996185784782800,11.296782958984375,9.169950485229492,-0.09195000678300858,-0.21000000834465027
1779996185802059500,11.3140595703125,11.319000244140625,-0.1489500105381012,-0.35295000672340393
1779996185819336400,11.33133642578125,12.657000541687012,-0.18495000898838043,-0.41505002975463867
1779996185836613400,11.34861328125,12.340950965881348,-0.17100000381469727,-0.3940500319004059
1779996185853890300,11.365890380859375,10.584000587463379,-0.12300000339746475,-0.3049500286579132
1779996185879805700,11.3918056640625,7.606950283050537,-0.05100000277161598,-0.09495000541210175
1779996185897082600,11.40908251953125,7.062000274658203,-0.08505000174045563,0.0070500001311302185
1779996185914359600,11.426359619140625,8.136000633239746,-0.14205001294612885,-0.043950002640485764
1779996185940274700,11.452274658203125,11.227950096130371,-0.1489500105381012,-0.3270000219345093
1779996185957551600,11.469551513671876,12.553950309753418,-0.1489500105381012,-0.4459500312805176
1779996185974828500,11.48682861328125,12.289950370788574,-0.12105000764131546,-0.4300500154495239
1779996185992105500,11.50410546875,10.639050483703613,-0.15900000929832458,-0.28395000100135803
1779996186009382400,11.52138232421875,8.517000198364258,-0.13005000352859497,-0.09495000541210175
1779996186026659300,11.538659423828125,7.204950332641602,-0.0970500037074089,-0.006000000052154064
1779996186052574500,11.564574462890626,8.104949951171875,-0.07500000298023224,-0.12300000339746475
1779996186069851400,11.581851318359375,10.16295051574707,-0.13305000960826874,-0.25995001196861267
1779996186087128300,11.59912841796875,12.015000343322754,-0.15900000929832458,-0.3769500255584717
1779996186104405200,11.6164052734375,12.621000289916992,-0.15195000171661377,-0.42195001244544983
1779996186121682200,11.63368212890625,11.605950355529785,-0.1570500135421753,-0.3550500273704529
1779996186138959000,11.650958984375,9.59595012664795,-0.14505000412464142,-0.19995000958442688
1779996186156236000,11.668236083984375,7.7749505043029785,-0.0799500048160553,-0.06795000284910202
1779996186173513000,11.685512939453124,7.150050163269043,-0.08205000311136246,-0.031950000673532486
1779996186190790000,11.702789794921875,8.116950035095215,-0.06300000101327896,-0.10905000567436218
1779996186208066800,11.72006689453125,10.102950096130371,-0.13695000112056732,-0.24795001745224
1779996186233982200,11.745982177734374,12.456000328063965,-0.19200000166893005,-0.36705002188682556
1779996186251259000,11.7632587890625,12.244950294494629,-0.15405000746250153,-0.41100001335144043
1779996186268535800,11.780535888671874,10.668000221252441,-0.0799500048160553,-0.35295000672340393
1779996186285812700,11.797812744140625,8.622000694274902,-0.10905000567436218,-0.1660500019788742
1779996186303089700,11.815089599609376,7.387050151824951,-0.12105000764131546,0.0070500001311302185
1779996186320366600,11.83236669921875,7.52400016784668,-0.11400000751018524,0.0019500000635161996
1779996186337643500,11.8496435546875,9.028950691223145,-0.13005000352859497,-0.1399500072002411
1779996186354920400,11.86692041015625,11.008050918579102,-0.11595000326633453,-0.35100001096725464
1779996186372197400,11.884197265625,12.322051048278809,-0.14205001294612885,-0.4320000112056732
1779996186389474300,11.901474365234375,12.235050201416016,-0.17595000565052032,-0.4030500054359436
1779996186406751200,11.918751220703125,10.741950035095215,-0.1469999998807907,-0.286050021648407
1779996186424028000,11.93602783203125,8.767950057983398,-0.13305000960826874,-0.12105000764131546
1779996186441304800,11.953304931640625,7.4160003662109375,-0.07500000298023224,-0.037050001323223114
1779996186458581800,11.970581787109374,7.507050514221191,-0.06795000284910202,-0.07095000147819519
1779996186484497200,11.9964970703125,9.957000732421875,-0.13500000536441803,-0.24300001561641693
1779996186501773800,12.01377392578125,11.761950492858887,-0.14505000412464142,-0.35295000672340393
1779996186519050800,12.03105078125,12.451050758361816,-0.19500000774860382,-0.38700002431869507
1779996186536327700,12.04832763671875,11.587050437927246,-0.15195000171661377,-0.34800001978874207
1779996186553604600,12.0656044921875,9.747000694274902,-0.0970500037074089,-0.2569500207901001
1779996186570881500,12.082881591796875,7.981050491333008,-0.08205000311136246,-0.11100000888109207
1779996186588158500,12.100158447265626,7.344000339508057,-0.07800000160932541,-0.016050001606345177
1779996186614073600,12.126073486328124,8.964000701904297,-0.13305000960826874,-0.11400000751018524
1779996186631350500,12.1433505859375,10.849950790405273,-0.11400000751018524,-0.3169500231742859
1779996186648627500,12.16062744140625,12.21405029296875,-0.16905000805854797,-0.4339500069618225
1779996186683181300,12.195181396484376,10.777950286865234,-0.15405000746250153,-0.2770500183105469
1779996186700458200,12.212458251953125,8.871000289916992,-0.10395000129938126,-0.1399500072002411
1779996186717735200,12.229735107421876,7.548000335693359,-0.08205000311136246,-0.05895000323653221
1779996186735011800,12.24701171875,7.581000328063965,-0.0970500037074089,-0.04905000329017639
1779996186752288800,12.264288818359375,8.9239501953125,-0.11400000751018524,-0.1469999998807907
1779996186769565700,12.281565673828124,10.843050956726074,-0.1399500072002411,-0.286050021648407
1779996186786842400,12.29884228515625,12.156000137329102,-0.14505000412464142,-0.38700002431869507
1779996186812757800,12.3247578125,11.613000869750977,-0.16395001113414764,-0.3630000054836273
1779996186830034700,12.34203466796875,9.835050582885742,-0.11100000888109207,-0.22605000436306
1779996186847311600,12.3593115234375,8.131950378417969,-0.10905000567436218,-0.09195000678300858
1779996186864588300,12.37658837890625,7.405950546264648,-0.09195000678300858,-0.030000001192092896
1779996186881865200,12.393865234375,8.119950294494629,-0.07005000114440918,-0.10395000129938126
1779996186899142100,12.41114208984375,9.847050666809082,-0.11805000901222229,-0.22905001044273376
1779996186916419000,12.428419189453125,11.575050354003906,-0.16095000505447388,-0.33195000886917114
1779996186933696000,12.445696044921876,12.301950454711914,-0.17100000381469727,-0.3720000088214874
1779996186950972700,12.46297265625,11.587050437927246,-0.15900000929832458,-0.3460500240325928
1779996186968249600,12.48024951171875,9.87405014038086,-0.10395000129938126,-0.2530499994754791
1779996186994165000,12.5061650390625,7.663050174713135,-0.07500000298023224,-0.05595000088214874
1779996187011442000,12.52344189453125,7.630950450897217,-0.0970500037074089,-0.043950002640485764
1779996187028718800,12.54071875,8.89995002746582,-0.13305000960826874,-0.1570500135421753
1779996187045995800,12.557995849609375,10.744950294494629,-0.11400000751018524,-0.31005001068115234
1779996187063272700,12.575272705078126,12.067950248718262,-0.15195000171661377,-0.4030500054359436
1779996187080549400,12.59254931640625,12.088950157165527,-0.15405000746250153,-0.3960000276565552
1779996187097826300,12.609826416015625,10.81605052947998,-0.1399500072002411,-0.2880000174045563
1779996187115103200,12.627103271484375,9.010050773620605,-0.10905000567436218,-0.17100000381469727
1779996187132380200,12.644380126953125,7.702950477600098,-0.08505000174045563,-0.06105000153183937
1779996187149657000,12.661656982421874,7.654950141906738,-0.10200000554323196,-0.04200000315904617
1779996187166934000,12.67893408203125,8.866050720214844,-0.10605000704526901,-0.13500000536441803
1779996187184210700,12.696210693359374,10.654050827026367,-0.12300000339746475,-0.2689500153064728
1779996187201487600,12.713487548828125,11.97900104522705,-0.15405000746250153,-0.3750000298023224
1779996187218764500,12.7307646484375,12.037050247192383,-0.1570500135421753,-0.3820500075817108
1779996187236041500,12.74804150390625,10.84695053100586,-0.1399500072002411,-0.29805001616477966
1779996187253318400,12.765318359375,9.058050155639648,-0.11805000901222229,-0.16200000047683716
1779996187270595000,12.782594970703125,7.794000148773193,-0.10605000704526901,-0.05400000140070915
1779996187287872000,12.7998720703125,7.702950477600098,-0.05595000088214874,-0.06599999964237213
1779996187305148700,12.817148681640624,8.859000205993652,-0.10395000129938126,-0.16200000047683716
1779996187322425600,12.834425537109375,10.615050315856934,-0.1399500072002411,-0.2689500153064728
1779996187339702500,12.85170263671875,11.92905044555664,-0.15900000929832458,-0.3769500255584717
1779996187356979500,12.8689794921875,12.046051025390625,-0.15195000171661377,-0.3720000088214874
1779996187374256400,12.88625634765625,10.857000350952148,-0.1570500135421753,-0.29295000433921814
1779996187391533300,12.903533203125,9.120000839233398,-0.10395000129938126,-0.18300001323223114
1779996187408810000,12.92081005859375,7.825050354003906,-0.08205000311136246,-0.0799500048160553
1779996187426087000,12.9380869140625,7.710000514984131,-0.10200000554323196,-0.046950001269578934
1779996187443363600,12.955363525390625,8.836950302124023,-0.14505000412464142,-0.13500000536441803
1779996187460640500,12.972640625,10.572000503540039,-0.12495000660419464,-0.28095000982284546
1779996187477917400,12.98991748046875,11.884050369262695,-0.15195000171661377,-0.364950031042099
1779996187495194400,13.0071943359375,12.010050773620605,-0.1570500135421753,-0.3820500075817108
1779996187512471000,13.024470947265625,10.879050254821777,-0.12495000660419464,-0.3150000274181366
1779996187529748000,13.041748046875,9.184050559997559,-0.11100000888109207,-0.18300001323223114
1779996187555663400,13.067663330078124,7.657950401306152,-0.10605000704526901,-0.030000001192092896
1779996187572940300,13.084940185546875,8.163000106811523,-0.10395000129938126,-0.07095000147819519
1779996187590217200,13.10221728515625,9.655950546264648,-0.10200000554323196,-0.21405000984668732
1779996187607494000,13.119493896484375,11.248950958251953,-0.14505000412464142,-0.3340500295162201
1779996187624770800,13.136770751953126,12.049050331115723,-0.15900000929832458,-0.3960000276565552
1779996187650686200,13.162686279296874,10.900050163269043,-0.14505000412464142,-0.29805001616477966
1779996187667963000,13.179962890625,9.237000465393066,-0.13500000536441803,-0.18105000257492065
1779996187685240000,13.197239990234374,7.954050540924072,-0.07800000160932541,-0.10395000129938126
1779996187702516700,13.214516845703125,7.786950588226318,-0.09000000357627869,-0.06795000284910202
1779996187719793700,13.231793701171876,8.806050300598145,-0.10905000567436218,-0.1399500072002411
1779996187737070600,13.249070556640625,10.443000793457031,-0.1469999998807907,-0.24495001137256622
1779996187754347500,13.266347412109376,11.742000579833984,-0.1660500019788742,-0.3439500033855438
1779996187780262700,13.2922626953125,11.53695011138916,-0.13305000960826874,-0.3550500273704529
1779996187797539600,13.30953955078125,10.12695026397705,-0.1279500126838684,-0.2550000250339508
1779996187814816500,13.32681640625,8.554950714111328,-0.07800000160932541,-0.12105000764131546
1779996187840731600,13.352731689453124,7.818000316619873,-0.11100000888109207,-0.025050001218914986
1779996187858008600,13.370008544921875,8.7610502243042,-0.10905000567436218,-0.12600000202655792
1779996187875285500,13.387285400390626,10.374000549316406,-0.13005000352859497,-0.26205000281333923
1779996187892562400,13.4045625,11.665950775146484,-0.13695000112056732,-0.36705002188682556
1779996187909839400,13.42183935546875,11.91195011138916,-0.12495000660419464,-0.3910500109195709
1779996187927116000,13.439115966796875,10.942950248718262,-0.1279500126838684,-0.30300000309944153
1779996187953031400,13.465031494140625,8.635950088500977,-0.1399500072002411,-0.12105000764131546
1779996187970308400,13.482308349609376,7.777050495147705,-0.07304999977350235,-0.07800000160932541
1779996187987585000,13.4995849609375,8.164950370788574,-0.09195000678300858,-0.11400000751018524
1779996188013500400,13.52550048828125,10.335000038146973,-0.1279500126838684,-0.25005000829696655
1779996188030777300,13.54277734375,11.63700008392334,-0.17100000381469727,-0.3240000009536743
1779996188048054300,13.56005419921875,11.874000549316406,-0.1469999998807907,-0.364950031042099
1779996188065331000,13.5773310546875,10.930950164794922,-0.16095000505447388,-0.31995001435279846
1779996188082607900,13.59460791015625,9.382950782775879,-0.13005000352859497,-0.2050500065088272
1779996188099884500,13.611884521484376,8.124000549316406,-0.08505000174045563,-0.09195000678300858
1779996188117161500,13.629161376953125,7.9069504737854,-0.09195000678300858,-0.06795000284910202
1779996188134438400,13.6464384765625,8.779950141906738,-0.11400000751018524,-0.1189500093460083
1779996188151715300,13.66371533203125,10.290000915527344,-0.12105000764131546,-0.2569500207901001
1779996188168992300,13.6809921875,11.533950805664062,-0.16905000805854797,-0.35100001096725464
1779996188186269000,13.69826904296875,11.805000305175781,-0.1570500135421753,-0.3769500255584717
1779996188203545600,13.715545654296875,10.950000762939453,-0.12105000764131546,-0.32895001769065857
1779996188220822500,13.732822509765626,9.463950157165527,-0.11400000751018524,-0.19005000591278076
1779996188238099500,13.750099365234375,8.23905086517334,-0.10605000704526901,-0.07605000585317612
1779996188264014800,13.776014892578125,8.212950706481934,-0.09405000507831573,-0.07800000160932541
1779996188281291800,13.793291748046874,9.448050498962402,-0.1399500072002411,-0.18300001323223114
1779996188298568400,13.810568359375,10.914000511169434,-0.14205001294612885,-0.29295000433921814
1779996188315845400,13.827845458984376,11.778000831604004,-0.15900000929832458,-0.35805001854896545
1779996188333122000,13.8451220703125,11.500950813293457,-0.1489500105381012,-0.34800001978874207
1779996188350399000,13.86239892578125,10.266000747680664,-0.0990000069141388,-0.28395000100135803
1779996188367676200,13.87967626953125,8.835000038146973,-0.12495000660419464,-0.14295001327991486
1779996188384952800,13.896952880859375,8.005050659179688,-0.13500000536441803,-0.046950001269578934
1779996188402229800,13.914229736328124,8.242050170898438,-0.11805000901222229,-0.07304999977350235
1779996188419506400,13.93150634765625,9.394950866699219,-0.07304999977350235,-0.21900001168251038
1779996188436783400,13.948783447265624,10.86405086517334,-0.10200000554323196,-0.3240000009536743
1779996188454060000,13.96606005859375,11.713950157165527,-0.1660500019788742,-0.34095001220703125
1779996188471337000,13.9833369140625,11.509950637817383,-0.17100000381469727,-0.30000001192092896
1779996188488614000,14.00061376953125,10.300050735473633,-0.13500000536441803,-0.22905001044273376
1779996188505890800,14.017890869140626,8.851950645446777,-0.09405000507831573,-0.15405000746250153
1779996188523167500,14.03516748046875,8.005050659179688,-0.06300000101327896,-0.10395000129938126
1779996188540444400,14.0524443359375,8.236949920654297,-0.0970500037074089,-0.08700000494718552
1779996188557721300,14.069721435546874,9.412050247192383,-0.11595000326633453,-0.17595000565052032
1779996188574998000,14.086998046875,10.837950706481934,-0.1489500105381012,-0.2770500183105469
1779996188592275200,14.104275146484374,11.69895076751709,-0.18105000257492065,-0.33900001645088196
1779996188609552000,14.1215517578125,11.455050468444824,-0.13695000112056732,-0.34800001978874207
1779996188626828800,14.138828857421874,10.314000129699707,-0.11400000751018524,-0.2880000174045563
1779996188644105500,14.15610546875,8.892000198364258,-0.0970500037074089,-0.1660500019788742
1779996188661382400,14.17338232421875,8.068950653076172,-0.0970500037074089,-0.06599999964237213
1779996188678659000,14.1906591796875,8.272950172424316,-0.15405000746250153,-0.05595000088214874
1779996188704574500,14.216574462890625,10.099050521850586,-0.10200000554323196,-0.24495001137256622
1779996188721851400,14.233851318359376,11.320950508117676,-0.1279500126838684,-0.3550500273704529
1779996188739128000,14.251128173828125,11.68005084991455,-0.15195000171661377,-0.3550500273704529
1779996188765043500,14.27704345703125,10.338000297546387,-0.1489500105381012,-0.24495001137256622
1779996188782320400,14.2943203125,8.962050437927246,-0.11805000901222229,-0.15900000929832458
1779996188799597300,14.311597412109375,8.110050201416016,-0.07800000160932541,-0.10905000567436218
1779996188816874000,14.3288740234375,8.299050331115723,-0.11100000888109207,-0.10395000129938126
1779996188834151000,14.34615087890625,9.366000175476074,-0.10395000129938126,-0.17400000989437103
1779996188851427800,14.363427734375,10.753950119018555,-0.15405000746250153,-0.28095000982284546
1779996188868704500,14.38070458984375,11.575050354003906,-0.15405000746250153,-0.3360000252723694
1779996188885981400,14.3979814453125,11.422050476074219,-0.14205001294612885,-0.3439500033855438
1779996188903258000,14.415258056640624,10.350000381469727,-0.11100000888109207,-0.26205000281333923
1779996188929173500,14.441173583984375,8.493000030517578,-0.10905000567436218,-0.0799500048160553
1779996188946450200,14.4584501953125,8.088000297546387,-0.07304999977350235,-0.0799500048160553
1779996188963727000,14.47572705078125,8.730000495910645,-0.09195000678300858,-0.15000000596046448
1779996188981004000,14.493004150390625,10.017000198364258,-0.1489500105381012,-0.21405000984668732
1779996188998281000,14.510281005859374,11.211000442504883,-0.16395001113414764,-0.3049500286579132
1779996189024196000,14.536196044921875,11.419050216674805,-0.15405000746250153,-0.35100001096725464
1779996189041473000,14.55347314453125,10.393050193786621,-0.1279500126838684,-0.29100000858306885
1779996189058750000,14.57075,9.079050064086914,-0.08205000311136246,-0.18105000257492065
1779996189076026600,14.588026611328125,8.224950790405273,-0.11400000751018524,-0.07304999977350235
1779996189093303600,14.605303466796874,8.329950332641602,-0.13005000352859497,-0.06105000153183937
1779996189110580200,14.622580322265625,9.28695011138916,-0.11100000888109207,-0.17805001139640808
1779996189127857200,14.639857177734376,10.608000755310059,-0.11400000751018524,-0.3049500286579132
1779996189145134000,14.657134033203125,11.467050552368164,-0.12300000339746475,-0.3460500240325928
1779996189162410800,14.67441064453125,11.41200065612793,-0.1489500105381012,-0.3150000274181366
1779996189179687700,14.691687744140625,10.45995044708252,-0.13695000112056732,-0.23805001378059387
1779996189196964600,14.708964599609375,9.120000839233398,-0.11805000901222229,-0.14295001327991486
1779996189214241300,14.7262412109375,8.244000434875488,-0.10605000704526901,-0.09495000541210175
1779996189231518200,14.743518310546875,8.301000595092773,-0.07500000298023224,-0.10695000737905502
1779996189248795100,14.760795166015624,9.283050537109375,-0.10200000554323196,-0.17595000565052032
1779996189266071800,14.77807177734375,10.567950248718262,-0.13305000960826874,-0.2689500153064728
1779996189283348700,14.7953486328125,11.44800090789795,-0.16905000805854797,-0.3240000009536743
1779996189300625700,14.812625732421875,11.404950141906738,-0.13305000960826874,-0.3360000252723694
1779996189317902600,14.829902587890626,10.43595027923584,-0.1399500072002411,-0.2689500153064728
1779996189335179500,14.847179443359375,9.156000137329102,-0.11805000901222229,-0.17595000565052032
1779996189352456200,14.864456298828125,8.266050338745117,-0.07005000114440918,-0.12600000202655792
1779996189369732900,14.88173291015625,8.356050491333008,-0.09405000507831573,-0.10905000567436218
1779996189387009500,14.899009521484375,9.268050193786621,-0.1489500105381012,-0.1469999998807907
1779996189404286500,14.916286376953124,10.534050941467285,-0.16095000505447388,-0.24495001137256622
1779996189421563400,14.9335634765625,11.403000831604004,-0.13305000960826874,-0.3439500033855438
1779996189447478500,14.959478515625,11.008050918579102,-0.15195000171661377,-0.3079500198364258
1779996189464755500,14.97675537109375,9.816000938415527,-0.10605000704526901,-0.22395001351833344
1779996189482032400,14.994032470703125,8.690999984741211,-0.09405000507831573,-0.14295001327991486
1779996189499309300,15.011309326171874,8.218050003051758,-0.12495000660419464,-0.09495000541210175
1779996189516586000,15.0285859375,8.722949981689453,-0.14205001294612885,-0.10695000737905502
1779996189533863000,15.04586279296875,9.87600040435791,-0.11805000901222229,-0.22395001351833344
1779996189551139800,15.063139892578125,11.005050659179688,-0.11100000888109207,-0.3270000219345093
1779996189568416500,15.08041650390625,11.494050979614258,-0.1489500105381012,-0.34800001978874207
1779996189585693400,15.097693359375,11.002950668334961,-0.1399500072002411,-0.29295000433921814
1779996189602970400,15.114970458984375,9.868950843811035,-0.12105000764131546,-0.21000000834465027
1779996189620247300,15.132247314453124,8.72700023651123,-0.07800000160932541,-0.13305000960826874
1779996189637524000,15.14952392578125,8.22705078125,-0.0970500037074089,-0.09495000541210175
1779996189654801000,15.16680078125,8.713050842285156,-0.11400000751018524,-0.11595000326633453
1779996189672077600,15.18407763671875,9.820950508117676,-0.1279500126838684,-0.2050500065088272
1779996189689354200,15.201354248046876,10.978950500488281,-0.13005000352859497,-0.29805001616477966
1779996189706631200,15.218631103515625,11.443050384521484,-0.16395001113414764,-0.32895001769065857
1779996189732546600,15.244546630859375,10.486050605773926,-0.13500000536441803,-0.2770500183105469
1779996189749823200,15.2618232421875,9.261000633239746,-0.11400000751018524,-0.20205001533031464
1779996189767100200,15.27910009765625,8.437950134277344,-0.07800000160932541,-0.13095000386238098
1779996189784377000,15.296377197265626,8.397000312805176,-0.10605000704526901,-0.08700000494718552
1779996189801653800,15.31365380859375,9.261000633239746,-0.13695000112056732,-0.14295001327991486
1779996189818930700,15.3309306640625,10.4170503616333,-0.1279500126838684,-0.24495001137256622
1779996189836207400,15.348207275390624,11.266050338745117,-0.12495000660419464,-0.32895001769065857
1779996189853484300,15.365484375,11.284950256347656,-0.11100000888109207,-0.3550500273704529
1779996189870761000,15.382760986328124,10.467000961303711,-0.13305000960826874,-0.26205000281333923
1779996189888038000,15.400037841796875,9.313950538635254,-0.17595000565052032,-0.13305000960826874
1779996189905314600,15.417314453125,8.46405029296875,-0.12495000660419464,-0.0799500048160553
1779996189922591500,15.434591552734375,8.449950218200684,-0.07500000298023224,-0.15000000596046448
1779996189939868400,15.451868408203126,9.247050285339355,-0.05595000088214874,-0.23595000803470612
1779996189957145300,15.469145263671875,10.422000885009766,-0.13005000352859497,-0.26205000281333923
1779996189983060500,15.495060546875,11.383050918579102,-0.19005000591278076,-0.2740500271320343
1779996190000337400,15.51233740234375,10.929000854492188,-0.14205001294612885,-0.29295000433921814
1779996190017614300,15.5296142578125,9.841950416564941,-0.09000000357627869,-0.27195000648498535
1779996190034891000,15.54689111328125,8.806050300598145,-0.06599999964237213,-0.17595000565052032
1779996190052167700,15.564167724609375,8.383049964904785,-0.11400000751018524,-0.07095000147819519
1779996190069444900,15.58144482421875,8.821050643920898,-0.16095000505447388,-0.08505000174045563
1779996190086721500,15.598721435546874,9.841950416564941,-0.13695000112056732,-0.21405000984668732
1779996190112636700,15.62463671875,11.202000617980957,-0.12495000660419464,-0.35805001854896545
1779996190138551800,15.6505517578125,10.905000686645508,-0.15195000171661377,-0.31200000643730164
1779996190155828700,15.667828857421876,9.919050216674805,-0.16095000505447388,-0.19500000774860382
1779996190173105700,15.685105712890625,8.863950729370117,-0.10395000129938126,-0.15195000171661377
1779996190190382300,15.70238232421875,8.419050216674805,-0.10200000554323196,-0.10395000129938126
1779996190207659300,15.7196591796875,8.81100082397461,-0.10200000554323196,-0.14295001327991486
1779996190224936200,15.736936279296875,9.808950424194336,-0.10200000554323196,-0.20205001533031464
1779996190242212900,15.754212890625,10.837950706481934,-0.16395001113414764,-0.2670000195503235
1779996190259489500,15.771489501953125,11.283000946044922,-0.12495000660419464,-0.31200000643730164
1779996190276766500,15.788766357421874,10.870950698852539,-0.11805000901222229,-0.286050021648407
1779996190294043100,15.806043212890625,9.897000312805176,-0.15195000171661377,-0.21705001592636108
1779996190311320000,15.823320068359376,8.883000373840332,-0.08700000494718552,-0.1469999998807907
1779996190328596700,15.8405966796875,8.47605037689209,-0.08205000311136246,-0.11595000326633453
1779996190345873700,15.857873779296876,8.859000205993652,-0.0799500048160553,-0.15405000746250153
1779996190363150300,15.875150390625,9.832950592041016,-0.12105000764131546,-0.22605000436306
1779996190389065500,15.9010654296875,11.131950378417969,-0.1570500135421753,-0.28395000100135803
1779996190406342400,15.91834228515625,11.13705062866211,-0.1570500135421753,-0.30000001192092896
1779996190423619300,15.935619384765625,10.383000373840332,-0.13305000960826874,-0.2569500207901001
1779996190440896000,15.95289599609375,9.32295036315918,-0.11400000751018524,-0.2070000171661377
1779996190458173000,15.9701728515625,8.601000785827637,-0.10395000129938126,-0.15405000746250153
1779996190475449900,15.987449951171875,8.620050430297852,-0.1279500126838684,-0.1279500126838684
1779996190492726500,16.0047265625,9.349950790405273,-0.14505000412464142,-0.1660500019788742
1779996190510003500,16.02200341796875,10.366950035095215,-0.15405000746250153,-0.2689500153064728
1779996190527280400,16.0392802734375,11.122950553894043,-0.14205001294612885,-0.3340500295162201
1779996190544557000,16.05655712890625,11.107950210571289,-0.14505000412464142,-0.33900001645088196
1779996190561834000,16.073833984375,10.410000801086426,-0.13305000960826874,-0.25995001196861267
1779996190579110700,16.091110595703125,9.373050689697266,-0.11400000751018524,-0.17805001139640808
1779996190605026000,16.117026123046877,8.521950721740723,-0.1279500126838684,-0.08700000494718552
1779996190622302700,16.134302734375,8.866050720214844,-0.10605000704526901,-0.11400000751018524
1779996190639579600,16.15157958984375,9.795000076293945,-0.11400000751018524,-0.2070000171661377
1779996190665494800,16.177494873046875,11.050950050354004,-0.12495000660419464,-0.30000001192092896
1779996190682771700,16.194771728515626,11.09595012664795,-0.16905000805854797,-0.29805001616477966
1779996190700048400,16.21204833984375,10.4170503616333,-0.12300000339746475,-0.23295001685619354
1779996190717325300,16.2293251953125,9.405000686645508,-0.0990000069141388,-0.19305001199245453
1779996190743240400,16.255240478515624,8.529000282287598,-0.09195000678300858,-0.12600000202655792
1779996190760517400,16.272517333984375,8.881050109863281,-0.11805000901222229,-0.15000000596046448
1779996190777794000,16.2897939453125,9.792000770568848,-0.11400000751018524,-0.2050500065088272
1779996190795071000,16.307071044921877,10.741950035095215,-0.14205001294612885,-0.2770500183105469
1779996190812348000,16.324347900390624,11.182050704956055,-0.13005000352859497,-0.3270000219345093
1779996190829624600,16.34162451171875,10.82805061340332,-0.1469999998807907,-0.2770500183105469
1779996190846901200,16.3589013671875,9.907050132751465,-0.13305000960826874,-0.19305001199245453
1779996190864178200,16.37617822265625,8.962050437927246,-0.0799500048160553,-0.16395001113414764
1779996190881455000,16.393455078125,8.538000106811523,-0.09405000507831573,-0.1279500126838684
1779996190907370200,16.419370361328124,9.285000801086426,-0.15900000929832458,-0.1380000114440918
1779996190924647200,16.436647216796874,10.291950225830078,-0.12300000339746475,-0.24105000495910645
1779996190941923800,16.453923828125,11.008050918579102,-0.10905000567436218,-0.32895001769065857
1779996190967839200,16.479839111328126,10.837950706481934,-0.1570500135421753,-0.2959500253200531
1779996190985116000,16.497115966796876,9.937950134277344,-0.09195000678300858,-0.23595000803470612
1779996191002392600,16.514392578125,9.043050765991211,-0.11595000326633453,-0.1469999998807907
1779996191019669500,16.53166943359375,8.578950881958008,-0.09195000678300858,-0.10695000737905502
1779996191036946400,16.548946533203125,8.875950813293457,-0.10905000567436218,-0.1189500093460083
1779996191054223000,16.56622314453125,9.744000434875488,-0.13305000960826874,-0.20205001533031464
1779996191071500000,16.5835,10.656000137329102,-0.11100000888109207,-0.2670000195503235
1779996191088777000,16.60077685546875,11.130000114440918,-0.11805000901222229,-0.3049500286579132
1779996191106053600,16.6180537109375,10.819050788879395,-0.13005000352859497,-0.2959500253200531
1779996191123330600,16.63533056640625,9.969000816345215,-0.1399500072002411,-0.22395001351833344
1779996191149245700,16.66124560546875,8.731950759887695,-0.1489500105381012,-0.0990000069141388
1779996191166522600,16.678522705078127,8.644050598144531,-0.09195000678300858,-0.17100000381469727
1779996191183799600,16.695799560546874,9.259050369262695,-0.12105000764131546,-0.22605000436306
1779996191201076200,16.713076171875,10.258950233459473,-0.13005000352859497,-0.28095000982284546
1779996191218353000,16.730352783203124,11.020050048828125,-0.1489500105381012,-0.3079500198364258
1779996191244268300,16.756268310546876,10.855050086975098,-0.19005000591278076,-0.25005000829696655
1779996191261545000,16.773544921875,9.94800090789795,-0.11805000901222229,-0.23100000619888306
1779996191278822000,16.79082177734375,9.003000259399414,-0.08505000174045563,-0.1879500150680542
1779996191304737000,16.816737060546874,8.644050598144531,-0.0990000069141388,-0.11100000888109207
1779996191322014000,16.834013916015625,9.294000625610352,-0.12105000764131546,-0.1279500126838684
1779996191339290600,16.85129052734375,10.243950843811035,-0.16905000805854797,-0.19305001199245453
1779996191365206000,16.8772060546875,11.082000732421875,-0.11595000326633453,-0.3150000274181366
1779996191386802000,16.898802001953126,10.627050399780273,-0.13005000352859497,-0.29100000858306885
1779996191404078600,16.91607861328125,9.724950790405273,-0.0990000069141388,-0.20205001533031464
1779996191421355300,16.933355224609375,8.926050186157227,-0.12300000339746475,-0.14295001327991486
1779996191438632200,16.950632080078126,8.641050338745117,-0.11100000888109207,-0.10905000567436218
1779996191455909000,16.9679091796875,9.091050148010254,-0.11805000901222229,-0.16200000047683716
1779996191481824300,16.99382421875,10.4170503616333,-0.13500000536441803,-0.28095000982284546
1779996191499101000,17.011100830078124,11.020050048828125,-0.13695000112056732,-0.30300000309944153
1779996191516377900,17.0283779296875,10.921950340270996,-0.17295001447200775,-0.26205000281333923
1779996191533654800,17.04565478515625,10.216050148010254,-0.13305000960826874,-0.23805001378059387
1779996191550931500,17.062931396484377,9.283050537109375,-0.08700000494718552,-0.1879500150680542
1779996191568208400,17.08020849609375,8.701050758361816,-0.08505000174045563,-0.1380000114440918
1779996191585485300,17.0974853515625,8.81100082397461,-0.13305000960826874,-0.12105000764131546
1779996191602762000,17.114761962890626,9.498000144958496,-0.14205001294612885,-0.15405000746250153
1779996191620038700,17.13203857421875,10.393050193786621,-0.11100000888109207,-0.26205000281333923
1779996191645953800,17.157953857421877,11.046000480651855,-0.1489500105381012,-0.3049500286579132
1779996191663230700,17.175230712890624,10.627050399780273,-0.1489500105381012,-0.28095000982284546
1779996191680507600,17.192507568359375,9.766050338745117,-0.10605000704526901,-0.21000000834465027
1779996191697784300,17.209784423828125,8.950050354003906,-0.11805000901222229,-0.13305000960826874
1779996191715061200,17.227061279296876,8.677050590515137,-0.13305000960826874,-0.0970500037074089
1779996191732338000,17.244337890625,9.07395076751709,-0.11805000901222229,-0.15405000746250153
1779996191749614800,17.26161474609375,9.955050468444824,-0.08700000494718552,-0.25995001196861267
1779996191766891800,17.278891845703125,10.756950378417969,-0.10395000129938126,-0.30000001192092896
1779996191784168400,17.29616845703125,11.062950134277344,-0.1570500135421753,-0.28095000982284546
1779996191801445400,17.3134453125,10.620000839233398,-0.1660500019788742,-0.21195000410079956
1779996191827360500,17.339360595703123,9.30405044555664,-0.1279500126838684,-0.15900000929832458
1779996191844637200,17.35663720703125,8.682000160217285,-0.06105000153183937,-0.16200000047683716
1779996191861914000,17.3739140625,8.779950141906738,-0.06300000101327896,-0.1879500150680542
1779996191879190800,17.391190673828124,9.510000228881836,-0.14505000412464142,-0.2050500065088272
1779996191896467700,17.4084677734375,10.45995044708252,-0.19200000166893005,-0.22605000436306
1779996191913744400,17.425744384765625,11.041050910949707,-0.1489500105381012,-0.29100000858306885
1779996191939659800,17.45165966796875,10.624950408935547,-0.11400000751018524,-0.3169500231742859
1779996191956936700,17.468936767578125,9.712950706481934,-0.14205001294612885,-0.21000000834465027
1779996191974213400,17.48621337890625,8.9239501953125,-0.08205000311136246,-0.14505000412464142
1779996191991490300,17.503490234375,8.670000076293945,-0.09195000678300858,-0.12300000339746475
1779996192008767000,17.52076708984375,9.121950149536133,-0.12495000660419464,-0.13500000536441803
1779996192026044000,17.5380439453125,9.967050552368164,-0.13500000536441803,-0.2050500065088272
1779996192043320600,17.555320556640623,10.759050369262695,-0.11400000751018524,-0.30000001192092896
1779996192069236000,17.581236083984376,10.900050163269043,-0.13500000536441803,-0.30000001192092896
1779996192086512600,17.5985126953125,10.19205093383789,-0.12495000660419464,-0.22605000436306
1779996192103789300,17.615789306640625,9.301950454711914,-0.13695000112056732,-0.16395001113414764
1779996192129704700,17.64170458984375,8.668050765991211,-0.10200000554323196,-0.1279500126838684
1779996192146981400,17.6589814453125,9.091050148010254,-0.12495000660419464,-0.16200000047683716
1779996192164258300,17.67625830078125,9.969000816345215,-0.11400000751018524,-0.23295001685619354
1779996192181535200,17.69353515625,10.777950286865234,-0.11400000751018524,-0.29295000433921814
1779996192207450400,17.719450439453126,10.912050247192383,-0.1469999998807907,-0.30000001192092896
1779996192224727000,17.73672705078125,10.22295093536377,-0.17805001139640808,-0.2050500065088272
1779996192242004000,17.75400390625,9.306000709533691,-0.13005000352859497,-0.1380000114440918
1779996192259280600,17.77128076171875,8.69895076751709,-0.07800000160932541,-0.15405000746250153
1779996192276557600,17.7885576171875,8.782050132751465,-0.07005000114440918,-0.18300001323223114
1779996192293834200,17.805834228515625,9.493050575256348,-0.11100000888109207,-0.1879500150680542
1779996192311111200,17.823111083984376,10.414050102233887,-0.18300001323223114,-0.19500000774860382
1779996192328387800,17.840387939453127,11.005050659179688,-0.15900000929832458,-0.28095000982284546
1779996192345664800,17.857664794921874,10.897950172424316,-0.11100000888109207,-0.33195000886917114
1779996192362941700,17.874941650390625,10.206000328063965,-0.1399500072002411,-0.2770500183105469
1779996192388856600,17.900856689453125,8.979000091552734,-0.08205000311136246,-0.14295001327991486
1779996192406133500,17.918133544921876,8.719950675964355,-0.10200000554323196,-0.11100000888109207
1779996192423410200,17.93541015625,9.112950325012207,-0.13305000960826874,-0.16395001113414764
1779996192449325600,17.96132568359375,10.375950813293457,-0.12300000339746475,-0.2650500237941742
1779996192466602200,17.978602294921874,10.941000938415527,-0.16095000505447388,-0.27195000648498535
1779996192483879000,17.99587890625,10.894950866699219,-0.13695000112056732,-0.28395000100135803
1779996192501155800,18.01315576171875,10.21095085144043,-0.11400000751018524,-0.25005000829696655
1779996192518432800,18.030432861328126,9.32805061340332,-0.12105000764131546,-0.1860000044107437
1779996192535709400,18.04770947265625,8.76300048828125,-0.14505000412464142,-0.10695000737905502
1779996192552986400,18.064986328125,8.835000038146973,-0.0990000069141388,-0.1279500126838684
1779996192570263000,18.082262939453123,9.487950325012207,-0.11595000326633453,-0.19995000958442688
1779996192587540000,18.0995400390625,10.383000373840332,-0.12495000660419464,-0.28095000982284546
1779996192604817000,18.11681689453125,10.936050415039062,-0.12495000660419464,-0.31200000643730164
1779996192622093600,18.134093505859376,10.909950256347656,-0.17805001139640808,-0.2770500183105469
1779996192639370200,18.151370361328127,10.225050926208496,-0.15195000171661377,-0.21405000984668732
1779996192656647200,18.168647216796874,9.32295036315918,-0.07005000114440918,-0.19995000958442688
1779996192673924000,18.185924072265625,8.770050048828125,-0.0990000069141388,-0.17100000381469727
1779996192691200800,18.20320068359375,8.833050727844238,-0.12105000764131546,-0.13095000386238098
1779996192708477700,18.220477783203126,9.522000312805176,-0.13695000112056732,-0.13305000960826874
1779996192725754400,18.23775439453125,10.374000549316406,-0.11595000326633453,-0.23805001378059387
1779996192743031300,18.25503125,10.893000602722168,-0.10605000704526901,-0.3169500231742859
1779996192768946400,18.280946533203124,10.558050155639648,-0.15900000929832458,-0.25995001196861267
1779996192786223400,18.298223388671875,9.775050163269043,-0.14505000412464142,-0.17805001139640808
1779996192803500000,18.3155,9.040950775146484,-0.12105000764131546,-0.13500000536441803
1779996192829415200,18.341415283203126,8.866050720214844,-0.08700000494718552,-0.17400000989437103
1779996192846692000,18.358692138671874,9.502950668334961,-0.11400000751018524,-0.21405000984668732
1779996192863968800,18.37596875,10.357050895690918,-0.1489500105381012,-0.23595000803470612
1779996192889884000,18.4018837890625,10.957950592041016,-0.16095000505447388,-0.2689500153064728
1779996192907160600,18.41916064453125,10.54800033569336,-0.1399500072002411,-0.27195000648498535
1779996192924437500,18.4364375,9.768000602722168,-0.10905000567436218,-0.23805001378059387
1779996192941714200,18.453714111328125,9.02400016784668,-0.10395000129938126,-0.16200000047683716
1779996192958991000,18.4709912109375,8.809050559997559,-0.11100000888109207,-0.12105000764131546
1779996192976268000,18.48826806640625,9.145950317382812,-0.10200000554323196,-0.14505000412464142
1779996192993544700,18.505544677734374,9.937950134277344,-0.16905000805854797,-0.2070000171661377
1779996193019459800,18.5314599609375,10.845000267028809,-0.13500000536441803,-0.29805001616477966
1779996193036736500,18.548736572265625,10.821000099182129,-0.1489500105381012,-0.29100000858306885
1779996193054013400,18.566013427734376,10.19895076751709,-0.10200000554323196,-0.25995001196861267
1779996193071290000,18.5832900390625,9.394950866699219,-0.12495000660419464,-0.18300001323223114
1779996193088567000,18.600567138671874,8.871000289916992,-0.14205001294612885,-0.1380000114440918
1779996193105843700,18.61784375,8.914050102233887,-0.08505000174045563,-0.16395001113414764
1779996193123120600,18.63512060546875,9.558000564575195,-0.13500000536441803,-0.18105000257492065
1779996193140397300,18.652397216796874,10.314000129699707,-0.13305000960826874,-0.23100000619888306
1779996193157674200,18.66967431640625,10.849950790405273,-0.11100000888109207,-0.286050021648407
1779996193174951200,18.686951171875,10.756950378417969,-0.13005000352859497,-0.28395000100135803
1779996193192227800,18.704227783203127,10.146000862121582,-0.17295001447200775,-0.21195000410079956
1779996193209504800,18.7215048828125,9.376049995422363,-0.12300000339746475,-0.17100000381469727
1779996193239739100,18.7517392578125,8.896950721740723,-0.10200000554323196,-0.17400000989437103
1779996193257015800,18.769015869140624,9.417000770568848,-0.10395000129938126,-0.20205001533031464
1779996193274292700,18.786292724609375,10.19205093383789,-0.15405000746250153,-0.21705001592636108
1779996193291569400,18.8035693359375,10.773000717163086,-0.1570500135421753,-0.24495001137256622
1779996193308846000,18.82084619140625,10.75200080871582,-0.13305000960826874,-0.27900001406669617
1779996193326123000,18.838123046875,10.282950401306152,-0.1279500126838684,-0.2770500183105469
1779996193352038100,18.8640380859375,9.205950736999512,-0.1279500126838684,-0.16200000047683716
1779996193369315000,18.881315185546875,8.916000366210938,-0.12300000339746475,-0.11400000751018524
1779996193386591700,18.898591796875,9.141000747680664,-0.09405000507831573,-0.15405000746250153
1779996193403868700,18.91586865234375,9.782999992370605,-0.10395000129938126,-0.21900001168251038
1779996193421145300,18.933145263671875,10.456950187683105,-0.17295001447200775,-0.24795001745224
1779996193447060200,18.959060302734375,10.753950119018555,-0.1279500126838684,-0.27900001406669617
1779996193464337200,18.976337158203126,10.278000831604004,-0.11100000888109207,-0.2650500237941742
1779996193481614000,18.993614013671873,9.579000473022461,-0.10605000704526901,-0.21195000410079956
1779996193507529200,19.019529296875,8.920950889587402,-0.13695000112056732,-0.12300000339746475
1779996193524806100,19.03680615234375,9.153000831604004,-0.14505000412464142,-0.14295001327991486
1779996193542082800,19.054082763671875,9.759000778198242,-0.10605000704526901,-0.21900001168251038
1779996193559359700,19.07135986328125,10.438050270080566,-0.11100000888109207,-0.27900001406669617
1779996193576636700,19.08863671875,10.771050453186035,-0.10905000567436218,-0.3079500198364258
1779996193593913000,19.1059130859375,10.587000846862793,-0.15405000746250153,-0.24105000495910645
1779996193611190000,19.12318994140625,9.969000816345215,-0.15405000746250153,-0.18105000257492065
1779996193628466700,19.140466796875,9.265950202941895,-0.10905000567436218,-0.16905000805854797
1779996193645743600,19.15774365234375,8.928000450134277,-0.10200000554323196,-0.17805001139640808
1779996193663020300,19.175020263671875,9.131999969482422,-0.11805000901222229,-0.1860000044107437
1779996193680297200,19.192297119140626,9.768000602722168,-0.11595000326633453,-0.19500000774860382
1779996193697574100,19.20957421875,10.44795036315918,-0.11805000901222229,-0.2569500207901001
1779996193714850800,19.226850830078124,10.773000717163086,-0.16905000805854797,-0.27900001406669617
1779996193732127700,19.244127685546875,10.555950164794922,-0.14205001294612885,-0.26205000281333923
1779996193758043000,19.27004296875,9.594000816345215,-0.10605000704526901,-0.22095000743865967
1779996193775319800,19.28731982421875,9.070050239562988,-0.08205000311136246,-0.1660500019788742
1779996193792596500,19.304596435546873,9.01200008392334,-0.10395000129938126,-0.13305000960826874
1779996193809873400,19.321873291015624,9.430950164794922,-0.1489500105381012,-0.15000000596046448
1779996193827150000,19.339150146484375,10.078950881958008,-0.14205001294612885,-0.21405000984668732
1779996193844426800,19.3564267578125,10.594050407409668,-0.13695000112056732,-0.27900001406669617
1779996193861703400,19.373703369140625,10.67805004119873,-0.13500000536441803,-0.30000001192092896
1779996193878980400,19.39098046875,10.288050651550293,-0.12495000660419464,-0.25995001196861267
1779996193896257300,19.40825732421875,9.667950630187988,-0.12495000660419464,-0.19005000591278076
1779996193913534000,19.425533935546873,9.141000747680664,-0.09405000507831573,-0.17400000989437103
1779996193930811000,19.442810791015624,9.02595043182373,-0.12300000339746475,-0.14295001327991486
1779996193948087600,19.460087646484375,9.402000427246094,-0.15900000929832458,-0.15000000596046448
1779996193965364200,19.4773642578125,10.021950721740723,-0.0970500037074089,-0.24300001561641693
1779996193982641000,19.494640869140625,10.558050155639648,-0.1279500126838684,-0.27900001406669617
1779996194008556300,19.520556396484373,10.564950942993164,-0.13305000960826874,-0.2569500207901001
1779996194025833000,19.5378330078125,10.020000457763672,-0.1399500072002411,-0.19305001199245453
1779996194043110000,19.55510986328125,9.370950698852539,-0.13305000960826874,-0.15195000171661377
1779996194069025000,19.58102490234375,9.007050514221191,-0.09405000507831573,-0.18300001323223114
1779996194086302000,19.598302001953126,9.382950782775879,-0.10605000704526901,-0.1879500150680542
1779996194103578600,19.61557861328125,10.041000366210938,-0.10905000567436218,-0.24300001561641693
1779996194120855300,19.632855224609376,10.576950073242188,-0.14505000412464142,-0.2550000250339508
1779996194138132000,19.650132080078127,10.704000473022461,-0.17295001447200775,-0.26205000281333923
1779996194155409000,19.667408935546874,10.315950393676758,-0.1469999998807907,-0.24300001561641693
1779996194172685800,19.684685791015625,9.682050704956055,-0.0990000069141388,-0.21000000834465027
1779996194189962500,19.70196240234375,9.145950317382812,-0.09000000357627869,-0.17100000381469727
1779996194207239400,19.719239501953126,9.015000343322754,-0.11400000751018524,-0.14505000412464142
1779996194224516000,19.73651611328125,9.381000518798828,-0.12105000764131546,-0.17805001139640808
1779996194241793000,19.75379296875,10.00005054473877,-0.14205001294612885,-0.21195000410079956
1779996194259069700,19.771069580078127,10.570050239562988,-0.14205001294612885,-0.27900001406669617
1779996194276346600,19.7883466796875,10.680000305175781,-0.13005000352859497,-0.30000001192092896
1779996194293623000,19.805623046875,10.362000465393066,-0.1489500105381012,-0.2650500237941742
1779996194310900000,19.82289990234375,9.718050003051758,-0.11595000326633453,-0.21195000410079956
1779996194328177000,19.840177001953126,9.187050819396973,-0.11400000751018524,-0.15405000746250153
1779996194345453600,19.85745361328125,9.040950775146484,-0.12495000660419464,-0.13095000386238098
1779996194362730500,19.87473046875,9.361050605773926,-0.1279500126838684,-0.18300001323223114
1779996194380007200,19.892007080078123,9.984000205993652,-0.08205000311136246,-0.24795001745224
1779996194397284000,19.9092841796875,10.527000427246094,-0.10395000129938126,-0.2670000195503235
1779996194414560800,19.926560791015625,10.693950653076172,-0.15195000171661377,-0.24795001745224
1779996194440476000,19.952475830078125,10.02405071258545,-0.1399500072002411,-0.21195000410079956
1779996194457752600,19.969752685546876,9.409049987792969,-0.11595000326633453,-0.18105000257492065
1779996194475029500,19.987029541015627,9.040950775146484,-0.08700000494718552,-0.15405000746250153
1779996194500944600,20.012944580078123,9.390000343322754,-0.0990000069141388,-0.1980000138282776
1779996194518221600,20.0302216796875,10.020000457763672,-0.15900000929832458,-0.21405000984668732
1779996194535498200,20.047498291015625,10.5600004196167,-0.1279500126838684,-0.26205000281333923
1779996194552775200,20.064775146484376,10.651050567626953,-0.1399500072002411,-0.29805001616477966
1779996194570051800,20.0820517578125,10.330950736999512,-0.1399500072002411,-0.2650500237941742
1779996194587328500,20.09932861328125,9.676950454711914,-0.0970500037074089,-0.23595000803470612
1779996194613244000,20.125243896484374,9.07395076751709,-0.12300000339746475,-0.1469999998807907
1779996194630520800,20.142520751953125,9.177000045776367,-0.11805000901222229,-0.12600000202655792
1779996194647797200,20.15979736328125,9.687000274658203,-0.13005000352859497,-0.17100000381469727
1779996194665074200,20.17707421875,10.270950317382812,-0.12105000764131546,-0.23805001378059387
1779996194682351000,20.19435107421875,10.606050491333008,-0.10200000554323196,-0.30300000309944153
1779996194699627800,20.211627685546876,10.504950523376465,-0.14205001294612885,-0.2530499994754791
1779996194725543200,20.237543212890625,9.747000694274902,-0.11805000901222229,-0.17100000381469727
1779996194742819800,20.25481982421875,9.201000213623047,-0.10905000567436218,-0.17400000989437103
1779996194760096500,20.272096435546874,9.079050064086914,-0.0990000069141388,-0.19005000591278076
1779996194777373400,20.28937353515625,9.397050857543945,-0.11100000888109207,-0.1879500150680542
1779996194794650000,20.306650146484376,10.003050804138184,-0.14505000412464142,-0.1860000044107437
1779996194811926800,20.3239267578125,10.498050689697266,-0.15195000171661377,-0.24795001745224
1779996194829203700,20.34120361328125,10.606050491333008,-0.13305000960826874,-0.2959500253200531
1779996194846480400,20.35848046875,10.303950309753418,-0.11400000751018524,-0.286050021648407
1779996194863757300,20.37575732421875,9.736950874328613,-0.0799500048160553,-0.23595000803470612
1779996194881034000,20.393033935546875,9.265950202941895,-0.13005000352859497,-0.1469999998807907
1779996194898311000,20.410310791015625,9.109950065612793,-0.1489500105381012,-0.13095000386238098
1779996194915587600,20.427587646484376,9.424050331115723,-0.13305000960826874,-0.17100000381469727
1779996194932864300,20.4448642578125,9.93600082397461,-0.08505000174045563,-0.24495001137256622
1779996194958779400,20.470779296875,10.584000587463379,-0.13500000536441803,-0.286050021648407
1779996194976056300,20.488056396484374,10.516950607299805,-0.14505000412464142,-0.24495001137256622
1779996195001971500,20.513971435546875,9.763050079345703,-0.15405000746250153,-0.20205001533031464
1779996195019248400,20.531248291015626,9.262950897216797,-0.11100000888109207,-0.16200000047683716
1779996195036525000,20.548525146484376,9.103050231933594,-0.0990000069141388,-0.1660500019788742
1779996195053802000,20.565802001953124,9.400050163269043,-0.12495000660419464,-0.16905000805854797
1779996195071078700,20.58307861328125,9.94800090789795,-0.13500000536441803,-0.21195000410079956
1779996195088355600,20.60035546875,10.438050270080566,-0.13005000352859497,-0.26205000281333923
1779996195105632300,20.61763232421875,10.587000846862793,-0.12300000339746475,-0.2880000174045563
1779996195122909200,20.6349091796875,10.335000038146973,-0.13005000352859497,-0.2569500207901001
1779996195140185600,20.652185546875,9.780000686645508,-0.15900000929832458,-0.19005000591278076
1779996195157462500,20.669462646484376,9.27495002746582,-0.12105000764131546,-0.1570500135421753
1779996195174739500,20.686739501953124,9.115050315856934,-0.09000000357627869,-0.17595000565052032
1779996195192016100,20.70401611328125,9.381000518798828,-0.09000000357627869,-0.19995000958442688
1779996195209292800,20.721292724609373,9.907050132751465,-0.13695000112056732,-0.21000000834465027
1779996195226569700,20.73856982421875,10.42905044555664,-0.15900000929832458,-0.22905001044273376
1779996195243846400,20.755846435546875,10.588950157165527,-0.13500000536441803,-0.2530499994754791
1779996195261123000,20.773123046875,10.32300090789795,-0.11400000751018524,-0.2689500153064728
1779996195278400000,20.79039990234375,9.799050331115723,-0.11595000326633453,-0.22905001044273376
1779996195295676700,20.8076767578125,9.294000625610352,-0.11595000326633453,-0.16395001113414764
1779996195312953600,20.82495361328125,9.139050483703613,-0.12105000764131546,-0.13500000536441803
1779996195330230300,20.842230224609374,9.373050689697266,-0.12105000764131546,-0.15900000929832458
1779996195347507000,20.8595068359375,9.895050048828125,-0.1279500126838684,-0.21405000984668732
1779996195373422000,20.885422119140625,10.534050941467285,-0.13305000960826874,-0.2740500271320343
1779996195390698800,20.90269873046875,10.522050857543945,-0.13695000112056732,-0.2550000250339508
1779996195407975700,20.9199755859375,10.113000869750977,-0.10605000704526901,-0.24300001561641693
1779996195425252600,20.937252685546873,9.546000480651855,-0.1399500072002411,-0.18300001323223114
1779996195442529300,20.954529296875,9.169950485229492,-0.14205001294612885,-0.1399500072002411
1779996195459806200,20.97180615234375,9.169950485229492,-0.0970500037074089,-0.1660500019788742
1779996195477083000,20.989082763671874,9.606000900268555,-0.10905000567436218,-0.21405000984668732
1779996195502998000,21.014998046875,10.407000541687012,-0.13005000352859497,-0.2689500153064728
1779996195520275000,21.03227490234375,10.612950325012207,-0.13500000536441803,-0.2670000195503235
1779996195537551600,21.049551513671876,10.345050811767578,-0.13305000960826874,-0.2530499994754791
1779996195554828300,21.066828369140627,9.819000244140625,-0.17100000381469727,-0.17595000565052032
1779996195572105200,21.084105224609374,9.306000709533691,-0.1279500126838684,-0.14505000412464142
1779996195589382000,21.1013818359375,9.115050315856934,-0.10395000129938126,-0.17100000381469727
1779996195606658800,21.118658935546875,9.3589506149292,-0.08505000174045563,-0.22395001351833344
1779996195623935500,21.135935546875,9.90000057220459,-0.11595000326633453,-0.23295001685619354
1779996195641212200,21.153212158203125,10.44795036315918,-0.1469999998807907,-0.24105000495910645
1779996195658488800,21.17048876953125,10.600950241088867,-0.15900000929832458,-0.22905001044273376
1779996195684404000,21.196404052734376,10.072050094604492,-0.13695000112056732,-0.22905001044273376
1779996195701681000,21.213680908203123,9.472050666809082,-0.0799500048160553,-0.22905001044273376
1779996195718957600,21.23095751953125,9.141000747680664,-0.09405000507831573,-0.18300001323223114
1779996195736234500,21.248234375,9.211050033569336,-0.12300000339746475,-0.15405000746250153
1779996195762149600,21.274149658203125,9.967050552368164,-0.1570500135421753,-0.20205001533031464
1779996195779426600,21.291426513671876,10.434000968933105,-0.15195000171661377,-0.25005000829696655
1779996195796703200,21.308703125,10.584000587463379,-0.11595000326633453,-0.29295000433921814
1779996195822618600,21.33461865234375,10.057950019836426,-0.13305000960826874,-0.22605000436306
1779996195839895300,21.351895263671874,9.522000312805176,-0.12105000764131546,-0.17595000565052032
1779996195857172000,21.369171875,9.193950653076172,-0.0799500048160553,-0.17400000989437103
1779996195874448600,21.38644873046875,9.223050117492676,-0.10395000129938126,-0.15900000929832458
1779996195891725600,21.4037255859375,9.663000106811523,-0.11805000901222229,-0.18105000257492065
1779996195909002200,21.421002197265626,10.141950607299805,-0.1660500019788742,-0.17805001139640808
1779996195926279200,21.438279052734377,10.527000427246094,-0.15195000171661377,-0.22905001044273376
1779996195943555800,21.455555908203124,10.456950187683105,-0.09000000357627869,-0.30000001192092896
1779996195960832500,21.47283251953125,10.072050094604492,-0.11400000751018524,-0.2670000195503235
1779996195978109200,21.490109130859373,9.546000480651855,-0.11100000888109207,-0.19995000958442688
1779996196004024600,21.516024658203126,9.211050033569336,-0.11805000901222229,-0.14505000412464142
1779996196021301200,21.53330126953125,9.394950866699219,-0.1469999998807907,-0.16905000805854797
1779996196038578000,21.550577880859375,9.897000312805176,-0.12495000660419464,-0.2050500065088272
1779996196055854800,21.567854736328126,10.350000381469727,-0.11805000901222229,-0.26205000281333923
1779996196073131500,21.585131591796873,10.519950866699219,-0.12495000660419464,-0.2770500183105469
1779996196090408400,21.602408447265624,10.31100082397461,-0.13005000352859497,-0.25005000829696655
1779996196107685400,21.619685302734375,9.811050415039062,-0.0990000069141388,-0.21000000834465027
1779996196124962000,21.636962158203126,9.3589506149292,-0.15405000746250153,-0.17100000381469727
1779996196142238700,21.65423876953125,9.180000305175781,-0.15405000746250153,-0.14505000412464142
1779996196159515600,21.671515625,9.397050857543945,-0.11595000326633453,-0.17805001139640808
1779996196176792300,21.688792236328126,9.88800048828125,-0.11805000901222229,-0.24795001745224
1779996196202707500,21.71470751953125,10.467000961303711,-0.08505000174045563,-0.286050021648407
1779996196219984100,21.731984130859374,10.456950187683105,-0.16395001113414764,-0.24495001137256622
1779996196237261000,21.749260986328125,10.093950271606445,-0.17805001139640808,-0.18300001323223114
1779996196263176200,21.77517626953125,9.373050689697266,-0.08205000311136246,-0.2070000171661377
1779996196280453000,21.792453125,9.211050033569336,-0.0799500048160553,-0.19995000958442688
1779996196297729500,21.8097294921875,9.406949996948242,-0.12300000339746475,-0.16395001113414764
1779996196315006500,21.82700634765625,9.880950927734375,-0.15405000746250153,-0.16395001113414764
1779996196332283100,21.844283203125,10.314000129699707,-0.12495000660419464,-0.23805001378059387
1779996196349560000,21.86156005859375,10.48905086517334,-0.13005000352859497,-0.2770500183105469
1779996196366836700,21.878836669921874,10.273050308227539,-0.1399500072002411,-0.2770500183105469
1779996196384113700,21.89611376953125,9.84000015258789,-0.0990000069141388,-0.24495001137256622
1779996196410028500,21.922028564453125,9.31605052947998,-0.11400000751018524,-0.1570500135421753
1779996196427305500,21.939305419921876,9.313950538635254,-0.12105000764131546,-0.16905000805854797
1779996196444582100,21.95658203125,9.622050285339355,-0.12300000339746475,-0.2050500065088272
1779996196461858800,21.97385888671875,10.075050354003906,-0.15195000171661377,-0.22395001351833344
1779996196487774200,21.999774169921874,10.45995044708252,-0.11805000901222229,-0.25995001196861267
1779996196505051000,22.01705078125,10.288050651550293,-0.11400000751018524,-0.24105000495910645
1779996196522327600,22.03432763671875,9.847050666809082,-0.0970500037074089,-0.22095000743865967
1779996196539604500,22.0516044921875,9.436050415039062,-0.13695000112056732,-0.16395001113414764
1779996196556881200,22.068881103515626,9.256050109863281,-0.1399500072002411,-0.13305000960826874
1779996196582796300,22.09479638671875,9.594000816345215,-0.10605000704526901,-0.21195000410079956
1779996196600073000,22.112072998046877,10.041000366210938,-0.08700000494718552,-0.2530499994754791
1779996196617350000,22.129349853515624,10.395000457763672,-0.12300000339746475,-0.25995001196861267
1779996196643265000,22.15526513671875,10.288050651550293,-0.1489500105381012,-0.2070000171661377
1779996196660542000,22.1725419921875,9.883050918579102,-0.1469999998807907,-0.19500000774860382
1779996196677818600,22.189818603515626,9.445050239562988,-0.12495000660419464,-0.1879500150680542
1779996196695095600,22.207095458984377,9.229950904846191,-0.09405000507831573,-0.2070000171661377
1779996196712372000,22.2243720703125,9.433050155639648,-0.08205000311136246,-0.22605000436306
1779996196729649000,22.24164892578125,9.85200023651123,-0.14205001294612885,-0.21405000984668732
1779996196746925800,22.25892578125,10.330950736999512,-0.18105000257492065,-0.21705001592636108
1779996196772840700,22.2848408203125,10.422000885009766,-0.11400000751018524,-0.2689500153064728
1779996196790117600,22.30211767578125,10.087050437927246,-0.13305000960826874,-0.24795001745224
1779996196807394300,22.319394287109375,9.582000732421875,-0.1399500072002411,-0.1879500150680542
1779996196833309400,22.345309326171876,9.249000549316406,-0.0970500037074089,-0.15900000929832458
1779996196850586400,22.36258642578125,9.433050155639648,-0.09000000357627869,-0.21000000834465027
1779996196867862800,22.37986279296875,9.877950668334961,-0.17100000381469727,-0.20205001533031464
1779996196893778000,22.40577783203125,10.410000801086426,-0.10395000129938126,-0.25005000829696655
1779996196911054800,22.423054931640625,10.438050270080566,-0.14505000412464142,-0.2670000195503235
1779996196928331800,22.440331787109375,10.053000450134277,-0.11595000326633453,-0.23295001685619354
1779996196954247000,22.466246826171876,9.445050239562988,-0.11805000901222229,-0.17100000381469727
1779996196971523800,22.48352392578125,9.247050285339355,-0.0970500037074089,-0.16200000047683716
1779996196988800300,22.50080029296875,9.445050239562988,-0.12105000764131546,-0.17100000381469727
1779996197014715400,22.52671533203125,10.066950798034668,-0.13695000112056732,-0.21405000984668732
1779996197031992300,22.543992431640625,10.39995002746582,-0.13500000536441803,-0.25005000829696655
1779996197049269000,22.56126904296875,10.381050109863281,-0.10905000567436218,-0.2689500153064728
1779996197075184000,22.58718408203125,9.865950584411621,-0.13305000960826874,-0.23100000619888306
1779996197092461000,22.6044609375,9.462000846862793,-0.15900000929832458,-0.15900000929832458
1779996197109737700,22.62173779296875,9.30405044555664,-0.1399500072002411,-0.13500000536441803
1779996197127014400,22.639014404296876,9.457050323486328,-0.10905000567436218,-0.19005000591278076
1779996197144291300,22.656291259765624,9.832950592041016,-0.09405000507831573,-0.23295001685619354
1779996197161567700,22.673567626953126,10.258950233459473,-0.12105000764131546,-0.25995001196861267
1779996197178844700,22.6908447265625,10.450050354003906,-0.10395000129938126,-0.2670000195503235
1779996197196121600,22.70812158203125,10.266000747680664,-0.13305000960826874,-0.23100000619888306
1779996197213398300,22.725398193359375,9.87600040435791,-0.2070000171661377,-0.15195000171661377
1779996197230675200,22.74267529296875,9.448050498962402,-0.11805000901222229,-0.16200000047683716
1779996197247952000,22.759951904296877,9.262950897216797,-0.08505000174045563,-0.19500000774860382
1779996197265228500,22.777228515625,9.417000770568848,-0.0799500048160553,-0.21705001592636108
1779996197282505200,22.794505126953126,9.841950416564941,-0.09405000507831573,-0.22095000743865967
1779996197299782000,22.811781982421873,10.285050392150879,-0.15195000171661377,-0.21705001592636108
1779996197317058800,22.829058837890624,10.44795036315918,-0.19200000166893005,-0.20205001533031464
1779996197334335500,22.84633544921875,10.288050651550293,-0.12300000339746475,-0.24105000495910645
1779996197351612400,22.8636123046875,9.84000015258789,-0.09000000357627869,-0.2530499994754791
1779996197368889000,22.88088916015625,9.436050415039062,-0.09405000507831573,-0.2050500065088272
1779996197386165800,22.898165771484376,9.294000625610352,-0.11595000326633453,-0.1660500019788742
