time,seconds_elapsed,z,y,x
1779996174688684500,0.2006845703125,9.783891677856445,-0.14145499467849731,-0.6525740027427673
1779996174705961200,0.217961181640625,9.78398609161377,-0.14038099348545074,-0.6513789892196655
1779996174723238000,0.23523779296875,9.784150123596191,-0.13788700103759766,-0.6494470238685608
1779996174740514600,0.2525146484375,9.784210205078125,-0.13496699929237366,-0.6491559743881226
1779996174757791200,0.269791259765625,9.78408145904541,-0.13476000726222992,-0.6511430144309998
1779996174775068000,0.28706787109375,9.784062385559082,-0.13486100733280182,-0.6513969898223877
1779996174792344600,0.304344482421875,9.784031867980957,-0.1349789947271347,-0.6518319845199585
1779996174809621200,0.321621337890625,9.784003257751465,-0.13503000140190125,-0.6522619724273682
1779996174826898000,0.33889794921875,9.78398323059082,-0.13496600091457367,-0.6525610089302063
1779996174844174300,0.35617431640625,9.783976554870605,-0.13506099581718445,-0.6526479721069336
1779996174861451000,0.373450927734375,9.783967018127441,-0.13545900583267212,-0.6527220010757446
1779996174878728000,0.39072802734375,9.783937454223633,-0.13594800233840942,-0.6530560255050659
1779996174896004400,0.40800439453125,9.783905029296875,-0.1361519992351532,-0.6534879803657532
1779996174913281000,0.425281005859375,9.783916473388672,-0.13606500625610352,-0.6533330082893372
1779996174930557700,0.4425576171875,9.783974647521973,-0.1359959989786148,-0.6524890065193176
1779996174947834400,0.45983447265625,9.78404712677002,-0.1355070024728775,-0.6514710187911987
1779996174973749200,0.485749267578125,9.784112930297852,-0.13301700353622437,-0.6510000228881836
1779996174991026000,0.50302587890625,9.784132957458496,-0.1306840032339096,-0.6511470079421997
1779996175008302600,0.520302490234375,9.784167289733887,-0.12887899577617645,-0.6509929895401001
1779996175025579300,0.537579345703125,9.784197807312012,-0.12817199528217316,-0.6506789922714233
1779996175042856000,0.55485595703125,9.784170150756836,-0.12821899354457855,-0.6510859727859497
1779996175060132600,0.572132568359375,9.784061431884766,-0.1283389925956726,-0.6526979804039001
1779996175077409300,0.5894091796875,9.783896446228027,-0.12865400314331055,-0.655085027217865
1779996175094686000,0.60668603515625,9.78371810913086,-0.12973099946975708,-0.6575400233268738
1779996175120600800,0.632600830078125,9.783464431762695,-0.13154099881649017,-0.6609389781951904
1779996175137877500,0.64987744140625,9.783326148986816,-0.13173100352287292,-0.662958025932312
1779996175155154200,0.667154296875,9.783234596252441,-0.1308480054140091,-0.6644840240478516
1779996175172430800,0.684430908203125,9.783205032348633,-0.12932400405406952,-0.6652420163154602
1779996175189707500,0.70170751953125,9.783217430114746,-0.128261998295784,-0.6652500033378601
1779996175215622700,0.72762255859375,9.783263206481934,-0.12846800684928894,-0.6645429730415344
1779996175232899000,0.744899169921875,9.783283233642578,-0.12908199429512024,-0.6641280055046082
1779996175250175700,0.76217578125,9.78327465057373,-0.12990200519561768,-0.6640819907188416
1779996175267452400,0.779452392578125,9.78322696685791,-0.13085100054740906,-0.6646100282669067
1779996175284729000,0.79672900390625,9.783129692077637,-0.13233399391174316,-0.665736973285675
1779996175302005800,0.814005859375,9.782987594604492,-0.1343110054731369,-0.6674240231513977
1779996175319282200,0.8312822265625,9.782812118530273,-0.1358869969844818,-0.6696760058403015
1779996175336559000,0.84855908203125,9.78261947631836,-0.13675899803638458,-0.672336995601654
1779996175353835800,0.865835693359375,9.782404899597168,-0.13725799322128296,-0.6753069758415222
1779996175371112200,0.8831123046875,9.782174110412598,-0.1379060000181198,-0.678508996963501
1779996175388388900,0.900388916015625,9.78192138671875,-0.1389169991016388,-0.6819379925727844
1779996175405665500,0.91766552734375,9.781649589538574,-0.1398629993200302,-0.6856250166893005
1779996175422942500,0.9349423828125,9.781386375427246,-0.14042499661445618,-0.6892510056495667
1779996175448857000,0.960857177734375,9.78101634979248,-0.1414490044116974,-0.6942809820175171
1779996175466134000,0.978134033203125,9.780721664428711,-0.14218200743198395,-0.6982640027999878
1779996175483410700,0.99541064453125,9.780309677124023,-0.1421159952878952,-0.703993022441864
1779996175500687400,1.012687255859375,9.779812812805176,-0.14133000373840332,-0.7109209895133972
1779996175517964000,1.029964111328125,9.77931022644043,-0.1408659964799881,-0.7178120017051697
1779996175535240700,1.04724072265625,9.778875350952148,-0.141198992729187,-0.7236319780349731
1779996175552517600,1.064517578125,9.778571128845215,-0.1421390026807785,-0.7275739908218384
1779996175569794300,1.081794189453125,9.77841854095459,-0.14317600429058075,-0.7294780015945435
1779996175587070700,1.09907080078125,9.778422355651855,-0.14353400468826294,-0.729358971118927
1779996175604347400,1.116347412109375,9.778640747070312,-0.14361800253391266,-0.7263249754905701
1779996175621624000,1.1336240234375,9.779086112976074,-0.14445500075817108,-0.7200660109519958
1779996175638901000,1.15090087890625,9.7796630859375,-0.14578600227832794,-0.7119320034980774
1779996175656177700,1.168177734375,9.780263900756836,-0.1466049998998642,-0.703548014163971
1779996175673454300,1.185454345703125,9.780774116516113,-0.14682799577713013,-0.69650799036026
1779996175690731000,1.20273095703125,9.781105995178223,-0.1467059999704361,-0.6919249892234802
1779996175708007700,1.220007568359375,9.781259536743164,-0.14693500101566315,-0.6897410154342651
1779996175733922800,1.2459228515625,9.781248092651367,-0.14876699447631836,-0.6894869804382324
1779996175751199500,1.263199462890625,9.781142234802246,-0.15040700137615204,-0.6906219720840454
1779996175777114600,1.289114501953125,9.780913352966309,-0.15231899917125702,-0.6934469938278198
1779996175794391300,1.306391357421875,9.780756950378418,-0.15320199728012085,-0.695472002029419
1779996175811668000,1.32366796875,9.780617713928223,-0.1538189947605133,-0.6972990036010742
1779996175828944600,1.340944580078125,9.780515670776367,-0.15411199629306793,-0.6986749768257141
1779996175846221300,1.35822119140625,9.780452728271484,-0.15409600734710693,-0.6995729804039001
1779996175863498000,1.375498046875,9.780401229858398,-0.15364399552345276,-0.7003729939460754
1779996175880775000,1.39277490234375,9.780344009399414,-0.1526769995689392,-0.7014020085334778
1779996175898051600,1.410051513671875,9.78026008605957,-0.15154199302196503,-0.7027909755706787
1779996175915328300,1.427328369140625,9.780133247375488,-0.15063199400901794,-0.7047240138053894
1779996175932605000,1.44460498046875,9.779952049255371,-0.15004600584506989,-0.707364022731781
1779996175949881600,1.461881591796875,9.779729843139648,-0.14985400438308716,-0.7104380130767822
1779996175975796700,1.487796630859375,9.779348373413086,-0.15053999423980713,-0.7155259847640991
1779996175993073400,1.505073486328125,9.779070854187012,-0.15128900110721588,-0.719165027141571
1779996176010350300,1.522350341796875,9.77879810333252,-0.15171299874782562,-0.7227619886398315
1779996176027627000,1.539626953125,9.77856159210205,-0.15176300704479218,-0.7259719967842102
1779996176044903400,1.5569033203125,9.778376579284668,-0.1514510065317154,-0.7285379767417908
1779996176062180400,1.574180419921875,9.778244018554688,-0.15087899565696716,-0.730430006980896
1779996176079457000,1.59145703125,9.778141021728516,-0.15029600262641907,-0.7319250106811523
1779996176096734000,1.60873388671875,9.778046607971191,-0.14942799508571625,-0.7333800196647644
1779996176114010600,1.6260107421875,9.777946472167969,-0.1487099975347519,-0.7348610162734985
1779996176131287600,1.64328759765625,9.777795791625977,-0.1484369933605194,-0.7369109988212585
1779996176148564200,1.660564208984375,9.777523040771484,-0.14803199470043182,-0.740556001663208
1779996176165841200,1.677841064453125,9.77708911895752,-0.14635400474071503,-0.7464540004730225
1779996176183117800,1.695117919921875,9.776477813720703,-0.14405600726604462,-0.7547000050544739
1779996176209032700,1.72103271484375,9.775315284729004,-0.1409360021352768,-0.7699769735336304
1779996176226309600,1.7383095703125,9.774542808532715,-0.13933299481868744,-0.7800220251083374
1779996176243586300,1.75558642578125,9.773984909057617,-0.13962000608444214,-0.7870839834213257
1779996176260863000,1.772863037109375,9.77418041229248,-0.14130499958992004,-0.7840279936790466
1779996176278139600,1.7901396484375,9.776369094848633,-0.13124799728393555,-0.7516229748725891
1779996176295416600,1.80741650390625,9.780136108398438,-0.13781000673770905,-0.669933021068573
1779996176312693200,1.824693359375,9.784274101257324,-0.1379929929971695,-0.5449489951133728
1779996176329970000,1.841969970703125,9.78847599029541,-0.12206599861383438,-0.406358003616333
1779996176355885300,1.86788525390625,9.795228958129883,-0.08490200340747833,-0.2453169971704483
1779996176373162000,1.885161865234375,9.79840087890625,-0.07988200336694717,-0.19342899322509766
1779996176390439000,1.90243896484375,9.799216270446777,-0.07841300219297409,-0.18166500329971313
1779996176407715600,1.919715576171875,9.798417091369629,-0.07423499971628189,-0.19607999920845032
1779996176424992500,1.936992431640625,9.797699928283691,-0.07569299638271332,-0.22228999435901642
1779996176442269400,1.95426953125,9.797905921936035,-0.06621299684047699,-0.24641700088977814
1779996176459546000,1.971546142578125,9.798059463500977,-0.06341999769210815,-0.2538979947566986
1779996176476822800,1.98882275390625,9.797924041748047,-0.06580100208520889,-0.239997997879982
1779996176494099500,2.006099365234375,9.798336029052734,-0.06143200024962425,-0.21296299993991852
1779996176511376400,2.02337646484375,9.79965877532959,-0.0507190003991127,-0.18712599575519562
1779996176528653000,2.040653076171875,9.800129890441895,-0.06278400123119354,-0.17781299352645874
1779996176545930000,2.057929931640625,9.79940414428711,-0.05254200100898743,-0.19277699291706085
1779996176563206700,2.07520654296875,9.798519134521484,-0.05720600113272667,-0.22047699987888336
1779996176589121800,2.101121826171875,9.798574447631836,-0.06802300363779068,-0.25152599811553955
1779996176606398700,2.118398681640625,9.798519134521484,-0.0824970006942749,-0.24970099329948425
1779996176623675400,2.13567529296875,9.798425674438477,-0.09862399846315384,-0.22987000644207
1779996176658229200,2.170229248046875,9.800044059753418,-0.09709499776363373,-0.1879120022058487
1779996176675506000,2.187505859375,9.79997444152832,-0.10273800045251846,-0.18852299451828003
1779996176692782800,2.204782958984375,9.799225807189941,-0.09647200256586075,-0.20665700733661652
1779996176710059500,2.2220595703125,9.798755645751953,-0.10294000059366226,-0.2292270064353943
1779996176727336400,2.23933642578125,9.798761367797852,-0.11397799849510193,-0.24361799657344818
1779996176744613000,2.256613037109375,9.79868221282959,-0.11905000358819962,-0.24218499660491943
1779996176761889800,2.273889892578125,9.798654556274414,-0.11554200202226639,-0.2265319973230362
1779996176779166700,2.291166748046875,9.799304962158203,-0.10858199745416641,-0.20310799777507782
1779996176796443600,2.308443603515625,9.800159454345703,-0.11493799835443497,-0.1847819983959198
1779996176813720600,2.325720458984375,9.80030632019043,-0.10940399765968323,-0.18338899314403534
1779996176830997200,2.342997314453125,9.79959487915039,-0.11202800273895264,-0.19795699417591095
1779996176848274200,2.360274169921875,9.799223899841309,-0.10997200012207031,-0.21886999905109406
1779996176865551000,2.377551025390625,9.799367904663086,-0.1068980023264885,-0.23432600498199463
1779996176882827800,2.394827880859375,9.799294471740723,-0.11290399730205536,-0.23407700657844543
1779996176908743200,2.4207431640625,9.799392700195312,-0.11310700327157974,-0.20785999298095703
1779996176926020000,2.43802001953125,9.800206184387207,-0.10989700257778168,-0.18668699264526367
1779996176943296800,2.455296875,9.800745010375977,-0.11481799930334091,-0.1762309968471527
1779996176969212000,2.4812119140625,9.800073623657227,-0.1108120009303093,-0.19148799777030945
1779996176986488800,2.49848876953125,9.799677848815918,-0.11260499805212021,-0.21106499433517456
1779996177003765800,2.515765869140625,9.799811363220215,-0.10889200121164322,-0.2256069928407669
1779996177021042400,2.53304248046875,9.799769401550293,-0.11216399818658829,-0.22552500665187836
1779996177038319400,2.5503193359375,9.79967975616455,-0.11436600238084793,-0.21033599972724915
1779996177055596300,2.56759619140625,9.800187110900879,-0.10898800194263458,-0.18869100511074066
1779996177072873200,2.584873291015625,9.800934791564941,-0.11287900060415268,-0.17146599292755127
1779996177098788400,2.610788330078125,9.800874710083008,-0.1086139976978302,-0.17399899661540985
1779996177116065300,2.628065185546875,9.80027961730957,-0.11231900006532669,-0.1908320039510727
1779996177133342200,2.64534228515625,9.80020809173584,-0.10934799909591675,-0.20867399871349335
1779996177150619100,2.662619140625,9.800313949584961,-0.10941699892282486,-0.21675099432468414
1779996177167895800,2.679895751953125,9.800188064575195,-0.11246699839830399,-0.20941400527954102
1779996177185172700,2.6971728515625,9.800312042236328,-0.11016099900007248,-0.19070500135421753
1779996177202449700,2.71444970703125,9.800999641418457,-0.10799399763345718,-0.17013800144195557
1779996177228365000,2.740364990234375,9.801529884338379,-0.10841099917888641,-0.15973100066184998
1779996177245642000,2.75764208984375,9.801039695739746,-0.10815100371837616,-0.17124499380588531
1779996177262918700,2.774918701171875,9.800700187683105,-0.10863900184631348,-0.18900300562381744
1779996177280195600,2.792195556640625,9.80080509185791,-0.10572700202465057,-0.20263999700546265
1779996177297472500,2.809472412109375,9.800787925720215,-0.10828900337219238,-0.20342899858951569
1779996177314749200,2.826749267578125,9.800700187683105,-0.10913699865341187,-0.19003500044345856
1779996177332026000,2.844026123046875,9.801098823547363,-0.10431300103664398,-0.16967499256134033
1779996177357941200,2.869941162109375,9.80195426940918,-0.10790400207042694,-0.14896899461746216
1779996177375218200,2.88721826171875,9.801785469055176,-0.10369300097227097,-0.15345899760723114
1779996177392495000,2.9044951171875,9.80128288269043,-0.106454998254776,-0.16863800585269928
1779996177418410500,2.930410400390625,9.801284790039062,-0.10248100012540817,-0.19079799950122833
1779996177435687400,2.9476875,9.801273345947266,-0.10488700121641159,-0.19180600345134735
1779996177452964400,2.96496435546875,9.80118465423584,-0.10507199913263321,-0.179189994931221
1779996177478879500,2.99087939453125,9.80184555053711,-0.10146799683570862,-0.14990399777889252
1779996177496156400,3.008156494140625,9.802351951599121,-0.1032319962978363,-0.1386609971523285
1779996177513433300,3.025433349609375,9.802227020263672,-0.0994969978928566,-0.14222800731658936
1779996177530710000,3.0427099609375,9.801774024963379,-0.10170599818229675,-0.15649199485778809
1779996177547987000,3.059987060546875,9.801716804504395,-0.09798800200223923,-0.17277100682258606
1779996177565264000,3.077263916015625,9.801804542541504,-0.09894900023937225,-0.18068300187587738
1779996177591179000,3.103178955078125,9.801677703857422,-0.09970699995756149,-0.1671070009469986
1779996177608456000,3.1204560546875,9.80197525024414,-0.09563399851322174,-0.14725500345230103
1779996177625732900,3.13773291015625,9.802559852600098,-0.09850399941205978,-0.13018299639225006
1779996177643009800,3.155009765625,9.80280590057373,-0.09521699696779251,-0.12564900517463684
1779996177660286700,3.17228662109375,9.80245590209961,-0.09564699977636337,-0.13469499349594116
1779996177686202000,3.1982021484375,9.80222225189209,-0.09246999770402908,-0.15747599303722382
1779996177703479000,3.21547900390625,9.802298545837402,-0.0936719998717308,-0.16480199992656708
1779996177720756000,3.232755859375,9.802206039428711,-0.09513799846172333,-0.15922799706459045
1779996177746671000,3.258671142578125,9.80239486694336,-0.0913499966263771,-0.1326179951429367
1779996177763948000,3.275947998046875,9.802924156188965,-0.09374599903821945,-0.11595699936151505
1779996177781225000,3.293224853515625,9.803168296813965,-0.09092599898576736,-0.11110100150108337
1779996177807140400,3.319140380859375,9.802706718444824,-0.09150700271129608,-0.12620200216770172
1779996177824417300,3.336417236328125,9.802663803100586,-0.08864399790763855,-0.14076900482177734
1779996177841694200,3.353694091796875,9.802745819091797,-0.08970800042152405,-0.14802099764347076
1779996177858971100,3.37097119140625,9.802657127380371,-0.09063699841499329,-0.14290300011634827
1779996177876248000,3.388248046875,9.80263614654541,-0.08849000185728073,-0.12715700268745422
1779996177893524700,3.405524658203125,9.803000450134277,-0.08883299678564072,-0.10897299647331238
1779996177910801700,3.4228017578125,9.803424835205078,-0.08872900158166885,-0.09799599647521973
1779996177928078600,3.44007861328125,9.80335521697998,-0.08731699734926224,-0.10014600306749344
1779996177945355500,3.45735546875,9.803019523620605,-0.08765500038862228,-0.11266999691724777
1779996177971271000,3.48327099609375,9.803030014038086,-0.08600299805402756,-0.1322370022535324
1779996177988547800,3.5005478515625,9.803055763244629,-0.0872960016131401,-0.13441899418830872
1779996178005824800,3.51782470703125,9.802934646606445,-0.08704899996519089,-0.12421400099992752
1779996178023101700,3.535101806640625,9.803071975708008,-0.08557599782943726,-0.10669200122356415
1779996178040378600,3.552378662109375,9.803500175476074,-0.08646100014448166,-0.09152799844741821
1779996178057655600,3.569655517578125,9.803702354431152,-0.08498899638652802,-0.08684699982404709
1779996178074932500,3.586932373046875,9.803446769714355,-0.08501599729061127,-0.09445499628782272
1779996178092209400,3.60420947265625,9.803251266479492,-0.08363199979066849,-0.1084659993648529
1779996178118124800,3.630124755859375,9.80337142944336,-0.0837789997458458,-0.12314300239086151
1779996178135401700,3.647401611328125,9.80331039428711,-0.08453100174665451,-0.1199290007352829
1779996178152678700,3.6646787109375,9.803253173828125,-0.08376900106668472,-0.10610800236463547
1779996178169955600,3.68195556640625,9.803528785705566,-0.08463200181722641,-0.08917699754238129
1779996178187232500,3.699232421875,9.803885459899902,-0.08456200361251831,-0.07887499779462814
1779996178204509400,3.716509521484375,9.803816795349121,-0.08444400131702423,-0.08080600202083588
1779996178221786400,3.733786376953125,9.803522109985352,-0.08420299738645554,-0.09299600124359131
1779996178239063300,3.751063232421875,9.803479194641113,-0.0834370031952858,-0.10712800174951553
1779996178256340000,3.768340087890625,9.803576469421387,-0.08431199938058853,-0.11502599716186523
1779996178273617000,3.785616943359375,9.803525924682617,-0.08475799858570099,-0.11227799952030182
1779996178290893800,3.802893798828125,9.803464889526367,-0.0843529999256134,-0.09956300258636475
1779996178308170800,3.820170654296875,9.80370044708252,-0.08519499748945236,-0.08400999754667282
1779996178334086100,3.846086181640625,9.804007530212402,-0.085377998650074,-0.07474099844694138
1779996178351363000,3.863363037109375,9.803744316101074,-0.08576200157403946,-0.08296000212430954
1779996178368640000,3.880639892578125,9.803542137145996,-0.08526799827814102,-0.09747599810361862
1779996178385917000,3.8979169921875,9.80361270904541,-0.08555199950933456,-0.11006099730730057
1779996178403193900,3.91519384765625,9.803671836853027,-0.08605699986219406,-0.11385499686002731
1779996178429109200,3.941109130859375,9.803571701049805,-0.08594699949026108,-0.09946399927139282
1779996178446386200,3.95838623046875,9.80379581451416,-0.08645699918270111,-0.0843299999833107
1779996178463663000,3.9756630859375,9.804091453552246,-0.08671200275421143,-0.07506299763917923
1779996178489578500,4.00157861328125,9.80387020111084,-0.08659099787473679,-0.08226300030946732
1779996178506855400,4.01885546875,9.803677558898926,-0.08606000244617462,-0.09628000110387802
1779996178524132400,4.03613232421875,9.803741455078125,-0.08598099648952484,-0.10862399637699127
1779996178541409300,4.0534091796875,9.803799629211426,-0.08636800199747086,-0.11237400025129318
1779996178558686500,4.0706865234375,9.803712844848633,-0.0863649994134903,-0.10517200082540512
1779996178575963400,4.08796337890625,9.803775787353516,-0.08626800030469894,-0.09097900241613388
1779996178593240000,4.105239990234375,9.8040771484375,-0.08703400194644928,-0.07829199731349945
1779996178610517200,4.122517333984375,9.804201126098633,-0.08692199736833572,-0.0747700035572052
1779996178627794200,4.139794189453125,9.803958892822266,-0.08706799894571304,-0.08257000148296356
1779996178653709600,4.16570947265625,9.803762435913086,-0.08643200248479843,-0.1037990003824234
1779996178670986500,4.182986572265625,9.803861618041992,-0.08678100258111954,-0.1126210018992424
1779996178688263400,4.200263427734375,9.803833961486816,-0.08714500069618225,-0.11101499944925308
1779996178714178800,4.2261787109375,9.803844451904297,-0.08713500201702118,-0.0921429991722107
1779996178731456000,4.2434560546875,9.804137229919434,-0.08773999661207199,-0.0794529989361763
1779996178748733000,4.26073291015625,9.804265975952148,-0.08758600056171417,-0.07577700167894363
1779996178774648300,4.2866484375,9.803899765014648,-0.08746100217103958,-0.08997099846601486
1779996178791925200,4.30392529296875,9.803829193115234,-0.08712899684906006,-0.10403099656105042
1779996178809202200,4.3212021484375,9.80392074584961,-0.08748900145292282,-0.1128460019826889
1779996178826479000,4.33847900390625,9.803902626037598,-0.08779899775981903,-0.11177799850702286
1779996178843756300,4.35575634765625,9.803853034973145,-0.08773499727249146,-0.10142599791288376
1779996178861033200,4.373033203125,9.804035186767578,-0.08821699768304825,-0.08780399709939957
1779996178878310100,4.39031005859375,9.804289817810059,-0.0886240005493164,-0.07925199717283249
1779996178895587000,4.407587158203125,9.804227828979492,-0.088687002658844,-0.08103100210428238
1779996178912864300,4.4248642578125,9.803956985473633,-0.08869899809360504,-0.09221000224351883
1779996178930141200,4.44214111328125,9.803877830505371,-0.08846499770879745,-0.1060120016336441
1779996178947418000,4.459418212890625,9.803961753845215,-0.08881500363349915,-0.11499299854040146
1779996178964695000,4.476695068359375,9.803950309753418,-0.08915399760007858,-0.11427900195121765
1779996178981972000,4.493971923828125,9.803906440734863,-0.08914600312709808,-0.10428400337696075
1779996178999249000,4.511248779296875,9.804083824157715,-0.08952700346708298,-0.09085799753665924
1779996179016526000,4.528526123046875,9.804338455200195,-0.08982399851083755,-0.08225800096988678
1779996179033803000,4.545802978515625,9.804286003112793,-0.08969999849796295,-0.08379799872636795
1779996179059718400,4.571718505859375,9.803951263427734,-0.0892689973115921,-0.10134900361299515
1779996179076995300,4.588995361328125,9.803975105285645,-0.0891449972987175,-0.1132970005273819
1779996179094272500,4.6062724609375,9.80402946472168,-0.0893549993634224,-0.11762499809265137
1779996179111549700,4.6235498046875,9.803971290588379,-0.08937700092792511,-0.11199399828910828
1779996179128826400,4.640826416015625,9.804024696350098,-0.08938899636268616,-0.09957800060510635
1779996179146103600,4.658103515625,9.804278373718262,-0.08990100026130676,-0.08795899897813797
1779996179163380700,4.675380615234375,9.804401397705078,-0.08995799720287323,-0.08425299823284149
1779996179180657700,4.69265771484375,9.804197311401367,-0.08996500074863434,-0.09091400355100632
1779996179197934600,4.7099345703125,9.803986549377441,-0.08966699987649918,-0.10386499762535095
1779996179215211800,4.727211669921875,9.804001808166504,-0.08962800353765488,-0.11580400168895721
1779996179232488700,4.74448876953125,9.804048538208008,-0.08997199684381485,-0.12012600153684616
1779996179249765600,4.761765625,9.803996086120605,-0.09017299860715866,-0.11462300270795822
1779996179267042600,4.77904248046875,9.804045677185059,-0.09026599675416946,-0.1024940013885498
1779996179284319500,4.796319580078125,9.804290771484375,-0.09084899723529816,-0.09108000248670578
1779996179301596700,4.8135966796875,9.804417610168457,-0.09094800055027008,-0.08723899722099304
1779996179318873600,4.83087353515625,9.804229736328125,-0.09100800007581711,-0.09335699677467346
1779996179344789200,4.856789306640625,9.804004669189453,-0.09072799980640411,-0.11208300292491913
1779996179362066200,4.874066162109375,9.804065704345703,-0.09096500277519226,-0.12090399861335754
1779996179379343400,4.89134326171875,9.804061889648438,-0.09128200262784958,-0.12077700346708298
1779996179405258500,4.917258544921875,9.804083824157715,-0.0914900004863739,-0.10547100007534027
1779996179422535700,4.93453564453125,9.804325103759766,-0.09200700372457504,-0.09420700371265411
1779996179439812900,4.951812744140625,9.804450035095215,-0.09213399887084961,-0.09035199880599976
1779996179457089800,4.96908984375,9.804262161254883,-0.09208100289106369,-0.09647300094366074
1779996179474367000,4.986366943359375,9.804052352905273,-0.0918470025062561,-0.10876400023698807
1779996179491644000,5.003643798828125,9.804046630859375,-0.09174899756908417,-0.12036799639463425
1779996179508920800,5.0209208984375,9.804093360900879,-0.0919869989156723,-0.12493100017309189
1779996179526198000,5.038197998046875,9.804051399230957,-0.09214100241661072,-0.12019799649715424
1779996179543475000,5.055474853515625,9.80410385131836,-0.09220899641513824,-0.10898999869823456
1779996179569390300,5.081390380859375,9.804430961608887,-0.09279300272464752,-0.09505099803209305
1779996179586667300,5.098667236328125,9.804400444030762,-0.09283799678087234,-0.09594400227069855
1779996179603944400,5.1159443359375,9.804160118103027,-0.09283100068569183,-0.10545700043439865
1779996179621221400,5.133221435546875,9.804047584533691,-0.09267599880695343,-0.11792699992656708
1779996179638498300,5.150498291015625,9.804094314575195,-0.09285099804401398,-0.12670700252056122
1779996179655775500,5.167775390625,9.804094314575195,-0.09312500059604645,-0.12700699269771576
1779996179673052400,5.185052490234375,9.804073333740234,-0.09329699724912643,-0.11880400031805038
1779996179698967800,5.2109677734375,9.804353713989258,-0.09392999857664108,-0.10191299766302109
1779996179716245000,5.228244873046875,9.804488182067871,-0.09412500262260437,-0.09773000329732895
1779996179733522000,5.24552197265625,9.804325103759766,-0.09414000064134598,-0.10305699706077576
1779996179759437300,5.271437255859375,9.804082870483398,-0.09382700175046921,-0.12071099877357483
1779996179776714500,5.288714599609375,9.804120063781738,-0.09394499659538269,-0.12923899292945862
1779996179793991400,5.305991455078125,9.804121017456055,-0.09416799992322922,-0.12942199409008026
1779996179811268400,5.323268310546875,9.804102897644043,-0.0942159965634346,-0.12129899859428406
1779996179828545300,5.340545166015625,9.804254531860352,-0.09447100013494492,-0.10966800153255463
1779996179845822500,5.357822509765625,9.804473876953125,-0.0947289988398552,-0.10165400058031082
1779996179863099400,5.375099365234375,9.804458618164062,-0.09465499967336655,-0.10216999799013138
1779996179889014800,5.401014892578125,9.804147720336914,-0.09434899687767029,-0.11694300174713135
1779996179906292000,5.4182919921875,9.804118156433105,-0.0942320004105568,-0.12807999551296234
1779996179923569000,5.43556884765625,9.804154396057129,-0.09439100325107574,-0.13312800228595734
1779996179940846000,5.45284619140625,9.804128646850586,-0.0945030003786087,-0.12942999601364136
1779996179966761500,5.478761474609375,9.804278373718262,-0.09477899968624115,-0.11367099732160568
1779996179984038700,5.49603857421875,9.804486274719238,-0.09517599642276764,-0.1060120016336441
1779996180001315600,5.513315673828125,9.80446720123291,-0.09522700309753418,-0.10659799724817276
1779996180018592500,5.530592529296875,9.80423641204834,-0.09519899636507034,-0.11549600213766098
1779996180035869400,5.547869384765625,9.804101943969727,-0.09500700235366821,-0.12745599448680878
1779996180053146600,5.565146728515625,9.804122924804688,-0.09514400362968445,-0.13612499833106995
1779996180070423800,5.582423828125,9.804125785827637,-0.09544400125741959,-0.1368899941444397
1779996180087700700,5.59970068359375,9.804118156433105,-0.09561099857091904,-0.12972499430179596
1779996180104977700,5.616977783203125,9.804258346557617,-0.09589000046253204,-0.11891700327396393
1779996180122254800,5.6342548828125,9.804459571838379,-0.09632200002670288,-0.11145699769258499
1779996180139531800,5.65153173828125,9.804439544677734,-0.09643200039863586,-0.11201799660921097
1779996180156808700,5.66880859375,9.804213523864746,-0.0964680016040802,-0.12058000266551971
1779996180182724000,5.69472412109375,9.804070472717285,-0.09639299660921097,-0.13726800680160522
1779996180200001300,5.712001220703125,9.804097175598145,-0.09661199897527695,-0.14255400002002716
1779996180217278200,5.7292783203125,9.804080963134766,-0.09686899930238724,-0.13955700397491455
1779996180243193600,5.755193603515625,9.804226875305176,-0.09730199724435806,-0.1251010000705719
1779996180260470800,5.772470703125,9.804422378540039,-0.09772799909114838,-0.1178710013628006
1779996180277747700,5.789747802734375,9.804400444030762,-0.0978659987449646,-0.11845000088214874
1779996180303663000,5.8156630859375,9.804073333740234,-0.09780199825763702,-0.1327739953994751
1779996180320940300,5.832940185546875,9.804009437561035,-0.09780800342559814,-0.14365600049495697
1779996180338217200,5.85021728515625,9.804031372070312,-0.0980520024895668,-0.1488959938287735
1779996180364132600,5.876132568359375,9.80402660369873,-0.09837900102138519,-0.14180299639701843
1779996180381409800,5.893409912109375,9.804169654846191,-0.09857799857854843,-0.1314370036125183
1779996180398686700,5.910686767578125,9.804373741149902,-0.09881400316953659,-0.12398400157690048
1779996180424602600,5.9366025390625,9.804271697998047,-0.09872400015592575,-0.12732499837875366
1779996180441879600,5.953879638671875,9.804056167602539,-0.09848900139331818,-0.13759300112724304
1779996180459156500,5.971156494140625,9.803985595703125,-0.09838300198316574,-0.1481039971113205
1779996180476433400,5.988433349609375,9.804001808166504,-0.09851600229740143,-0.15328000485897064
1779996180493710600,6.005710693359375,9.80399227142334,-0.0987050011754036,-0.15054599940776825
1779996180510987500,6.022987548828125,9.804052352905273,-0.09890300035476685,-0.14175300300121307
1779996180528264400,6.040264404296875,9.804250717163086,-0.09933999925851822,-0.13238899409770966
1779996180545541600,6.057541748046875,9.804373741149902,-0.09960100054740906,-0.12841999530792236
1779996180562818600,6.074818603515625,9.804240226745605,-0.09969999641180038,-0.1325870007276535
1779996180588734000,6.10073388671875,9.803964614868164,-0.09954799711704254,-0.14803600311279297
1779996180606011000,6.118010986328125,9.803950309753418,-0.09967199712991714,-0.15631699562072754
1779996180623288000,6.1352880859375,9.803953170776367,-0.09989500045776367,-0.1576080024242401
1779996180649203500,6.161203369140625,9.804010391235352,-0.1001650020480156,-0.14674200117588043
1779996180666480400,6.17848046875,9.804207801818848,-0.10054899752140045,-0.13749100267887115
1779996180683757600,6.195757568359375,9.804332733154297,-0.10076700150966644,-0.13350200653076172
1779996180701034500,6.213034423828125,9.804203033447266,-0.10085099935531616,-0.13751700520515442
1779996180718311400,6.2303115234375,9.803984642028809,-0.10077200084924698,-0.14734800159931183
1779996180735588400,6.24758837890625,9.8038969039917,-0.1007699966430664,-0.15762199461460114
1779996180752865500,6.264865478515625,9.803902626037598,-0.10100799798965454,-0.16287100315093994
1779996180778781000,6.290781005859375,9.803909301757812,-0.10139399766921997,-0.1566620022058487
1779996180796057900,6.308057861328125,9.80405044555664,-0.10168900340795517,-0.1469389945268631
1779996180813335000,6.3253349609375,9.80424976348877,-0.10204599797725677,-0.13961300253868103
1779996180839250400,6.35125048828125,9.804177284240723,-0.10212299972772598,-0.14194700121879578
1779996180856527400,6.36852734375,9.803967475891113,-0.10196100175380707,-0.15126599371433258
1779996180873804500,6.385804443359375,9.803874969482422,-0.10182400047779083,-0.16116799414157867
1779996180899720000,6.411719970703125,9.803874969482422,-0.1019819974899292,-0.16608500480651855
1779996180916997000,6.4289970703125,9.803889274597168,-0.10213100165128708,-0.1603890061378479
1779996180934274300,6.4462744140625,9.80402946472168,-0.10239499807357788,-0.15090599656105042
1779996180960189400,6.472189453125,9.804264068603516,-0.10284899920225143,-0.1424809992313385
1779996180977466600,6.489466552734375,9.804150581359863,-0.1029599979519844,-0.14592400193214417
1779996180994743600,6.50674365234375,9.803938865661621,-0.10291600227355957,-0.15508399903774261
1779996181012020700,6.524020751953125,9.803839683532715,-0.1029530018568039,-0.16482199728488922
1779996181029297700,6.541297607421875,9.803834915161133,-0.10321299731731415,-0.16979800164699554
1779996181046574600,6.55857470703125,9.803831100463867,-0.10350999981164932,-0.16740599274635315
1779996181063851800,6.575851806640625,9.803897857666016,-0.10372599959373474,-0.15919800102710724
1779996181089767000,6.601766845703125,9.804182052612305,-0.10414700210094452,-0.14718599617481232
1779996181107044000,6.619044189453125,9.804201126098633,-0.10420499742031097,-0.14659400284290314
1779996181124321300,6.6363212890625,9.804012298583984,-0.10412900149822235,-0.15312400460243225
1779996181141598200,6.65359814453125,9.803845405578613,-0.1038919985294342,-0.16291600465774536
1779996181158875100,6.670875244140625,9.803805351257324,-0.10377799719572067,-0.17085599899291992
1779996181176152000,6.688152099609375,9.803807258605957,-0.10379300266504288,-0.1726910024881363
1779996181193429200,6.70542919921875,9.803827285766602,-0.10388600081205368,-0.1676969975233078
1779996181210706200,6.7227060546875,9.80395793914795,-0.10407699644565582,-0.15881399810314178
1779996181236621600,6.74862158203125,9.804194450378418,-0.10446999967098236,-0.15044400095939636
1779996181253898500,6.7658984375,9.804094314575195,-0.1044899970293045,-0.15347400307655334
1779996181271175700,6.78317578125,9.80388355255127,-0.10438799858093262,-0.1622209995985031
1779996181297091300,6.80909130859375,9.803762435913086,-0.10441199690103531,-0.17520999908447266
1779996181314368000,6.826367919921875,9.803759574890137,-0.10460399836301804,-0.17699000239372253
1779996181331645200,6.843645263671875,9.803778648376465,-0.10478899627923965,-0.1718669980764389
1779996181348922400,6.86092236328125,9.803913116455078,-0.10501199960708618,-0.16298900544643402
1779996181366199300,6.87819921875,9.804104804992676,-0.10528700053691864,-0.15593600273132324
1779996181383476200,6.895476318359375,9.804133415222168,-0.10538399964570999,-0.1550620049238205
1779996181400753200,6.912753173828125,9.803956031799316,-0.10535600036382675,-0.16109499335289001
1779996181418030000,6.930030029296875,9.80378246307373,-0.10523000359535217,-0.17049799859523773
1779996181435307300,6.947307373046875,9.803729057312012,-0.10525599867105484,-0.17826400697231293
1779996181452584200,6.964584228515625,9.803725242614746,-0.10538200289011002,-0.18023300170898438
1779996181469861400,6.981861328125,9.80374526977539,-0.1055620014667511,-0.17560799419879913
1779996181487138300,6.99913818359375,9.803874015808105,-0.10578099638223648,-0.1672070026397705
1779996181504415200,7.016415283203125,9.804059982299805,-0.10610499978065491,-0.16035999357700348
1779996181521692400,7.0336923828125,9.804091453552246,-0.10622899979352951,-0.159402996301651
1779996181538969300,7.05096923828125,9.80391788482666,-0.10621699690818787,-0.16519999504089355
1779996181556246300,7.068246337890625,9.803743362426758,-0.1060980036854744,-0.174344003200531
1779996181573523200,7.085523193359375,9.803686141967773,-0.10604999959468842,-0.1818860024213791
1779996181599438800,7.11143896484375,9.80368709564209,-0.10624700039625168,-0.18203599750995636
1779996181616715800,7.1287158203125,9.803757667541504,-0.10634399950504303,-0.17484299838542938
1779996181633992700,7.14599267578125,9.803938865661621,-0.10646799951791763,-0.16649100184440613
1779996181651270000,7.163269775390625,9.804076194763184,-0.10648400336503983,-0.16211700439453125
1779996181668546800,7.180546875,9.803997993469238,-0.10632199794054031,-0.16456399857997894
1779996181685823700,7.19782373046875,9.803796768188477,-0.10605999827384949,-0.17253799736499786
1779996181703100700,7.2151005859375,9.803671836853027,-0.10589899867773056,-0.18167099356651306
1779996181720377600,7.232377685546875,9.80364990234375,-0.105833999812603,-0.18705900013446808
1779996181737654800,7.24965478515625,9.803653717041016,-0.10591399669647217,-0.1859470009803772
1779996181763570400,7.2755703125,9.803799629211426,-0.1061370000243187,-0.17500999569892883
1779996181780847400,7.292847412109375,9.803985595703125,-0.10641200095415115,-0.168162003159523
1779996181798124300,7.310124267578125,9.804027557373047,-0.10649900138378143,-0.16687099635601044
1779996181824040000,7.3360400390625,9.80377197265625,-0.10628499835729599,-0.17629800736904144
1779996181841316900,7.35331689453125,9.80364990234375,-0.10614199936389923,-0.1848600059747696
1779996181858593800,7.37059375,9.803624153137207,-0.10615699738264084,-0.18967799842357635
1779996181875870700,7.38787060546875,9.803628921508789,-0.10629399865865707,-0.18800699710845947
1779996181893148000,7.40514794921875,9.80370044708252,-0.10643299669027328,-0.18090400099754333
1779996181910424800,7.4224248046875,9.80388069152832,-0.1066100001335144,-0.17260800302028656
1779996181927701800,7.43970166015625,9.804020881652832,-0.10673700273036957,-0.1680620014667511
1779996181944978700,7.456978759765625,9.803955078125,-0.10674499720335007,-0.17003700137138367
1779996181962256000,7.474255859375,9.803763389587402,-0.10660800337791443,-0.17736299335956573
1779996181979532800,7.49153271484375,9.803638458251953,-0.10655300319194794,-0.18589599430561066
1779996181996809700,7.508809814453125,9.803608894348145,-0.10663300007581711,-0.1909630000591278
1779996182022725000,7.53472509765625,9.803629875183105,-0.10694500058889389,-0.18715299665927887
1779996182040002300,7.552002197265625,9.803751945495605,-0.10719700157642365,-0.17936000227928162
1779996182057279200,7.569279296875,9.803929328918457,-0.10754799842834473,-0.17268000543117523
1779996182074556200,7.58655615234375,9.803976058959961,-0.10775700211524963,-0.1711679995059967
1779996182091833300,7.603833251953125,9.80383014678955,-0.1078609973192215,-0.17590199410915375
1779996182109110300,7.6211103515625,9.803656578063965,-0.10781999677419662,-0.1841219961643219
1779996182126387200,7.63838720703125,9.803584098815918,-0.10780099779367447,-0.1914830058813095
1779996182143664000,7.6556640625,9.803571701049805,-0.10789600014686584,-0.19395500421524048
1779996182160941300,7.67294140625,9.803594589233398,-0.10807999968528748,-0.1903039962053299
1779996182178218200,7.69021826171875,9.80371379852295,-0.10833100229501724,-0.18278400599956512
1779996182204133600,7.716133544921875,9.803936004638672,-0.10874299705028534,-0.17473700642585754
1779996182221410600,7.73341064453125,9.803874969482422,-0.10878899693489075,-0.17660200595855713
1779996182238687700,7.750687744140625,9.80368423461914,-0.10867100208997726,-0.18375900387763977
1779996182255964700,7.767964599609375,9.803549766540527,-0.10861600190401077,-0.19211499392986298
1779996182273241600,7.78524169921875,9.803513526916504,-0.10867799818515778,-0.19715699553489685
1779996182290518500,7.8025185546875,9.803516387939453,-0.10888099670410156,-0.19626100361347198
1779996182307795700,7.819795654296875,9.803583145141602,-0.10908699780702591,-0.19017000496387482
1779996182325072600,7.83707275390625,9.803746223449707,-0.10927099734544754,-0.18258699774742126
1779996182342349600,7.854349609375,9.803877830505371,-0.10937400162220001,-0.17831000685691833
1779996182359626500,7.87162646484375,9.803823471069336,-0.10935100167989731,-0.17993000149726868
1779996182376903700,7.888903564453125,9.803644180297852,-0.10920500010251999,-0.18664799630641937
1779996182394180600,7.9061806640625,9.803509712219238,-0.10906200110912323,-0.19475699961185455
1779996182411457500,7.92345751953125,9.803471565246582,-0.1090100035071373,-0.19984500110149384
1779996182428734500,7.940734375,9.80347728729248,-0.10903900116682053,-0.19923000037670135
1779996182446011400,7.958011474609375,9.80354118347168,-0.10912100225687027,-0.19349299371242523
1779996182463288300,7.975288330078125,9.803701400756836,-0.10937900096178055,-0.18609300255775452
1779996182489204000,8.001203857421874,9.8038330078125,-0.10969699919223785,-0.18176700174808502
1779996182506481000,8.01848095703125,9.803693771362305,-0.10969799757003784,-0.18620899319648743
1779996182523757800,8.0357578125,9.803519248962402,-0.10958299785852432,-0.19405099749565125
1779996182549673200,8.061673095703124,9.803422927856445,-0.10950300097465515,-0.2029699981212616
1779996182566950400,8.078950439453125,9.803425788879395,-0.1095919981598854,-0.20231999456882477
1779996182584227300,8.096227294921874,9.803494453430176,-0.1096780002117157,-0.19650700688362122
1779996182601504300,8.113504150390625,9.80366039276123,-0.10981199890375137,-0.18890100717544556
1779996182618781200,8.13078125,9.803803443908691,-0.10992199927568436,-0.18423700332641602
1779996182636058400,8.148058349609375,9.803767204284668,-0.10992299765348434,-0.185357004404068
1779996182661973800,8.173973876953125,9.803511619567871,-0.10975900292396545,-0.19569900631904602
1779996182679250700,8.191250732421874,9.803421974182129,-0.10981900244951248,-0.20264700055122375
1779996182696528000,8.20852783203125,9.803403854370117,-0.10998400300741196,-0.20507200062274933
1779996182713804800,8.2258046875,9.80342960357666,-0.1102529987692833,-0.2017270028591156
1779996182739720400,8.251720458984375,9.803632736206055,-0.1106870025396347,-0.19105499982833862
1779996182756997400,8.268997314453125,9.8037691116333,-0.11094199866056442,-0.1865369975566864
1779996182774274300,8.2862744140625,9.803730964660645,-0.11106099933385849,-0.1876409947872162
1779996182791551200,8.30355126953125,9.803558349609375,-0.11106599867343903,-0.19380100071430206
1779996182808828200,8.320828125,9.80341911315918,-0.11102399975061417,-0.20154500007629395
1779996182826105300,8.338105224609375,9.803370475769043,-0.11103300005197525,-0.2066670060157776
1779996182843382300,8.35538232421875,9.803370475769043,-0.11113300174474716,-0.2064639925956726
1779996182860659200,8.3726591796875,9.803433418273926,-0.11124599725008011,-0.2012690007686615
1779996182877936000,8.38993603515625,9.80358600616455,-0.11151400208473206,-0.19412200152873993
1779996182895213000,8.407213134765625,9.80372428894043,-0.11182399839162827,-0.18954600393772125
1779996182912490200,8.424490234375,9.803693771362305,-0.11198200285434723,-0.19037899374961853
1779996182929767200,8.44176708984375,9.803528785705566,-0.1119770035147667,-0.19625000655651093
1779996182947044000,8.459044189453126,9.803386688232422,-0.1120389997959137,-0.20381799340248108
1779996182964321000,8.476321044921875,9.803335189819336,-0.11225800216197968,-0.20873300731182098
1779996182981598000,8.493597900390625,9.80333423614502,-0.11260499805212021,-0.20827600359916687
1779996182998875100,8.510875244140625,9.803396224975586,-0.11299800127744675,-0.20281100273132324
1779996183016152000,8.528152099609375,9.803549766540527,-0.11334999650716782,-0.19561199843883514
1779996183033429000,8.545428955078124,9.80368423461914,-0.11364699900150299,-0.19112199544906616
1779996183050706000,8.562705810546875,9.803651809692383,-0.11379999667406082,-0.1920129954814911
1779996183076621300,8.588621337890626,9.803407669067383,-0.11380299925804138,-0.2014639973640442
1779996183093898200,8.605898193359375,9.803313255310059,-0.11372999846935272,-0.208078995347023
1779996183111175400,8.623175537109375,9.803292274475098,-0.11372499912977219,-0.2106339931488037
1779996183128452400,8.640452392578124,9.803317070007324,-0.11377199739217758,-0.20788100361824036
1779996183145729300,8.657729248046875,9.803425788879395,-0.11384300142526627,-0.20148199796676636
1779996183163006200,8.675006103515624,9.803586959838867,-0.11405900120735168,-0.1953279972076416
1779996183180283100,8.692283203125,9.8036527633667,-0.11421199887990952,-0.19328099489212036
1779996183206198500,8.718198486328125,9.803451538085938,-0.11418599635362625,-0.20009000599384308
1779996183223475700,8.735475830078125,9.80330753326416,-0.11415299773216248,-0.20750699937343597
1779996183240752600,8.752752685546875,9.803252220153809,-0.1141740009188652,-0.2125059962272644
1779996183266668000,8.77866796875,9.803272247314453,-0.11439599841833115,-0.21032699942588806
1779996183283945000,8.795945068359375,9.803380012512207,-0.11451900005340576,-0.2038230001926422
1779996183301222000,8.813221923828126,9.803546905517578,-0.11460500210523605,-0.1975110024213791
1779996183318499000,8.8304990234375,9.803624153137207,-0.11456199735403061,-0.19517600536346436
1779996183335776000,8.84777587890625,9.80352783203125,-0.11438199877738953,-0.19825699925422668
1779996183353053000,8.865052978515624,9.80336856842041,-0.11418599635362625,-0.20481400191783905
1779996183370330000,8.882330078125,9.80327320098877,-0.11413300037384033,-0.2110780030488968
1779996183396245500,8.90824560546875,9.803256034851074,-0.11421199887990952,-0.2126850038766861
1779996183413522400,8.9255224609375,9.80331802368164,-0.11435800045728683,-0.20775599777698517
1779996183430799400,8.94279931640625,9.803467750549316,-0.11461599916219711,-0.20074599981307983
1779996183456714800,8.96871484375,9.803627967834473,-0.11512599885463715,-0.1952960044145584
1779996183473991700,8.98599169921875,9.803532600402832,-0.1153239980340004,-0.1982010006904602
1779996183491268900,9.003268798828126,9.803366661071777,-0.11535199731588364,-0.20486700534820557
1779996183508545500,9.020545654296875,9.803262710571289,-0.11546000093221664,-0.2115119993686676
1779996183525822500,9.037822509765626,9.803235054016113,-0.11567000299692154,-0.2143069952726364
1779996183543099600,9.055099609375,9.803256034851074,-0.11598099768161774,-0.21169599890708923
1779996183560376600,9.07237646484375,9.803359985351562,-0.1162400022149086,-0.20533600449562073
1779996183577653500,9.089653564453124,9.803523063659668,-0.11643099784851074,-0.19897599518299103
1779996183594930400,9.106930419921875,9.803605079650879,-0.11654900014400482,-0.1964080035686493
1779996183612207400,9.124207275390624,9.80351734161377,-0.1165039986371994,-0.19916899502277374
1779996183638122800,9.150122802734375,9.803298950195312,-0.11629100143909454,-0.2089260071516037
1779996183655399700,9.167399658203125,9.803240776062012,-0.1161699965596199,-0.21375100314617157
1779996183672676900,9.1846767578125,9.803239822387695,-0.11613699793815613,-0.21387000381946564
1779996183698592300,9.21059228515625,9.803360939025879,-0.11618900299072266,-0.20594599843025208
1779996183715869200,9.227869140625,9.803521156311035,-0.1162789985537529,-0.19969600439071655
1779996183733146400,9.245146484375,9.803606986999512,-0.11631099879741669,-0.1969909965991974
1779996183759061800,9.271061767578125,9.803451538085938,-0.11613599956035614,-0.20231600105762482
1779996183776338700,9.288338623046876,9.803315162658691,-0.1159600019454956,-0.20900799334049225
1779996183793615600,9.30561572265625,9.803255081176758,-0.11582399904727936,-0.2138410061597824
1779996183819531000,9.331531005859375,9.803271293640137,-0.11587399989366531,-0.21224600076675415
1779996183836808200,9.34880810546875,9.80337142944336,-0.1159600019454956,-0.20620399713516235
1779996183854085000,9.366085205078125,9.80352783203125,-0.11602900177240372,-0.2000650018453598
1779996183871362000,9.383362060546874,9.803608894348145,-0.11602199822664261,-0.19753900170326233
1779996183888639000,9.400638916015625,9.8035249710083,-0.11588899791240692,-0.20018799602985382
1779996183905916000,9.417916015625,9.803364753723145,-0.11568299680948257,-0.20650799572467804
1779996183923192800,9.43519287109375,9.80325984954834,-0.11559999734163284,-0.21293100714683533
1779996183940470000,9.452469970703126,9.803229331970215,-0.11557099968194962,-0.21585500240325928
1779996183957746700,9.46974658203125,9.803250312805176,-0.11561600118875504,-0.21380400657653809
1779996183983662000,9.495662109375,9.803421020507812,-0.11573199927806854,-0.20473499596118927
1779996184000939000,9.51293896484375,9.80356216430664,-0.11592700332403183,-0.1998170018196106
1779996184018216000,9.5302158203125,9.803577423095703,-0.1160459965467453,-0.19932599365711212
1779996184035492900,9.547492919921876,9.80345344543457,-0.11612299829721451,-0.20352600514888763
1779996184052769800,9.564769775390625,9.803314208984375,-0.11610700190067291,-0.2100050002336502
1779996184070047000,9.582046875,9.803245544433594,-0.11612199991941452,-0.21517899632453918
1779996184087324000,9.599323974609375,9.80323600769043,-0.11622200161218643,-0.21607500314712524
1779996184104600800,9.616600830078125,9.80328369140625,-0.11642000079154968,-0.21221500635147095
1779996184121877800,9.633877685546874,9.803412437438965,-0.11661799997091293,-0.20591600239276886
1779996184139155000,9.651155029296875,9.80355167388916,-0.11680400371551514,-0.20106199383735657
1779996184156432000,9.668431884765624,9.803563117980957,-0.11684100329875946,-0.20065699517726898
1779996184173708800,9.685708740234375,9.803436279296875,-0.11673100292682648,-0.20505499839782715
1779996184190985700,9.70298583984375,9.80329418182373,-0.116627998650074,-0.21166099607944489
1779996184208262700,9.7202626953125,9.803221702575684,-0.11660400032997131,-0.21679699420928955
1779996184234178300,9.74617822265625,9.803227424621582,-0.11672600358724594,-0.21627700328826904
1779996184251455200,9.763455322265624,9.803315162658691,-0.11684399843215942,-0.21091699600219727
1779996184268732200,9.780732177734375,9.803461074829102,-0.1169700026512146,-0.20499099791049957
1779996184294647600,9.8066474609375,9.803540229797363,-0.11703900247812271,-0.20244599878787994
1779996184311924500,9.823924560546875,9.803423881530762,-0.1169470027089119,-0.2064179927110672
1779996184329201400,9.841201416015625,9.803288459777832,-0.11677999794483185,-0.212567999958992
1779996184346478300,9.858478271484374,9.80321979522705,-0.11664299666881561,-0.21750299632549286
1779996184363755300,9.87575537109375,9.803210258483887,-0.11661099642515182,-0.2184240072965622
1779996184381032000,9.893031982421874,9.803256034851074,-0.11662299931049347,-0.2149379998445511
1779996184398308900,9.910308837890625,9.803377151489258,-0.11665400117635727,-0.2090820074081421
1779996184415586000,9.9275859375,9.803509712219238,-0.11668500304222107,-0.2044380009174347
1779996184432863000,9.944863037109375,9.80352783203125,-0.11663299798965454,-0.2038930058479309
1779996184458778400,9.9707783203125,9.803339958190918,-0.11638700217008591,-0.21084900200366974
1779996184476055300,9.98805517578125,9.803229331970215,-0.1162709966301918,-0.21682900190353394
1779996184493332200,10.005332275390625,9.803192138671875,-0.11618799716234207,-0.2200479954481125
1779996184519247600,10.03124755859375,9.803237915039062,-0.11617700010538101,-0.21671399474143982
1779996184536524500,10.048524658203124,9.803356170654297,-0.11622399836778641,-0.21098800003528595
1779996184553801500,10.065801513671875,9.803491592407227,-0.11626800149679184,-0.20620599389076233
1779996184571078400,10.083078369140624,9.803522109985352,-0.11627600342035294,-0.20524999499320984
1779996184588355300,10.100355224609375,9.803420066833496,-0.11615400016307831,-0.20874400436878204
1779996184605632300,10.11763232421875,9.803288459777832,-0.11602599918842316,-0.21459099650382996
1779996184622909200,10.1349091796875,9.803215980529785,-0.11594799906015396,-0.2194090038537979
1779996184648824600,10.160824462890625,9.803218841552734,-0.1160610020160675,-0.2191070020198822
1779996184666101800,10.178101806640624,9.803299903869629,-0.11622799932956696,-0.21408799290657043
1779996184683378700,10.195378662109375,9.803438186645508,-0.1163410022854805,-0.20837800204753876
1779996184709294000,10.221294189453126,9.803523063659668,-0.11637599766254425,-0.2055799961090088
1779996184726571000,10.238571044921875,9.80341911315918,-0.1162939965724945,-0.2091130018234253
1779996184743848000,10.255847900390625,9.803288459777832,-0.11616799980401993,-0.21488000452518463
1779996184761124900,10.273124755859374,9.803213119506836,-0.11611499637365341,-0.21970400214195251
1779996184778401800,10.29040185546875,9.803200721740723,-0.11613500118255615,-0.2209009975194931
1779996184795678700,10.3076787109375,9.803239822387695,-0.11618199944496155,-0.21795900166034698
1779996184812955600,10.32495556640625,9.803346633911133,-0.11635199934244156,-0.21260599792003632
1779996184830232600,10.342232666015626,9.803470611572266,-0.11653900146484375,-0.20809000730514526
1779996184847509500,10.359509521484375,9.803499221801758,-0.11667300015687943,-0.20716699957847595
1779996184864786400,10.376786376953126,9.803400039672852,-0.11670400202274323,-0.21050600707530975
1779996184882063400,10.3940634765625,9.803269386291504,-0.11670000106096268,-0.216172993183136
1779996184899340300,10.41134033203125,9.803192138671875,-0.11679700016975403,-0.22092999517917633
1779996184916617200,10.4286171875,9.803175926208496,-0.11697900295257568,-0.22204400599002838
1779996184933894100,10.44589404296875,9.803216934204102,-0.11724100261926651,-0.21891699731349945
1779996184951171000,10.463171142578124,9.803325653076172,-0.11746799945831299,-0.2134370058774948
1779996184968448000,10.480447998046875,9.803450584411621,-0.11767099797725677,-0.20886600017547607
1779996184994363600,10.50636376953125,9.80344295501709,-0.11777900159358978,-0.20903800427913666
1779996185011640300,10.523640380859375,9.803317070007324,-0.1177700012922287,-0.21368399262428284
1779996185028917200,10.540917236328125,9.80321216583252,-0.11765100061893463,-0.21910299360752106
1779996185046194400,10.5581943359375,9.803171157836914,-0.11751099675893784,-0.2222599983215332
1779996185063471000,10.57547119140625,9.803181648254395,-0.11746100336313248,-0.22143299877643585
1779996185080748000,10.592748046875,9.803255081176758,-0.11743000149726868,-0.21715599298477173
1779996185106663700,10.61866357421875,9.803442001342773,-0.11750800162553787,-0.20980800688266754
1779996185123940400,10.6359404296875,9.803482055664062,-0.1175369992852211,-0.20857000350952148
1779996185141217300,10.65321728515625,9.80339527130127,-0.11746600270271301,-0.21148599684238434
1779996185158494200,10.670494140625,9.803269386291504,-0.11735899746417999,-0.2168930023908615
1779996185175771400,10.687771484375,9.803189277648926,-0.11736399680376053,-0.22169099748134613
1779996185193048300,10.70504833984375,9.803170204162598,-0.11739800125360489,-0.22314900159835815
1779996185218963700,10.730963623046875,9.803251266479492,-0.11760599911212921,-0.21805299818515778
1779996185236240600,10.74824072265625,9.803376197814941,-0.11773999780416489,-0.2127539962530136
1779996185253517600,10.765517578125,9.803468704223633,-0.11782100051641464,-0.20959599316120148
1779996185279433000,10.791432861328126,9.803391456604004,-0.11772099882364273,-0.2122180014848709
1779996185296710000,10.8087099609375,9.803272247314453,-0.11763600260019302,-0.21728800237178802
1779996185313986800,10.82598681640625,9.803197860717773,-0.11755000054836273,-0.22171999514102936
1779996185339902200,10.851902099609376,9.80319595336914,-0.11756200343370438,-0.2219270020723343
1779996185357179100,10.86917919921875,9.803266525268555,-0.11761999875307083,-0.21762099862098694
1779996185374456000,10.8864560546875,9.803394317626953,-0.11766699701547623,-0.2122420072555542
1779996185391732700,10.903732666015625,9.803492546081543,-0.11763100326061249,-0.2089499980211258
1779996185409010000,10.921010009765626,9.803475379943848,-0.11752600222826004,-0.2095640003681183
1779996185426286800,10.938286865234375,9.803365707397461,-0.11733400076627731,-0.2136330008506775
1779996185443563800,10.955563720703125,9.803263664245605,-0.11723200231790543,-0.21876999735832214
1779996185460840700,10.9728408203125,9.803215980529785,-0.11724399775266647,-0.22195099294185638
1779996185478117600,10.99011767578125,9.80322265625,-0.11728300154209137,-0.22139699757099152
1779996185495394600,11.00739453125,9.803288459777832,-0.11740099638700485,-0.21744999289512634
1779996185512671200,11.024671142578125,9.80340576171875,-0.11761700361967087,-0.21231800317764282
1779996185529948200,11.0419482421875,9.803498268127441,-0.11783900111913681,-0.20907199382781982
1779996185547225000,11.05922509765625,9.803482055664062,-0.11794500052928925,-0.20954599976539612
1779996185564501800,11.076501708984376,9.803377151489258,-0.11797600239515305,-0.2133750021457672
1779996185581778700,11.09377880859375,9.803275108337402,-0.11792200058698654,-0.21832099556922913
1779996185599056000,11.111055908203125,9.803231239318848,-0.1179480031132698,-0.22134600579738617
1779996185616332800,11.128332763671875,9.803238868713379,-0.11808200180530548,-0.2206449955701828
1779996185633609700,11.145609619140625,9.803304672241211,-0.11821600049734116,-0.21660399436950684
1779996185650886700,11.16288671875,9.803421974182129,-0.11826600134372711,-0.21150900423526764
1779996185668163600,11.18016357421875,9.803515434265137,-0.11831600219011307,-0.20826900005340576
1779996185694078700,11.20607861328125,9.803460121154785,-0.11820100247859955,-0.21024100482463837
1779996185711356000,11.22335595703125,9.803348541259766,-0.118087999522686,-0.21486899256706238
1779996185728632800,11.2406328125,9.80327320098877,-0.11794400215148926,-0.21931999921798706
1779996185754548000,11.2665478515625,9.803258895874023,-0.11789199709892273,-0.22039200365543365
1779996185771825000,11.283824951171875,9.803317070007324,-0.11796499788761139,-0.21685299277305603
1779996185789101800,11.301101806640625,9.803425788879395,-0.11807700246572495,-0.21206699311733246
1779996185806378800,11.318378662109374,9.803512573242188,-0.11815600097179413,-0.20905399322509766
1779996185823655700,11.33565576171875,9.803491592407227,-0.11818300187587738,-0.20968900620937347
1779996185840932600,11.3529326171875,9.803385734558105,-0.11809699982404709,-0.21366199851036072
1779996185858209500,11.37020947265625,9.803278923034668,-0.11803799867630005,-0.2187429964542389
1779996185884125000,11.396125,9.803220748901367,-0.1179020032286644,-0.22263899445533752
1779996185901401900,11.41340185546875,9.803250312805176,-0.11786600202322006,-0.2207529991865158
1779996185918678500,11.430678466796875,9.803338050842285,-0.1178940013051033,-0.21630699932575226
1779996185935955500,11.44795556640625,9.803454399108887,-0.1179639995098114,-0.21181300282478333
1779996185953232400,11.465232421875,9.803507804870605,-0.11795800179243088,-0.2100130021572113
1779996185970509300,11.48250927734375,9.803451538085938,-0.11787399649620056,-0.2119159996509552
1779996185987786200,11.4997861328125,9.803345680236816,-0.11776600033044815,-0.21629999577999115
1779996186005063200,11.517063232421876,9.803268432617188,-0.11778099834918976,-0.2205200046300888
1779996186022340000,11.534340087890625,9.803247451782227,-0.11792899668216705,-0.22193799912929535
1779996186039617000,11.551616943359376,9.803277969360352,-0.11814700067043304,-0.2197519987821579
1779996186056894000,11.56889404296875,9.803362846374512,-0.11832199990749359,-0.21525700390338898
1779996186074171000,11.5861708984375,9.80346965789795,-0.11848299950361252,-0.21101899445056915
1779996186091447800,11.60344775390625,9.803513526916504,-0.11857499927282333,-0.20947399735450745
1779996186108724700,11.620724853515625,9.80345630645752,-0.1186090037226677,-0.21141700446605682
1779996186126001700,11.638001708984374,9.803354263305664,-0.11857499927282333,-0.21564599871635437
1779996186143278600,11.655278564453125,9.803277015686035,-0.11859899759292603,-0.2198140025138855
1779996186160555500,11.672555419921874,9.803253173828125,-0.11864999681711197,-0.22145399451255798
1779996186186470700,11.698470703125,9.803311347961426,-0.11887200176715851,-0.21770000457763672
1779996186203747600,11.71574755859375,9.803412437438965,-0.11898300051689148,-0.213127002120018
1779996186238301200,11.75030126953125,9.803498268127441,-0.11925800144672394,-0.20995500683784485
1779996186255578400,11.767578369140624,9.803410530090332,-0.11929299682378769,-0.21311399340629578
1779996186272855300,11.784855224609375,9.803315162658691,-0.11920899897813797,-0.21766699850559235
1779996186290132200,11.80213232421875,9.803261756896973,-0.11909999698400497,-0.22108599543571472
1779996186307409200,11.8194091796875,9.80325698852539,-0.11903999745845795,-0.22141699492931366
1779996186324685800,11.836685791015626,9.803305625915527,-0.11905399709939957,-0.21852800250053406
1779996186341962800,11.853962646484375,9.80340576171875,-0.11919199675321579,-0.2140119969844818
1779996186359239700,11.87123974609375,9.803496360778809,-0.11920499801635742,-0.2107589989900589
1779996186376516600,11.8885166015625,9.803494453430176,-0.11913900077342987,-0.21083900332450867
1779996186393793500,11.90579345703125,9.803401947021484,-0.11897999793291092,-0.2142699956893921
1779996186411070200,11.9230703125,9.803299903869629,-0.11889299750328064,-0.21900099515914917
1779996186428347100,11.94034716796875,9.803244590759277,-0.118988998234272,-0.2223059982061386
1779996186445624000,11.9576240234375,9.803240776062012,-0.11917000263929367,-0.222353994846344
1779996186462901000,11.97490087890625,9.803290367126465,-0.11936900019645691,-0.21926000714302063
1779996186488816000,12.000816162109375,9.803436279296875,-0.11964400112628937,-0.2129790037870407
1779996186506093000,12.018093017578124,9.803486824035645,-0.11976700276136398,-0.21118399500846863
1779996186523370000,12.035369873046875,9.803444862365723,-0.11982599645853043,-0.21259400248527527
1779996186540647000,12.05264697265625,9.803354263305664,-0.1198050007224083,-0.2162719964981079
1779996186557923800,12.069923828125,9.803281784057617,-0.11967500299215317,-0.22012700140476227
1779996186575200800,12.08720068359375,9.80325698852539,-0.1195330023765564,-0.22188399732112885
1779996186592477700,12.104477783203125,9.803279876708984,-0.11943800002336502,-0.2205200046300888
1779996186618393000,12.13039306640625,9.803403854370117,-0.11941300332546234,-0.21454699337482452
1779996186635670000,12.147669921875,9.803495407104492,-0.11940699815750122,-0.21126699447631836
1779996186652946700,12.16494677734375,9.80350399017334,-0.11936599761247635,-0.210985004901886
1779996186678862000,12.190862060546875,9.803375244140625,-0.11918699741363525,-0.21606099605560303
1779996186696138800,12.208138671875,9.80329704284668,-0.1191440001130104,-0.22009499371051788
1779996186713415700,12.225415771484375,9.803271293640137,-0.11916899681091309,-0.22178499400615692
1779996186730692600,12.242692626953126,9.80329418182373,-0.11929100006818771,-0.2201790064573288
1779996186756608000,12.26860791015625,9.80341625213623,-0.11943899840116501,-0.2141769975423813
1779996186773884700,12.285884765625,9.803498268127441,-0.11952300369739532,-0.21109700202941895
1779996186791161600,12.30316162109375,9.80350399017334,-0.11952099949121475,-0.21087799966335297
1779996186808438500,12.3204384765625,9.80343246459961,-0.11949799954891205,-0.21357299387454987
1779996186825715500,12.337715576171876,9.80334186553955,-0.11941400170326233,-0.21765999495983124
1779996186842992400,12.354992431640625,9.803288459777832,-0.11936900019645691,-0.22081199288368225
1779996186868907800,12.38090771484375,9.803299903869629,-0.11941800266504288,-0.2200320065021515
1779996186886184700,12.398184814453124,9.803372383117676,-0.11945000290870667,-0.21625499427318573
1779996186903461400,12.41546142578125,9.803471565246582,-0.11942099779844284,-0.21220199763774872
1779996186929376800,12.441376708984375,9.803525924682617,-0.11932799965143204,-0.2103700041770935
1779996186946653700,12.45865380859375,9.803461074829102,-0.11915100365877151,-0.21282200515270233
1779996186963930400,12.475930419921875,9.803376197814941,-0.11902099847793579,-0.21666400134563446
1779996186989845800,12.501845703125,9.803318977355957,-0.11880999803543091,-0.22022099792957306
1779996187007122700,12.519122802734374,9.803339004516602,-0.11876499652862549,-0.21905499696731567
1779996187024399600,12.536399658203125,9.803403854370117,-0.1188960000872612,-0.21549199521541595
1779996187050315000,12.56231494140625,9.8035306930542,-0.11915799975395203,-0.2103559970855713
1779996187067592000,12.579592041015625,9.80353832244873,-0.11925800144672394,-0.21004100143909454
1779996187093507000,12.605507080078125,9.803422927856445,-0.11922000348567963,-0.21457700431346893
1779996187110784300,12.6227841796875,9.803348541259766,-0.11922500282526016,-0.21835799515247345
1779996187128061000,12.64006103515625,9.80332088470459,-0.11925899982452393,-0.220101997256279
1779996187145337900,12.657337890625,9.803339958190918,-0.11933699995279312,-0.21881400048732758
1779996187162614800,12.67461474609375,9.8034086227417,-0.11935900151729584,-0.21511900424957275
1779996187179891500,12.691891357421875,9.803506851196289,-0.11935999989509583,-0.21100500226020813
1779996187197168400,12.70916845703125,9.803568840026855,-0.11935999989509583,-0.2088250070810318
1779996187214445300,12.7264453125,9.803543090820312,-0.11933600157499313,-0.20970000326633453
1779996187231722200,12.74372216796875,9.80346393585205,-0.11929400265216827,-0.21294699609279633
1779996187248999000,12.7609990234375,9.803391456604004,-0.11925499886274338,-0.21664099395275116
1779996187266275800,12.77827587890625,9.803361892700195,-0.11929900199174881,-0.21852600574493408
1779996187283552800,12.795552734375,9.803376197814941,-0.11940599977970123,-0.2174520045518875
1779996187300829700,12.81282958984375,9.803438186645508,-0.11953900009393692,-0.2140520066022873
1779996187326745000,12.8387451171875,9.803561210632324,-0.11977999657392502,-0.20894500613212585
1779996187344022000,12.85602197265625,9.803574562072754,-0.11989299952983856,-0.2084600031375885
1779996187361299000,12.873298828125,9.803510665893555,-0.11989100277423859,-0.2108370065689087
1779996187378575600,12.89057568359375,9.803426742553711,-0.11986999958753586,-0.21461699903011322
1779996187395852300,12.907852294921875,9.803373336791992,-0.11984200030565262,-0.21766099333763123
1779996187413129200,12.925129150390624,9.803365707397461,-0.11977700144052505,-0.21819700300693512
1779996187439044600,12.951044677734375,9.803439140319824,-0.11982899904251099,-0.21408799290657043
1779996187456321300,12.9683212890625,9.80352783203125,-0.11991900205612183,-0.21030199527740479
1779996187473598200,12.98559814453125,9.803584098815918,-0.11994700133800507,-0.20828300714492798
1779996187499513600,13.011513671875,9.803524017333984,-0.11987599730491638,-0.21054600179195404
1779996187516790500,13.02879052734375,9.803442001342773,-0.11975199729204178,-0.2142370045185089
1779996187534067500,13.0460673828125,9.803389549255371,-0.11973000317811966,-0.21727299690246582
1779996187551344000,13.06334423828125,9.80337905883789,-0.11981099843978882,-0.2178190052509308
1779996187568621000,13.08062109375,9.803415298461914,-0.11990299820899963,-0.21563899517059326
1779996187585898000,13.09789794921875,9.803492546081543,-0.1199290007352829,-0.21186700463294983
1779996187603174700,13.115174560546874,9.803574562072754,-0.11992300301790237,-0.2087160050868988
1779996187620451600,13.13245166015625,9.803594589233398,-0.11990199983119965,-0.2080260068178177
1779996187637728500,13.149728515625,9.80353832244873,-0.11982899904251099,-0.2101850062608719
1779996187655005200,13.167005126953125,9.80345344543457,-0.11980699747800827,-0.21391600370407104
1779996187672282000,13.1842822265625,9.803399085998535,-0.11984100192785263,-0.2170490026473999
1779996187689559000,13.20155908203125,9.803386688232422,-0.11994899809360504,-0.217740997672081
1779996187706836000,13.2188359375,9.80341625213623,-0.12008500099182129,-0.2157749980688095
1779996187724113000,13.23611279296875,9.803487777709961,-0.1202320009469986,-0.2122199982404709
1779996187741389800,13.253389892578125,9.80356502532959,-0.1203719973564148,-0.20914499461650848
1779996187758666500,13.27066650390625,9.803585052490234,-0.12051700055599213,-0.2083979994058609
1779996187784582000,13.296581787109375,9.803492546081543,-0.1204880028963089,-0.21198399364948273
1779996187801858800,13.31385888671875,9.803423881530762,-0.12036299705505371,-0.21551600098609924
1779996187819135700,13.3311357421875,9.80339241027832,-0.12018699944019318,-0.2175530046224594
1779996187836412400,13.348412353515625,9.803406715393066,-0.12011999636888504,-0.21674099564552307
1779996187853689300,13.365689453125,9.803465843200684,-0.12019599974155426,-0.2134999930858612
1779996187870966300,13.38296630859375,9.803552627563477,-0.12029899656772614,-0.20965999364852905
1779996187888243200,13.4002431640625,9.80361270904541,-0.12032900005578995,-0.2074429988861084
1779996187905520000,13.41752001953125,9.803594589233398,-0.12029899656772614,-0.20803800225257874
1779996187922797000,13.434797119140624,9.803521156311035,-0.12025900185108185,-0.21098099648952484
1779996187948712200,13.460712158203124,9.803427696228027,-0.12039300054311752,-0.215706005692482
1779996187965989000,13.477989013671875,9.80341625213623,-0.12059800326824188,-0.21642200648784637
1779996187983266000,13.49526611328125,9.80344295501709,-0.12079700082540512,-0.21459299325942993
1779996188009181200,13.52118115234375,9.803545951843262,-0.12109500169754028,-0.20962899923324585
1779996188026457900,13.538457763671875,9.803598403930664,-0.12127800285816193,-0.20761699974536896
1779996188043734800,13.55573486328125,9.803584098815918,-0.12139999866485596,-0.20806699991226196
1779996188069650200,13.581650146484375,9.803481101989746,-0.12148000299930573,-0.21235300600528717
1779996188086927000,13.598927001953125,9.803426742553711,-0.12149599939584732,-0.21531100571155548
1779996188104203800,13.616203857421874,9.803410530090332,-0.1215130016207695,-0.21628299355506897
1779996188121480700,13.633480712890625,9.803439140319824,-0.12157099694013596,-0.21458099782466888
1779996188138757600,13.650757568359374,9.803508758544922,-0.12163999676704407,-0.21110899746418
1779996188156034600,13.66803466796875,9.803589820861816,-0.12173300236463547,-0.20786400139331818
1779996188173311200,13.685311279296876,9.803619384765625,-0.12180899828672409,-0.20675399899482727
1779996188190588200,13.702588134765625,9.803577423095703,-0.12185899913311005,-0.20829500257968903
1779996188207865000,13.719864990234376,9.80350399017334,-0.12177599966526031,-0.2115280032157898
1779996188225142000,13.73714208984375,9.803451538085938,-0.12169100344181061,-0.21445000171661377
1779996188242419000,13.7544189453125,9.803439140319824,-0.12168200314044952,-0.21525399386882782
1779996188268334000,13.780333984375,9.80350112915039,-0.12172699719667435,-0.21169699728488922
1779996188285611000,13.797611083984375,9.803585052490234,-0.12180700153112411,-0.20798499882221222
1779996188302887700,13.8148876953125,9.8036470413208,-0.12184999883174896,-0.20554900169372559
1779996188328803000,13.840802978515624,9.803616523742676,-0.12185200303792953,-0.2066890001296997
1779996188346079700,13.858079833984375,9.803545951843262,-0.1218700036406517,-0.20975300669670105
1779996188363356700,13.875356689453126,9.803492546081543,-0.12187200039625168,-0.21270200610160828
1779996188389272000,13.90127197265625,9.80348014831543,-0.12207400053739548,-0.21338999271392822
1779996188406549000,13.918549072265625,9.803522109985352,-0.1223049983382225,-0.21090300381183624
1779996188423825700,13.93582568359375,9.803590774536133,-0.12244399636983871,-0.20763899385929108
1779996188441102300,13.953102294921875,9.803644180297852,-0.12248899787664413,-0.20555399358272552
1779996188458379300,13.970379150390626,9.80363655090332,-0.12241700291633606,-0.20586200058460236
1779996188475656200,13.98765625,9.80357837677002,-0.12237200140953064,-0.20820799469947815
1779996188492932900,14.004932861328125,9.80351734161377,-0.12239500135183334,-0.21111899614334106
1779996188518848300,14.03084814453125,9.803485870361328,-0.12239500135183334,-0.21298900246620178
1779996188536125200,14.048125244140625,9.803510665893555,-0.12233199924230576,-0.21152199804782867
1779996188553402000,14.065402099609376,9.803569793701172,-0.12235300242900848,-0.2085539996623993
1779996188579317200,14.091317138671876,9.803657531738281,-0.12250400334596634,-0.204912006855011
1779996188596594200,14.10859423828125,9.8036527633667,-0.12261699885129929,-0.2050749957561493
1779996188613871000,14.12587109375,9.803593635559082,-0.12264300137758255,-0.20742399990558624
1779996188639786200,14.1517861328125,9.803503036499023,-0.12260100245475769,-0.2119619995355606
1779996188657063200,14.169063232421875,9.803484916687012,-0.1225769966840744,-0.21316799521446228
1779996188674340000,14.186340087890626,9.803505897521973,-0.12265600264072418,-0.21187900006771088
1779996188691617000,14.203616943359375,9.80356216430664,-0.1228569969534874,-0.20882000029087067
1779996188708893700,14.220893798828126,9.803631782531738,-0.12301400303840637,-0.20586299896240234
1779996188726170600,14.238170654296875,9.80366039276123,-0.12300699949264526,-0.20480699837207794
1779996188743447600,14.255447509765625,9.80362319946289,-0.12294500321149826,-0.20621900260448456
1779996188760724500,14.272724365234374,9.80355453491211,-0.1228799968957901,-0.20920400321483612
1779996188778001200,14.290001220703125,9.803502082824707,-0.12296199798583984,-0.21198399364948273
1779996188795278000,14.307278076171874,9.803484916687012,-0.12309599667787552,-0.21303600072860718
1779996188812554800,14.3245546875,9.80350112915039,-0.12316100299358368,-0.21191999316215515
1779996188829831700,14.341831787109374,9.80355453491211,-0.12317100167274475,-0.20926299691200256
1779996188847108400,14.3591083984375,9.803616523742676,-0.12318400293588638,-0.2065889984369278
1779996188864385300,14.37638525390625,9.8036470413208,-0.12322399765253067,-0.20550799369812012
1779996188881662200,14.393662109375,9.80361557006836,-0.12316399812698364,-0.20668500661849976
1779996188898939100,14.410939208984376,9.803553581237793,-0.12302800267934799,-0.20950600504875183
1779996188924854300,14.436854248046876,9.803488731384277,-0.12281999737024307,-0.2131360024213791
1779996188942131200,14.454131103515625,9.803492546081543,-0.12275300174951553,-0.21296599507331848
1779996188959407900,14.471407958984376,9.803533554077148,-0.1226930022239685,-0.21063600480556488
1779996188976684800,14.488684814453125,9.803603172302246,-0.12269899994134903,-0.20747500658035278
1779996188993961700,14.505961669921875,9.803659439086914,-0.12270999699831009,-0.2052460014820099
1779996189011238400,14.52323828125,9.80366039276123,-0.12273400276899338,-0.20519599318504333
1779996189028515300,14.540515380859375,9.803608894348145,-0.12274499982595444,-0.20724299550056458
1779996189045792000,14.5577919921875,9.803545951843262,-0.12277299910783768,-0.21018899977207184
1779996189063069000,14.57506884765625,9.803508758544922,-0.12266699969768524,-0.21242399513721466
1779996189088984300,14.600984375,9.803519248962402,-0.12275099754333496,-0.21173499524593353
1779996189106261200,14.61826123046875,9.803572654724121,-0.12291999906301498,-0.2088650017976761
1779996189123538000,14.635537841796875,9.803640365600586,-0.1230200007557869,-0.20593500137329102
1779996189149453300,14.661453369140625,9.803668022155762,-0.12294399738311768,-0.20490199327468872
1779996189166730000,14.67872998046875,9.803621292114258,-0.1228019967675209,-0.20689399540424347
1779996189184007000,14.6960068359375,9.803563117980957,-0.12272299826145172,-0.20966899394989014
1779996189201283800,14.713283935546874,9.80352783203125,-0.12276799976825714,-0.2115360051393509
1779996189218560800,14.730560791015625,9.803529739379883,-0.12279800325632095,-0.21143600344657898
1779996189244476200,14.75647607421875,9.803597450256348,-0.12274300307035446,-0.2079319953918457
1779996189261752800,14.7737529296875,9.803661346435547,-0.12268000096082687,-0.2052209973335266
1779996189279029500,14.791029541015625,9.803691864013672,-0.12268199771642685,-0.20399799942970276
1779996189296306200,14.80830615234375,9.803666114807129,-0.12267299741506577,-0.2049569934606552
1779996189313583000,14.8255830078125,9.803608894348145,-0.1225930005311966,-0.20751799643039703
1779996189330860000,14.842860107421876,9.803558349609375,-0.12255100160837173,-0.2101850062608719
1779996189348137000,14.860136962890625,9.80353832244873,-0.12246199697256088,-0.21146200597286224
1779996189365413600,14.87741357421875,9.803552627563477,-0.12238399684429169,-0.21065500378608704
1779996189382690600,14.894690673828125,9.803600311279297,-0.12236899882555008,-0.20821799337863922
1779996189399967500,14.911967529296875,9.80366039276123,-0.12246199697256088,-0.20557600259780884
1779996189417244200,14.929244140625,9.803690910339355,-0.12253200262784958,-0.20431700348854065
1779996189434521000,14.94652099609375,9.803666114807129,-0.12254100292921066,-0.20525600016117096
1779996189451797800,14.9637978515625,9.803606033325195,-0.12250199913978577,-0.2078309953212738
1779996189469074700,14.98107470703125,9.803553581237793,-0.12241599708795547,-0.21062900125980377
1779996189486351600,14.9983515625,9.803529739379883,-0.1224220022559166,-0.21205799281597137
1779996189512266800,15.024266845703124,9.803559303283691,-0.12260500341653824,-0.21029800176620483
1779996189529543400,15.04154345703125,9.80361270904541,-0.12273799628019333,-0.20764100551605225
1779996189546820600,15.058820556640624,9.803662300109863,-0.12275700271129608,-0.20566299557685852
1779996189564097300,15.07609716796875,9.803665161132812,-0.12272100150585175,-0.2055550068616867
1779996189590012400,15.102012451171875,9.803589820861816,-0.12256599962711334,-0.20877300202846527
1779996189607289300,15.119289306640624,9.803540229797363,-0.12252700328826904,-0.2113109976053238
1779996189624566300,15.136566162109375,9.803523063659668,-0.12247999757528305,-0.21241100132465363
1779996189641843200,15.15384326171875,9.803540229797363,-0.12241800129413605,-0.21142800152301788
1779996189659119900,15.171119873046875,9.8035888671875,-0.12231899797916412,-0.20891299843788147
1779996189676396800,15.188396728515626,9.803650856018066,-0.12225499749183655,-0.20623700320720673
1779996189693673700,15.205673828125,9.80368709564209,-0.12221000343561172,-0.2048960030078888
1779996189710950700,15.22295068359375,9.803668975830078,-0.12216699868440628,-0.20559200644493103
1779996189736865500,15.248865478515626,9.8035888671875,-0.12213800102472305,-0.2092220038175583
1779996189754142500,15.266142578125,9.803548812866211,-0.12217699736356735,-0.21136599779129028
1779996189771419100,15.283419189453125,9.803540229797363,-0.1222120001912117,-0.211884006857872
1779996189788696000,15.300696044921875,9.803564071655273,-0.1222739964723587,-0.2105029970407486
1779996189814611500,15.326611572265625,9.803641319274902,-0.12248799949884415,-0.20682500302791595
1779996189831888100,15.34388818359375,9.803679466247559,-0.12255199998617172,-0.20542000234127045
1779996189849165000,15.3611650390625,9.803665161132812,-0.12251300364732742,-0.20593999326229095
1779996189866442000,15.37844189453125,9.803616523742676,-0.12234900146722794,-0.20807300508022308
1779996189883718400,15.395718505859374,9.803570747375488,-0.12226500362157822,-0.21043699979782104
1779996189900995300,15.412995361328125,9.803549766540527,-0.12234599888324738,-0.21149000525474548
1779996189926910700,15.43891064453125,9.803583145141602,-0.12258400022983551,-0.20956000685691833
1779996189944187400,15.4561875,9.803631782531738,-0.12257199734449387,-0.20723600685596466
1779996189961464300,15.47346435546875,9.803671836853027,-0.122530996799469,-0.20563100278377533
1779996189987379700,15.499379638671876,9.803656578063965,-0.12257900089025497,-0.20619000494480133
1779996190004656400,15.516656494140625,9.803609848022461,-0.12266100198030472,-0.20818300545215607
1779996190021933300,15.533933349609375,9.803566932678223,-0.12259099632501602,-0.2104180008172989
1779996190039210000,15.5512099609375,9.803544998168945,-0.12235900014638901,-0.21176999807357788
1779996190056487000,15.56848681640625,9.803556442260742,-0.12214600294828415,-0.21133600175380707
1779996190073763800,15.585763916015624,9.803597450256348,-0.12221500277519226,-0.20919300615787506
1779996190091040800,15.603040771484375,9.8036527633667,-0.12236999720335007,-0.20663799345493317
1779996190116956000,15.628955810546875,9.803683280944824,-0.12240099906921387,-0.20542199909687042
1779996190134232800,15.64623291015625,9.803644180297852,-0.12226200103759766,-0.20712600648403168
1779996190151509500,15.663509521484375,9.803587913513184,-0.12220899760723114,-0.2097260057926178
1779996190168786400,15.680786376953124,9.803552627563477,-0.12229599803686142,-0.21163499355316162
1779996190186063400,15.6980634765625,9.803546905517578,-0.12238600105047226,-0.2118380069732666
1779996190203339800,15.71533984375,9.803576469421387,-0.12238399684429169,-0.21024900674819946
1779996190229255200,15.741255126953124,9.803655624389648,-0.1222350001335144,-0.20662300288677216
1779996190246532000,15.758531982421875,9.803692817687988,-0.12215299904346466,-0.2052219957113266
1779996190263808800,15.775808837890626,9.803686141967773,-0.12208999693393707,-0.20552200078964233
1779996190289724200,15.80172412109375,9.803627967834473,-0.12189599871635437,-0.20829200744628906
1779996190307000800,15.819000732421875,9.803595542907715,-0.12183599919080734,-0.2099979966878891
1779996190324277500,15.836277587890624,9.803590774536133,-0.12179599702358246,-0.21031099557876587
1779996190341554400,15.853554443359375,9.803614616394043,-0.12180600315332413,-0.20902499556541443
1779996190358831000,15.8708310546875,9.803657531738281,-0.12183699756860733,-0.20692500472068787
1779996190384746500,15.89674658203125,9.803706169128418,-0.1218319982290268,-0.2049960047006607
1779996190402023200,15.914023193359375,9.80368709564209,-0.12188100069761276,-0.20565499365329742
1779996190419300000,15.931300048828126,9.803643226623535,-0.12189199775457382,-0.2076220065355301
1779996190436576800,15.94857666015625,9.80359935760498,-0.12193900346755981,-0.2097969949245453
1779996190453853700,15.965853759765626,9.803574562072754,-0.12204600125551224,-0.2110529989004135
1779996190471130600,15.983130615234375,9.803577423095703,-0.12220100313425064,-0.21079899370670319
1779996190488407600,16.000407470703124,9.803604125976562,-0.12248499691486359,-0.2092529982328415
1779996190505684200,16.017684326171874,9.803641319274902,-0.1227710023522377,-0.20746099948883057
1779996190522961000,16.0349609375,9.803656578063965,-0.12304200232028961,-0.206727996468544
1779996190548876300,16.060876220703125,9.803605079650879,-0.12324299663305283,-0.20876699686050415
1779996190566153000,16.078153076171876,9.803549766540527,-0.1232680007815361,-0.2112559974193573
1779996190583430000,16.095429931640624,9.803516387939453,-0.12321499735116959,-0.21307100355625153
1779996190609345300,16.12134521484375,9.803528785705566,-0.12316200137138367,-0.21239499747753143
1779996190626622000,16.1386220703125,9.803577423095703,-0.12310700118541718,-0.20996800065040588
1779996190643899000,16.15589892578125,9.803638458251953,-0.12297900021076202,-0.2073429971933365
1779996190669814300,16.181814208984374,9.803682327270508,-0.12255799770355225,-0.20576700568199158
1779996190687091000,16.199091064453125,9.80366039276123,-0.12228800356388092,-0.2068219929933548
1779996190704367600,16.21636767578125,9.803621292114258,-0.12207099795341492,-0.20875799655914307
1779996190721644500,16.23364453125,9.803594589233398,-0.1219400018453598,-0.21029700338840485
1779996190738921200,16.250921142578125,9.803592681884766,-0.12183299660682678,-0.21048100292682648
1779996190756198100,16.2681982421875,9.803616523742676,-0.12174999713897705,-0.20920899510383606
1779996190773474800,16.285474853515623,9.803657531738281,-0.12172099947929382,-0.2071859985589981
1779996190790751700,16.302751708984374,9.803696632385254,-0.12175799906253815,-0.2056020051240921
1779996190816667000,16.3286669921875,9.80368423461914,-0.12179899960756302,-0.20603400468826294
1779996190833943800,16.34594384765625,9.803640365600586,-0.12178099900484085,-0.20799699425697327
1779996190851220700,16.363220703125,9.803598403930664,-0.12183400243520737,-0.2100609987974167
1779996190868497700,16.38049755859375,9.803579330444336,-0.12184199690818787,-0.2110770046710968
1779996190885774300,16.3977744140625,9.803589820861816,-0.12185700237751007,-0.21045100688934326
1779996190903051000,16.415051025390625,9.80362606048584,-0.12192399799823761,-0.20849700272083282
1779996190920328000,16.432327880859376,9.803674697875977,-0.12205400317907333,-0.20628699660301208
1779996190937604900,16.44960498046875,9.803705215454102,-0.12212199717760086,-0.2050669938325882
1779996190963519700,16.475519775390627,9.803671836853027,-0.12221799790859222,-0.2063799947500229
1779996190980796700,16.492796630859374,9.803622245788574,-0.1222200021147728,-0.20866400003433228
1779996190998073600,16.510073486328125,9.80358600616455,-0.12221000343561172,-0.21060499548912048
1779996191015350500,16.5273505859375,9.803576469421387,-0.1222589984536171,-0.21105599403381348
1779996191032627200,16.544627197265626,9.803601264953613,-0.12225200235843658,-0.20977699756622314
1779996191049904000,16.561904052734373,9.803648948669434,-0.12223400175571442,-0.20755699276924133
1779996191067180800,16.579180908203124,9.803690910339355,-0.12220100313425064,-0.2057339996099472
1779996191084457700,16.596457763671875,9.803701400756836,-0.12211800366640091,-0.20531000196933746
1779996191101734400,16.613734375,9.80367660522461,-0.12189699709415436,-0.20648300647735596
1779996191119011300,16.63101123046875,9.803633689880371,-0.12177100032567978,-0.20852799713611603
1779996191136288000,16.6482880859375,9.803601264953613,-0.12178800255060196,-0.21019700169563293
1779996191153565000,16.66556494140625,9.803592681884766,-0.12201499938964844,-0.2105419933795929
1779996191170841600,16.682841552734374,9.803607940673828,-0.1223049983382225,-0.20951400697231293
1779996191188118500,16.700118408203124,9.803638458251953,-0.12258400022983551,-0.2078700065612793
1779996191205395500,16.7173955078125,9.803661346435547,-0.12289699912071228,-0.20675300061702728
1779996191222672100,16.734672119140626,9.803651809692383,-0.12315399944782257,-0.20699700713157654
1779996191248587300,16.760587158203126,9.803585052490234,-0.12357500195503235,-0.20958200097084045
1779996191265864200,16.7778642578125,9.803542137145996,-0.12376400083303452,-0.21155999600887299
1779996191283141000,16.79514111328125,9.803524017333984,-0.12375099956989288,-0.21262699365615845
1779996191309056300,16.82105615234375,9.803547859191895,-0.12355399876832962,-0.211434006690979
1779996191326333000,16.8383330078125,9.80359935760498,-0.12336000055074692,-0.20916999876499176
1779996191343609900,16.85560986328125,9.803651809692383,-0.12325199693441391,-0.2069920003414154
1779996191369525000,16.88152490234375,9.803671836853027,-0.12298599630594254,-0.2063090056180954
1779996191386802000,16.898802001953126,9.803640365600586,-0.12268000096082687,-0.20782999694347382
1779996191404078600,16.91607861328125,9.80360221862793,-0.1223979964852333,-0.20984700322151184
1779996191421355300,16.933355224609375,9.803584098815918,-0.12224099785089493,-0.21099400520324707
1779996191438632200,16.950632080078126,9.80359172821045,-0.12225499749183655,-0.2105260044336319
1779996191455908900,16.967908935546873,9.803624153137207,-0.12234699726104736,-0.2087779939174652
1779996191481824300,16.99382421875,9.803683280944824,-0.12231600284576416,-0.2062399983406067
1779996191499101000,17.011100830078124,9.803686141967773,-0.12226100265979767,-0.2060829997062683
1779996191516377900,17.0283779296875,9.803657531738281,-0.12221100181341171,-0.2073339968919754
1779996191533654800,17.04565478515625,9.80361557006836,-0.12224999815225601,-0.2092829942703247
1779996191550931500,17.062931396484377,9.803585052490234,-0.1222589984536171,-0.21087299287319183
1779996191568208400,17.08020849609375,9.80357837677002,-0.12216900289058685,-0.2112549990415573
1779996191585485300,17.0974853515625,9.803598403930664,-0.12207800149917603,-0.2102150022983551
1779996191602762000,17.114761962890626,9.80363941192627,-0.12210100144147873,-0.20825499296188354
1779996191620038700,17.13203857421875,9.803679466247559,-0.12216600030660629,-0.20654000341892242
1779996191645953800,17.157953857421877,9.803679466247559,-0.12216100096702576,-0.20655499398708344
1779996191663230700,17.175230712890624,9.80363941192627,-0.12206099927425385,-0.20829099416732788
1779996191680507600,17.192507568359375,9.80359935760498,-0.12198799848556519,-0.21029600501060486
1779996191697784300,17.209784423828125,9.80357837677002,-0.12201900035142899,-0.21139800548553467
1779996191715061200,17.227061279296876,9.803585052490234,-0.12214300036430359,-0.21096700429916382
1779996191732338000,17.244337890625,9.803613662719727,-0.1222900003194809,-0.20934399962425232
1779996191749614800,17.26161474609375,9.8036527633667,-0.1223749965429306,-0.20754800736904144
1779996191766891800,17.278891845703125,9.803674697875977,-0.12236999720335007,-0.20666399598121643
1779996191784168400,17.29616845703125,9.80366325378418,-0.1223049983382225,-0.20720599591732025
1779996191801445400,17.3134453125,9.80362606048584,-0.12224899977445602,-0.20881299674510956
1779996191827360500,17.339360595703123,9.803579330444336,-0.12237299978733063,-0.21102599799633026
1779996191844637200,17.35663720703125,9.803576469421387,-0.12244699895381927,-0.21113300323486328
1779996191861914000,17.3739140625,9.803597450256348,-0.12240699678659439,-0.21008700132369995
1779996191879190800,17.391190673828124,9.803631782531738,-0.12237600237131119,-0.20845499634742737
1779996191896467700,17.4084677734375,9.80366039276123,-0.12255299836397171,-0.20717300474643707
1779996191913744400,17.425744384765625,9.80366039276123,-0.12278500199317932,-0.207054004073143
1779996191939659800,17.45165966796875,9.80360221862793,-0.12297400087118149,-0.20935800671577454
1779996191956936700,17.468936767578125,9.803559303283691,-0.12298599630594254,-0.21150100231170654
1779996191974213400,17.48621337890625,9.803535461425781,-0.1230349987745285,-0.2127929925918579
1779996191991490300,17.503490234375,9.803539276123047,-0.12308800220489502,-0.21248699724674225
1779996192008767000,17.52076708984375,9.803572654724121,-0.12318699806928635,-0.21075700223445892
1779996192026044000,17.5380439453125,9.803619384765625,-0.12319999933242798,-0.20861099660396576
1779996192043320600,17.555320556640623,9.8036527633667,-0.12309099733829498,-0.2073419988155365
1779996192069236000,17.581236083984376,9.803632736206055,-0.12284000217914581,-0.20827500522136688
1779996192086512600,17.5985126953125,9.803595542907715,-0.1226079985499382,-0.21006900072097778
1779996192103789300,17.615789306640625,9.803570747375488,-0.12243500351905823,-0.21149100363254547
1779996192129704700,17.64170458984375,9.80357837677002,-0.12244000285863876,-0.2110850065946579
1779996192146981400,17.6589814453125,9.80361270904541,-0.12250000238418579,-0.20930099487304688
1779996192164258300,17.67625830078125,9.8036527633667,-0.12257199734449387,-0.2074279934167862
1779996192181535200,17.69353515625,9.803675651550293,-0.1226160004734993,-0.2064879983663559
1779996192207450400,17.719450439453126,9.803641319274902,-0.12265700101852417,-0.20781399309635162
1779996192224727000,17.73672705078125,9.803598403930664,-0.12272299826145172,-0.20977400243282318
1779996192242004000,17.75400390625,9.803568840026855,-0.12285000085830688,-0.21129199862480164
1779996192259280600,17.77128076171875,9.80356216430664,-0.12297700345516205,-0.21152199804782867
1779996192276557600,17.7885576171875,9.803580284118652,-0.12301500141620636,-0.21044600009918213
1779996192293834200,17.805834228515625,9.803618431091309,-0.12300000339746475,-0.20867499709129333
1779996192311111200,17.823111083984376,9.8036527633667,-0.12310100346803665,-0.20716199278831482
1779996192328387800,17.840387939453127,9.803661346435547,-0.12330500036478043,-0.20674900710582733
1779996192345664800,17.857664794921874,9.803635597229004,-0.12345399707555771,-0.20774300396442413
1779996192362941400,17.87494140625,9.80359172821045,-0.12349800020456314,-0.20969100296497345
1779996192388856600,17.900856689453125,9.803547859191895,-0.12350299954414368,-0.21204699575901031
1779996192406133500,17.918133544921876,9.803552627563477,-0.12354200333356857,-0.21180599927902222
1779996192423410200,17.93541015625,9.803583145141602,-0.12368600070476532,-0.21013300120830536
1779996192449325600,17.96132568359375,9.803641319274902,-0.1237649992108345,-0.20746499300003052
1779996192466602200,17.978602294921874,9.803650856018066,-0.12370599806308746,-0.20710299909114838
1779996192483879000,17.99587890625,9.803628921508789,-0.123649001121521,-0.20812100172042847
1779996192501155800,18.01315576171875,9.80359172821045,-0.12351500242948532,-0.20983700454235077
1779996192518432800,18.030432861328126,9.80356502532959,-0.12342199683189392,-0.2112639993429184
1779996192535709400,18.04770947265625,9.803560256958008,-0.12347400188446045,-0.21153099834918976
1779996192552986400,18.064986328125,9.803577423095703,-0.12358299642801285,-0.21044300496578217
1779996192570263000,18.082262939453123,9.80361557006836,-0.12367399781942368,-0.2085690051317215
1779996192587540000,18.0995400390625,9.80364990234375,-0.1237810030579567,-0.2070239931344986
1779996192604817000,18.11681689453125,9.803655624389648,-0.12375800311565399,-0.20680800080299377
1779996192622093600,18.134093505859376,9.80362606048584,-0.12375999987125397,-0.20803500711917877
1779996192639370200,18.151370361328127,9.803585052490234,-0.12383099645376205,-0.20996500551700592
1779996192656647200,18.168647216796874,9.80355453491211,-0.12382999807596207,-0.21151599287986755
1779996192673924000,18.185924072265625,9.803547859191895,-0.12370599806308746,-0.2119310051202774
1779996192691200800,18.20320068359375,9.80356502532959,-0.12359599769115448,-0.21107099950313568
1779996192708477700,18.220477783203126,9.80360221862793,-0.12348800152540207,-0.2093770056962967
1779996192725754400,18.23775439453125,9.803641319274902,-0.12342900037765503,-0.207737997174263
1779996192743031300,18.25503125,9.803656578063965,-0.1233149990439415,-0.20709900557994843
1779996192768946400,18.280946533203124,9.803625106811523,-0.12300900369882584,-0.2086549997329712
1779996192786223400,18.298223388671875,9.803590774536133,-0.1228879988193512,-0.21040399372577667
1779996192803500000,18.3155,9.803573608398438,-0.12290800362825394,-0.21136799454689026
1779996192829415200,18.341415283203126,9.803594589233398,-0.12289699912071228,-0.210207000374794
1779996192846692000,18.358692138671874,9.803631782531738,-0.12287700176239014,-0.2084529995918274
1779996192863968800,18.37596875,9.80366325378418,-0.12286700308322906,-0.20710399746894836
1779996192889884000,18.4018837890625,9.803659439086914,-0.12297800183296204,-0.20722800493240356
1779996192907160600,18.41916064453125,9.803625106811523,-0.12303999811410904,-0.20863300561904907
1779996192924437500,18.4364375,9.803589820861816,-0.12307800352573395,-0.21035900712013245
1779996192941714200,18.453714111328125,9.803568840026855,-0.12305600196123123,-0.21149399876594543
1779996192958991000,18.4709912109375,9.803570747375488,-0.12312699854373932,-0.2113499939441681
1779996192976268000,18.48826806640625,9.803597450256348,-0.1231829971075058,-0.20996299386024475
1779996192993544700,18.505544677734374,9.803635597229004,-0.12332800030708313,-0.20813700556755066
1779996193019459800,18.5314599609375,9.803661346435547,-0.12348400056362152,-0.20701099932193756
1779996193036736500,18.548736572265625,9.80363655090332,-0.12353800237178802,-0.20803099870681763
1779996193054013400,18.566013427734376,9.803595542907715,-0.12349600344896317,-0.20984099805355072
1779996193071290000,18.5832900390625,9.803566932678223,-0.12352599948644638,-0.21136599779129028
1779996193088567000,18.600567138671874,9.803557395935059,-0.1236639991402626,-0.21177199482917786
1779996193105843700,18.61784375,9.803572654724121,-0.12381099909543991,-0.2109290063381195
1779996193123120600,18.63512060546875,9.803603172302246,-0.12389200180768967,-0.2093760073184967
1779996193140397300,18.652397216796874,9.803635597229004,-0.12388800084590912,-0.20799699425697327
1779996193157674200,18.66967431640625,9.8036470413208,-0.12384799867868423,-0.20758600533008575
1779996193174951200,18.686951171875,9.803628921508789,-0.12373899668455124,-0.20836099982261658
1779996193192227800,18.704227783203127,9.803597450256348,-0.12377499788999557,-0.20979000627994537
1779996193209504800,18.7215048828125,9.803572654724121,-0.12385199964046478,-0.2110079973936081
1779996193235420000,18.747419921875,9.803568840026855,-0.12394800037145615,-0.21111300587654114
1779996193252696600,18.764696533203125,9.8035888671875,-0.12400499731302261,-0.21005100011825562
1779996193269973500,18.781973388671876,9.80361557006836,-0.12402500212192535,-0.20882399380207062
1779996193287250200,18.799250244140627,9.803631782531738,-0.12410899996757507,-0.20813100039958954
1779996193304527000,18.816527099609374,9.803624153137207,-0.12420699745416641,-0.20839600265026093
1779996193321803800,18.8338037109375,9.803597450256348,-0.12420500069856644,-0.20956000685691833
1779996193339080700,18.851080810546875,9.803567886352539,-0.12403800338506699,-0.21110799908638
1779996193356357400,18.868357421875,9.80355167388916,-0.12387699633836746,-0.21208100020885468
1779996193382272500,18.8942724609375,9.803570747375488,-0.12377499788999557,-0.2111629992723465
1779996193399549200,18.911549072265625,9.803607940673828,-0.12374900281429291,-0.2094009965658188
1779996193416826000,18.928826171875,9.803645133972168,-0.12370800226926804,-0.20786599814891815
1779996193434102800,18.946102783203123,9.803654670715332,-0.12369599938392639,-0.20744800567626953
1779996193451379700,18.963379638671874,9.803633689880371,-0.12366999685764313,-0.20836499333381653
1779996193468656600,18.98065673828125,9.80359935760498,-0.1236639991402626,-0.2099660038948059
1779996193485933300,18.997933349609376,9.803572654724121,-0.12366999685764313,-0.2113029956817627
1779996193503210000,19.0152099609375,9.80356502532959,-0.12368199974298477,-0.2116599977016449
1779996193520487000,19.03248681640625,9.803580284118652,-0.12383799999952316,-0.21077199280261993
1779996193537763600,19.049763671875,9.80361270904541,-0.1240219995379448,-0.20917199552059174
1779996193555040500,19.06704052734375,9.803640365600586,-0.12411300092935562,-0.20786599814891815
1779996193572317200,19.084317138671874,9.803646087646484,-0.12408799678087234,-0.20764799416065216
1779996193589594000,19.101593994140625,9.803625106811523,-0.123989999294281,-0.20861099660396576
1779996193606870800,19.118870849609376,9.80359172821045,-0.12399400025606155,-0.21012400090694427
1779996193624147700,19.136147705078123,9.803569793701172,-0.12405800074338913,-0.2112250030040741
1779996193641424400,19.15342431640625,9.803566932678223,-0.12408000230789185,-0.21134600043296814
1779996193658701300,19.170701416015625,9.803583145141602,-0.12405099719762802,-0.21052800118923187
1779996193675978200,19.187978271484376,9.803609848022461,-0.12401200085878372,-0.20922599732875824
1779996193693255000,19.2052548828125,9.803635597229004,-0.1239830031991005,-0.20813199877738953
1779996193710531600,19.222531494140625,9.803641319274902,-0.12401799857616425,-0.20785699784755707
1779996193727808500,19.23980859375,9.80362319946289,-0.12411200255155563,-0.20858900249004364
1779996193745085200,19.257085205078123,9.80359172821045,-0.12410400062799454,-0.21002399921417236
1779996193762361900,19.27436181640625,9.803566932678223,-0.12409000098705292,-0.2113880068063736
1779996193779638800,19.291638671875,9.803558349609375,-0.12400799989700317,-0.21186700463294983
1779996193796915700,19.308915771484376,9.803574562072754,-0.12392500042915344,-0.21107299625873566
1779996193822830800,19.334830810546876,9.803627967834473,-0.12393700331449509,-0.20859099924564362
1779996193840107500,19.352107421875,9.803655624389648,-0.12396799772977829,-0.20743800699710846
1779996193857384400,19.369384521484374,9.8036527633667,-0.1239209994673729,-0.20752499997615814
1779996193874661400,19.386661376953125,9.803625106811523,-0.12384399771690369,-0.20873600244522095
1779996193891938000,19.40393798828125,9.803593635559082,-0.1237960010766983,-0.21030999720096588
1779996193909214700,19.421214599609375,9.803576469421387,-0.12379500269889832,-0.21123600006103516
1779996193926491400,19.438491455078125,9.803580284118652,-0.12382499873638153,-0.21096299588680267
1779996193943768300,19.455768310546876,9.803606986999512,-0.12385600060224533,-0.20963799953460693
1779996193961045000,19.473044921875,9.803643226623535,-0.12387699633836746,-0.20801299810409546
1779996193978322000,19.490322021484374,9.803667068481445,-0.12383300065994263,-0.20700199902057648
1779996194004237000,19.516237060546874,9.803653717041016,-0.12363699823617935,-0.2076440006494522
1779996194021514000,19.533513916015625,9.803627967834473,-0.12348400056362152,-0.20893900096416473
1779996194038790700,19.550790771484376,9.803607940673828,-0.12343200296163559,-0.20993399620056152
1779996194064705800,19.576705810546876,9.803610801696777,-0.12348199635744095,-0.20971199870109558
1779996194081982700,19.593982666015624,9.803635597229004,-0.12342900037765503,-0.20856599509716034
1779996194099259400,19.61125927734375,9.803662300109863,-0.12336999922990799,-0.2073100060224533
1779996194125174500,19.637174560546875,9.803679466247559,-0.12330900132656097,-0.20667900145053864
1779996194142451500,19.654451416015625,9.80366039276123,-0.12336400151252747,-0.20743800699710846
1779996194159728000,19.67172802734375,9.803629875183105,-0.12340500205755234,-0.2088010013103485
1779996194177005000,19.689005126953123,9.803605079650879,-0.1233920007944107,-0.2100829929113388
1779996194194282000,19.706281982421874,9.803597450256348,-0.1233540028333664,-0.21052899956703186
1779996194211558700,19.72355859375,9.803608894348145,-0.12335199862718582,-0.20984700322151184
1779996194228835300,19.74083544921875,9.803638458251953,-0.12339600175619125,-0.20846599340438843
1779996194246112000,19.758112060546875,9.803664207458496,-0.12350600212812424,-0.20718899369239807
1779996194263389000,19.775388916015626,9.80367374420166,-0.12357699871063232,-0.2068299949169159
1779996194289304000,19.801303955078126,9.803635597229004,-0.12354700267314911,-0.2084590047597885
1779996194306581000,19.8185810546875,9.80359935760498,-0.12355100363492966,-0.21014699339866638
1779996194323857700,19.835857666015624,9.803576469421387,-0.12359700351953506,-0.21127299964427948
1779996194349772500,19.8617724609375,9.803585052490234,-0.12373200058937073,-0.21086199581623077
1779996194367049500,19.879049560546875,9.803609848022461,-0.12386299669742584,-0.20952999591827393
1779996194384326400,19.896326416015626,9.803638458251953,-0.12384700030088425,-0.20830899477005005
1779996194401603000,19.91360302734375,9.803647994995117,-0.12375099956989288,-0.20788200199604034
1779996194418880000,19.9308798828125,9.803638458251953,-0.12364800274372101,-0.208405002951622
1779996194436156700,19.94815673828125,9.803616523742676,-0.12353300303220749,-0.20945200324058533
1779996194453433600,19.96543359375,9.803598403930664,-0.12348899990320206,-0.21038100123405457
1779996194470710500,19.98271044921875,9.803593635559082,-0.12344799935817719,-0.2106270045042038
1779996194487987200,19.9999873046875,9.803606986999512,-0.12337499856948853,-0.21001900732517242
1779996194505264000,20.01726416015625,9.803631782531738,-0.12324900180101395,-0.20889900624752045
1779996194522540800,20.034540771484377,9.8036527633667,-0.12331199645996094,-0.20786899328231812
1779996194539817500,20.0518173828125,9.803659439086914,-0.12337999790906906,-0.20759500563144684
1779996194557094400,20.069094482421875,9.803641319274902,-0.12338999658823013,-0.20834000408649445
1779996194574371000,20.08637109375,9.803610801696777,-0.12340100109577179,-0.2097640037536621
1779996194591648000,20.10364794921875,9.803585052490234,-0.12333200126886368,-0.21111999452114105
1779996194608924700,20.120924560546875,9.803573608398438,-0.12330900132656097,-0.21173499524593353
1779996194626201300,20.138201416015626,9.803583145141602,-0.12331800162792206,-0.21122799813747406
1779996194643478300,20.155478271484377,9.803609848022461,-0.12339700013399124,-0.20984700322151184
1779996194669393400,20.181393310546873,9.803653717041016,-0.12340500205755234,-0.20795999467372894
1779996194686670000,20.198670166015624,9.803655624389648,-0.1233619973063469,-0.20789900422096252
1779996194703947000,20.215947021484375,9.803635597229004,-0.12326899915933609,-0.20883800089359283
1779996194721223700,20.2332236328125,9.803607940673828,-0.12328799813985825,-0.21008799970149994
1779996194738500600,20.25050048828125,9.803593635559082,-0.12332499772310257,-0.21078500151634216
1779996194755777300,20.26777734375,9.803597450256348,-0.12339500337839127,-0.2105720043182373
1779996194773054200,20.28505419921875,9.80361557006836,-0.12337200343608856,-0.20968499779701233
1779996194790331000,20.302330810546874,9.803638458251953,-0.12337899953126907,-0.20861099660396576
1779996194807607800,20.31960791015625,9.803653717041016,-0.12349800020456314,-0.20789000391960144
1779996194824884500,20.336884521484375,9.803648948669434,-0.12364599853754044,-0.2080100029706955
1779996194842161400,20.354161376953126,9.803624153137207,-0.12375299632549286,-0.2090120017528534
1779996194859438000,20.37143798828125,9.803593635559082,-0.12374900281429291,-0.21046599745750427
1779996194876714800,20.38871484375,9.803570747375488,-0.12372700124979019,-0.21163900196552277
1779996194893991400,20.405991455078127,9.803568840026855,-0.12377099692821503,-0.2117989957332611
1779996194911268400,20.423268310546874,9.80358600616455,-0.12393800169229507,-0.21084199845790863
1779996194928545300,20.440545166015625,9.80361270904541,-0.1240219995379448,-0.2094999998807907
1779996194954460400,20.46646044921875,9.803633689880371,-0.12387300282716751,-0.20866599678993225
1779996194971737300,20.4837373046875,9.803619384765625,-0.1237419992685318,-0.20940899848937988
1779996194989013800,20.501013671875,9.80359172821045,-0.12365499883890152,-0.2107190042734146
1779996195006290700,20.518290771484374,9.803568840026855,-0.12363799661397934,-0.2117989957332611
1779996195023567400,20.5355673828125,9.803563117980957,-0.12360300123691559,-0.2121099978685379
1779996195040844300,20.55284423828125,9.803574562072754,-0.12348199635744095,-0.21155300736427307
1779996195058121000,20.570120849609374,9.803600311279297,-0.12335000187158585,-0.2104009985923767
1779996195084036000,20.5960361328125,9.80363655090332,-0.12335699796676636,-0.20882800221443176
1779996195101313000,20.61331298828125,9.803638458251953,-0.12330000102519989,-0.2087710052728653
1779996195118589700,20.630589599609376,9.803619384765625,-0.12322299927473068,-0.20967300236225128
1779996195135866600,20.64786669921875,9.80359172821045,-0.12315399944782257,-0.21101100742816925
1779996195153143300,20.665143310546874,9.803572654724121,-0.12315499782562256,-0.21194399893283844
1779996195170420200,20.682420166015625,9.803572654724121,-0.12319300323724747,-0.2119549959897995
1779996195187697000,20.69969677734375,9.803589820861816,-0.12318000197410583,-0.21112799644470215
1779996195204973600,20.7169736328125,9.803613662719727,-0.12308400124311447,-0.21002799272537231
1779996195222250500,20.73425048828125,9.803631782531738,-0.12302999943494797,-0.20929500460624695
1779996195239527200,20.751527099609376,9.803630828857422,-0.12308400124311447,-0.2093220055103302
1779996195256803800,20.768803955078123,9.803610801696777,-0.12308400124311447,-0.21013399958610535
1779996195274080800,20.786080810546874,9.803587913513184,-0.12299700081348419,-0.211325004696846
1779996195291357400,20.803357421875,9.803571701049805,-0.12286899983882904,-0.21222199499607086
1779996195308634000,20.820634033203124,9.803571701049805,-0.12282399833202362,-0.2122340053319931
1779996195325911000,20.8379111328125,9.803589820861816,-0.12289100140333176,-0.21125000715255737
1779996195343187700,20.855187744140625,9.803619384765625,-0.12300000339746475,-0.20982399582862854
1779996195369103000,20.88110302734375,9.803646087646484,-0.12296400219202042,-0.20869000256061554
1779996195386379800,20.8983798828125,9.803634643554688,-0.1229029968380928,-0.2092210054397583
1779996195403656400,20.915656494140624,9.803607940673828,-0.12283100187778473,-0.21044400334358215
1779996195420933400,20.932933349609375,9.803585052490234,-0.122748002409935,-0.21160200238227844
1779996195446848500,20.9588486328125,9.803577423095703,-0.12285999953746796,-0.21188199520111084
1779996195464125200,20.976125244140626,9.803592681884766,-0.12291999906301498,-0.21107499301433563
1779996195481402000,20.993402099609376,9.803616523742676,-0.12296099960803986,-0.20998500287532806
1779996195498678800,21.0106787109375,9.803631782531738,-0.12300699949264526,-0.2093150019645691
1779996195515955700,21.027955810546874,9.80362606048584,-0.1230200007557869,-0.2094700038433075
1779996195533232400,21.045232421875,9.803605079650879,-0.12302500009536743,-0.21039199829101562
1779996195559147500,21.0711474609375,9.803568840026855,-0.12314900010824203,-0.21206599473953247
1779996195576424400,21.088424560546876,9.80356216430664,-0.12315700203180313,-0.21243500709533691
1779996195593701000,21.105701171875,9.803571701049805,-0.12317200005054474,-0.21189899742603302
1779996195610977800,21.122977783203126,9.803593635559082,-0.1231440007686615,-0.21086399257183075
1779996195628254700,21.140254638671873,9.803616523742676,-0.12304499745368958,-0.20993800461292267
1779996195645531400,21.157531494140624,9.803625106811523,-0.122980996966362,-0.20959599316120148
1779996195662808300,21.174808349609375,9.803616523742676,-0.12295199930667877,-0.21000300347805023
1779996195688723500,21.200723388671875,9.803586959838867,-0.12293600291013718,-0.21137599647045135
1779996195706000100,21.218000244140626,9.803572654724121,-0.12284299731254578,-0.2121489942073822
1779996195723277000,21.235277099609377,9.803569793701172,-0.12276399880647659,-0.21229800581932068
1779996195740553700,21.2525537109375,9.803584098815918,-0.12273500114679337,-0.21165800094604492
1779996195766468900,21.27846875,9.803616523742676,-0.12287600338459015,-0.21006999909877777
1779996195783745500,21.29574560546875,9.80362606048584,-0.12299399822950363,-0.20958000421524048
1779996195801022500,21.3130224609375,9.80361557006836,-0.12299200147390366,-0.21007399260997772
1779996195818299100,21.330299072265625,9.803589820861816,-0.1228640004992485,-0.21129100024700165
1779996195835576000,21.347576171875,9.80356502532959,-0.12279699742794037,-0.2124900072813034
1779996195852852700,21.364852783203126,9.803558349609375,-0.12276100367307663,-0.21293100714683533
1779996195878768000,21.39076806640625,9.803583145141602,-0.12257800251245499,-0.21178999543190002
1779996195896044800,21.408044921875,9.803614616394043,-0.12238600105047226,-0.21046599745750427
1779996195913321500,21.425321533203125,9.803638458251953,-0.1222430020570755,-0.2094469964504242
1779996195939236600,21.451236572265625,9.80363941192627,-0.12216699868440628,-0.20943400263786316
1779996195956513500,21.468513427734376,9.803619384765625,-0.12206300348043442,-0.2104319930076599
1779996195973790200,21.485790283203126,9.803597450256348,-0.1219479963183403,-0.21160799264907837
1779996195991067000,21.50306689453125,9.803585052490234,-0.1219249963760376,-0.21222999691963196
1779996196008343600,21.520343505859376,9.803589820861816,-0.12205500155687332,-0.2119230031967163
1779996196025620500,21.537620361328123,9.803609848022461,-0.12220200151205063,-0.21085000038146973
1779996196042897200,21.554897216796874,9.803633689880371,-0.12232600152492523,-0.20973899960517883
1779996196060173800,21.572173828125,9.803643226623535,-0.1223360002040863,-0.2093150019645691
1779996196077450800,21.58945068359375,9.803630828857422,-0.12236300110816956,-0.20979799330234528
1779996196094727400,21.6067275390625,9.803606033325195,-0.12237600237131119,-0.21088699996471405
1779996196112004600,21.624004638671874,9.80358600616455,-0.12236600369215012,-0.21192899346351624
1779996196129281000,21.641281005859376,9.803576469421387,-0.12243299931287766,-0.21233899891376495
1779996196146558000,21.658557861328124,9.803583145141602,-0.12259600311517715,-0.21190300583839417
1779996196163835000,21.6758349609375,9.80360221862793,-0.12272900342941284,-0.21088500320911407
1779996196181111600,21.693111572265625,9.803621292114258,-0.12281399965286255,-0.20989300310611725
1779996196198388200,21.71038818359375,9.803631782531738,-0.12281599640846252,-0.20951299369335175
1779996196215665200,21.7276650390625,9.803622245788574,-0.1227940022945404,-0.2099439948797226
1779996196232942000,21.744942138671874,9.80359935760498,-0.12291699647903442,-0.2109069973230362
1779996196250218500,21.762218505859376,9.80357837677002,-0.12303999811410904,-0.2118539959192276
1779996196267495200,21.7794951171875,9.803569793701172,-0.12300900369882584,-0.2122730016708374
1779996196284772000,21.796772216796874,9.80357837677002,-0.1228490024805069,-0.21199099719524384
1779996196302048800,21.814048828125,9.803597450256348,-0.12266100198030472,-0.21117199957370758
1779996196319325700,21.83132568359375,9.803619384765625,-0.12261199951171875,-0.21018099784851074
1779996196336602600,21.8486025390625,9.803633689880371,-0.12267699837684631,-0.2095550000667572
1779996196353879000,21.865879150390626,9.803628921508789,-0.12274199724197388,-0.20967599749565125
1779996196371155700,21.88315576171875,9.803609848022461,-0.12270499765872955,-0.2105810046195984
1779996196388432600,21.9004326171875,9.80358600616455,-0.12264999747276306,-0.21179500222206116
1779996196414347800,21.92634765625,9.803570747375488,-0.12271200120449066,-0.2125129997730255
1779996196431624700,21.943624755859375,9.803584098815918,-0.12283799797296524,-0.21181200444698334
1779996196448901400,21.9609013671875,9.803607940673828,-0.12287700176239014,-0.2106509953737259
1779996196466178300,21.97817822265625,9.803627967834473,-0.12292899936437607,-0.20974700152873993
1779996196483455000,21.995455078125,9.803631782531738,-0.12286599725484848,-0.20960000157356262
1779996196500731600,22.012731689453126,9.803620338439941,-0.12274900078773499,-0.21017299592494965
1779996196518008300,22.03000830078125,9.803604125976562,-0.122639000415802,-0.21101300418376923
1779996196535285200,22.04728515625,9.803592681884766,-0.1225230023264885,-0.2115740031003952
1779996196552562000,22.06456201171875,9.803598403930664,-0.12246499955654144,-0.21142199635505676
1779996196578477000,22.09047705078125,9.803629875183105,-0.12247399985790253,-0.20986199378967285
1779996196595754000,22.10775390625,9.803655624389648,-0.12241800129413605,-0.20868900418281555
1779996196613031000,22.125031005859373,9.803668022155762,-0.12231899797916412,-0.20815500617027283
1779996196638945800,22.15094580078125,9.803651809692383,-0.12225499749183655,-0.20893000066280365
1779996196656222500,22.168222412109376,9.803629875183105,-0.12234699726104736,-0.20991000533103943
1779996196673499400,22.18549951171875,9.803614616394043,-0.12251000106334686,-0.21062999963760376
1779996196699414500,22.21141455078125,9.803609848022461,-0.12269700318574905,-0.21065500378608704
1779996196716691500,22.22869140625,9.803619384765625,-0.12275300174951553,-0.21019500494003296
1779996196733968100,22.245968017578125,9.80362606048584,-0.12288200110197067,-0.2097720056772232
1779996196751244800,22.263244873046876,9.803625106811523,-0.12309300154447556,-0.20971600711345673
1779996196777160000,22.289159912109376,9.803601264953613,-0.12321899831295013,-0.21069400012493134
1779996196794436600,22.3064365234375,9.80357837677002,-0.1231909990310669,-0.21179699897766113
1779996196811713500,22.323713623046874,9.803561210632324,-0.12310999631881714,-0.21265099942684174
1779996196828990200,22.340990234375,9.803559303283691,-0.12307000160217285,-0.2127929925918579
1779996196846267100,22.35826708984375,9.803572654724121,-0.12300000339746475,-0.21216599643230438
1779996196863543800,22.375543701171875,9.803594589233398,-0.12296999990940094,-0.21114400029182434
1779996196889459000,22.401458984375,9.803618431091309,-0.12287099659442902,-0.21019400656223297
1779996196906735600,22.418735595703126,9.803610801696777,-0.12285300344228745,-0.21045899391174316
1779996196924012500,22.436012451171877,9.803593635559082,-0.12281700223684311,-0.21130700409412384
1779996196941289200,22.453289306640624,9.803576469421387,-0.1227559968829155,-0.2122579962015152
1779996196958566000,22.47056591796875,9.803566932678223,-0.1226859986782074,-0.2127400040626526
1779996196975842800,22.4878427734375,9.803574562072754,-0.12266699969768524,-0.2123900055885315
1779996196993119500,22.505119384765624,9.803594589233398,-0.12267400324344635,-0.2113579958677292
1779996197019034600,22.53103466796875,9.803630828857422,-0.12265799939632416,-0.2097879946231842
1779996197036311600,22.5483115234375,9.80363655090332,-0.12270399928092957,-0.2095160037279129
1779996197053588200,22.565588134765626,9.803624153137207,-0.12268900126218796,-0.21002399921417236
1779996197079503400,22.59150341796875,9.803593635559082,-0.12269499897956848,-0.21143299341201782
1779996197096780000,22.608780029296874,9.803582191467285,-0.12284000217914581,-0.21194100379943848
1779996197114057000,22.626056884765624,9.803583145141602,-0.12310999631881714,-0.21170100569725037
1779996197139972000,22.65197216796875,9.803606033325195,-0.12346599996089935,-0.210440993309021
1779996197157248800,22.669248779296876,9.803616523742676,-0.12357600033283234,-0.2098180055618286
1779996197174525700,22.686525634765626,9.803616523742676,-0.12363699823617935,-0.20988400280475616
1779996197191802400,22.70380224609375,9.803600311279297,-0.12361600250005722,-0.2106200009584427
1779996197209079000,22.7210791015625,9.803580284118652,-0.12367100268602371,-0.21150599420070648
1779996197226355700,22.738355712890623,9.803568840026855,-0.12381099909543991,-0.2119860053062439
1779996197243632600,22.755632568359374,9.803571701049805,-0.1238429993391037,-0.21177099645137787
1779996197260909300,22.772909423828125,9.803587913513184,-0.12386199831962585,-0.21096999943256378
1779996197286824400,22.798824462890625,9.803616523742676,-0.12380799651145935,-0.20961600542068481
1779996197304101400,22.816101318359376,9.803628921508789,-0.1237730011343956,-0.2091740071773529
1779996197321378000,22.8333779296875,9.803624153137207,-0.12395799905061722,-0.20928600430488586
1779996197347293000,22.85929296875,9.803597450256348,-0.12408299744129181,-0.2104160040616989
1779996197364569900,22.87656982421875,9.803579330444336,-0.12404599785804749,-0.21127299964427948
1779996197381846500,22.893846435546877,9.803573608398438,-0.12400099635124207,-0.2116599977016449
1779996197399123500,22.91112353515625,9.803580284118652,-0.12402799725532532,-0.21130000054836273
1779996197416400100,22.928400146484375,9.803600311279297,-0.12414900213479996,-0.2104180008172989
1779996197433676800,22.9456767578125,9.80361270904541,-0.12438700348138809,-0.20965899527072906
1779996197459592000,22.971592041015626,9.803606986999512,-0.12453199923038483,-0.2098200023174286
1779996197476868600,22.98886865234375,9.80358600616455,-0.12453500181436539,-0.21074900031089783
1779996197494145500,23.0061455078125,9.803564071655273,-0.12449900060892105,-0.21178999543190002
1779996197511422200,23.023422119140626,9.80355453491211,-0.12448299676179886,-0.21237100660800934
1779996197528699100,23.04069921875,9.803556442260742,-0.12459799647331238,-0.21217399835586548
1779996197545975800,23.057975830078124,9.803570747375488,-0.12478400021791458,-0.211340993642807
1779996197563252500,23.07525244140625,9.803589820861816,-0.12487500160932541,-0.21042400598526
1779996197589167600,23.101167724609375,9.803598403930664,-0.12476500123739243,-0.21013100445270538
1779996197606444300,23.1184443359375,9.803584098815918,-0.12471599876880646,-0.21076700091362
