time,seconds_elapsed,z,y,x
1779996174688684500,0.2006845703125,0.0009624999947845936,0.007012499962002039,0.0035749999806284904
1779996174705961200,0.217961181640625,-0.0002749999985098839,-0.007699999958276749,0.008387500420212746
1779996174723238000,0.23523779296875,0.0009624999947845936,-0.007699999958276749,0.0193875003606081
1779996174740514600,0.2525146484375,-0.0015124999918043613,0.002062499988824129,0.013337500393390656
1779996174757791200,0.269791259765625,-0.0015124999918043613,0.011824999935925007,-0.002474999986588955
1779996174775068000,0.28706787109375,0.0009624999947845936,0.0057749999687075615,-0.00989999994635582
1779996174792344600,0.304344482421875,0.002062499988824129,-0.0004124999977648258,0.0035749999806284904
1779996174809621200,0.321621337890625,0.002062499988824129,-0.0016499999910593033,0.007287499960511923
1779996174826898000,0.33889794921875,-0.0002749999985098839,-0.007699999958276749,0.0010999999940395355
1779996174844174300,0.35617431640625,-0.0015124999918043613,-0.007699999958276749,-0.0147124994546175
1779996174861451000,0.373450927734375,-0.0015124999918043613,0.0057749999687075615,-0.012374999932944775
1779996174878728000,0.39072802734375,-0.0002749999985098839,0.011824999935925007,0.0035749999806284904
1779996174896004400,0.40800439453125,0.0009624999947845936,-0.006462499964982271,0.01209999993443489
1779996174913281000,0.425281005859375,0.0009624999947845936,-0.02474999986588955,0.0010999999940395355
1779996174930557700,0.4425576171875,-0.0002749999985098839,-0.01993750035762787,0.013337500393390656
1779996174947834400,0.45983447265625,0.0009624999947845936,0.004537499975413084,0.035337500274181366
1779996174973749200,0.485749267578125,0.0032999999821186066,0.011824999935925007,0.020624998956918716
1779996174991026000,0.50302587890625,0.002062499988824129,-0.0004124999977648258,-0.011137500405311584
1779996175008302600,0.520302490234375,0.0009624999947845936,-0.003987499978393316,-0.03437500074505806
1779996175025579300,0.537579345703125,-0.0002749999985098839,0.008249999955296516,-0.030662499368190765
1779996175042856000,0.55485595703125,0.0009624999947845936,0.021587500348687172,-0.0147124994546175
1779996175060132600,0.572132568359375,0.002199999988079071,0.022824998944997787,0.009624999947845936
1779996175077409300,0.5894091796875,0.002199999988079071,0.019112499430775642,0.013337500393390656
1779996175094686000,0.60668603515625,0.002199999988079071,0.015537500381469727,0.009624999947845936
1779996175120600800,0.632600830078125,0.002199999988079071,-0.005224999971687794,0.0170499999076128
1779996175137877500,0.64987744140625,-0.0002749999985098839,-0.01746249943971634,0.009624999947845936
1779996175155154200,0.667154296875,-0.0002749999985098839,-0.018699999898672104,0.008387500420212746
1779996175172430800,0.684430908203125,0.0009624999947845936,-0.011412499472498894,-0.008662499487400055
1779996175189707500,0.70170751953125,0.0009624999947845936,-0.002749999985098839,-0.035475000739097595
1779996175215622700,0.72762255859375,-0.0002749999985098839,0.018012499436736107,-0.018424998968839645
1779996175232899000,0.744899169921875,-0.0002749999985098839,0.025299999862909317,0.004812499973922968
1779996175250175700,0.76217578125,0.0009624999947845936,0.018012499436736107,0.007287499960511923
1779996175267452400,0.779452392578125,0.0009624999947845936,0.007012499962002039,-0.0013749999925494194
1779996175284729000,0.79672900390625,-0.0015124999918043613,0.004537499975413084,-0.01966249942779541
1779996175302005800,0.814005859375,-0.0002749999985098839,0.010587500408291817,-0.015949999913573265
1779996175319282200,0.8312822265625,0.002199999988079071,0.01677500084042549,0.0010999999940395355
1779996175336559000,0.84855908203125,0.0009624999947845936,0.020349999889731407,0.002337499987334013
1779996175353835800,0.865835693359375,0.0009624999947845936,0.029012499377131462,0.0010999999940395355
1779996175371112200,0.8831123046875,0.0009624999947845936,0.03382499888539314,-0.002474999986588955
1779996175388388900,0.900388916015625,-0.0002749999985098839,0.024062499403953552,-0.00013749999925494194
1779996175405665500,0.91766552734375,-0.0015124999918043613,0.007012499962002039,-0.006187499966472387
1779996175422942500,0.9349423828125,-0.0002749999985098839,-0.003987499978393316,-0.0013749999925494194
1779996175448857000,0.960857177734375,-0.0015124999918043613,0.024062499403953552,-0.00989999994635582
1779996175466134000,0.978134033203125,0.0009624999947845936,0.08882500231266022,0.015812499448657036
1779996175483410700,0.99541064453125,0.0032999999821186066,0.11329999566078186,0.04138749837875366
1779996175509325800,1.021325927734375,0.0009624999947845936,0.027775000780820847,-0.02213750034570694
1779996175526602500,1.0386025390625,-0.0015124999918043613,-0.02474999986588955,-0.035475000739097595
1779996175543879200,1.055879150390625,-0.0015124999918043613,-0.08098749816417694,-0.03189999982714653
1779996175561155800,1.07315576171875,-0.0002749999985098839,-0.0859375,-0.0147124994546175
1779996175578432500,1.0904326171875,-0.0015124999918043613,-0.06146249920129776,0.020624998956918716
1779996175595709200,1.107709228515625,-0.0002749999985098839,-0.045512501150369644,0.02681249938905239
1779996175612985900,1.12498583984375,0.0008249999955296516,-0.03946249932050705,0.006049999967217445
1779996175630262500,1.142262451171875,-0.0002749999985098839,-0.025987500324845314,-0.011137500405311584
1779996175647539200,1.159539306640625,-0.0015124999918043613,-0.011412499472498894,-0.01347499992698431
1779996175664816000,1.176816162109375,0.0008249999955296516,0.0032999999821186066,-0.008662499487400055
1779996175682092800,1.1940927734375,0.002062499988824129,0.01924999989569187,-0.007424999959766865
1779996175699369500,1.211369384765625,0.002062499988824129,0.026537500321865082,-0.018424998968839645
1779996175716646100,1.228646240234375,0.0008249999955296516,0.024062499403953552,-0.006187499966472387
1779996175733922800,1.2459228515625,0.0008249999955296516,0.010587500408291817,-0.0013749999925494194
1779996175751199500,1.263199462890625,-0.0002749999985098839,0.0057749999687075615,-0.006187499966472387
1779996175777114600,1.289114501953125,-0.0015124999918043613,0.0008249999955296516,-0.00013749999925494194
1779996175794391300,1.306391357421875,-0.0002749999985098839,-0.002749999985098839,0.008387500420212746
1779996175811668000,1.32366796875,-0.0015124999918043613,0.0032999999821186066,0.002337499987334013
1779996175828944600,1.340944580078125,-0.0015124999918043613,0.0057749999687075615,-0.0013749999925494194
1779996175846221300,1.35822119140625,-0.0015124999918043613,0.010587500408291817,0.010862499475479126
1779996175863498000,1.375498046875,-0.0002749999985098839,0.015537500381469727,0.02433750033378601
1779996175880775000,1.39277490234375,-0.0015124999918043613,0.011824999935925007,0.013337500393390656
1779996175898051600,1.410051513671875,-0.0015124999918043613,0.018012499436736107,-0.00013749999925494194
1779996175915328300,1.427328369140625,-0.0015124999918043613,0.022824998944997787,-0.008662499487400055
1779996175932605000,1.44460498046875,-0.0015124999918043613,0.022824998944997787,-0.008662499487400055
1779996175949881600,1.461881591796875,-0.0002749999985098839,0.010587500408291817,-0.028187500312924385
1779996175975796700,1.487796630859375,0.002062499988824129,0.027775000780820847,0.0010999999940395355
1779996175993073400,1.505073486328125,-0.0015124999918043613,0.026537500321865082,0.025575000792741776
1779996176010350300,1.522350341796875,-0.002749999985098839,0.0057749999687075615,0.02928750030696392
1779996176027627000,1.539626953125,-0.0015124999918043613,-0.007699999958276749,0.009624999947845936
1779996176044903400,1.5569033203125,0.0009624999947845936,-0.005224999971687794,0.0035749999806284904
1779996176062180400,1.574180419921875,0.0009624999947845936,0.004537499975413084,-0.011137500405311584
1779996176079457000,1.59145703125,0.002199999988079071,0.018012499436736107,-0.018424998968839645
1779996176096734000,1.60873388671875,0.0009624999947845936,0.024062499403953552,-0.011137500405311584
1779996176114010600,1.6260107421875,-0.0015124999918043613,0.03753750026226044,-0.007424999959766865
1779996176131287600,1.64328759765625,-0.0015124999918043613,0.06311249732971191,0.01209999993443489
1779996176148564200,1.660564208984375,0.0009624999947845936,0.09129999577999115,0.05362499877810478
1779996176165841200,1.677841064453125,0.002199999988079071,0.09982500225305557,0.06833750009536743
1779996176183117800,1.695117919921875,-0.0002749999985098839,0.09363749623298645,0.0010999999940395355
1779996176209032700,1.72103271484375,-0.002749999985098839,0.03135000169277191,-0.02447500079870224
1779996176226309600,1.7383095703125,-0.006324999965727329,-0.040699999779462814,-0.04647500067949295
1779996176243586300,1.75558642578125,-0.02956249937415123,-0.19456249475479126,-0.14423750340938568
1779996176260863000,1.772863037109375,-0.057750001549720764,-0.6931374669075012,0.14891250431537628
1779996176278139600,1.7901396484375,-0.038087498396635056,-1.9013500213623047,0.0340999998152256
1779996176295416600,1.80741650390625,-0.013749999925494194,-2.148162603378296,-0.637862503528595
1779996176312693200,1.824693359375,-0.052799999713897705,-1.1951500177383423,0.8673499822616577
1779996176329970000,1.841969970703125,-0.014987500384449959,0.3111625015735626,0.5350124835968018
1779996176355885300,1.86788525390625,-0.01979999989271164,1.8932374715805054,-0.30428749322891235
1779996176373162000,1.885161865234375,-0.008799999952316284,1.815137505531311,-1.6726875305175781
1779996176390439000,1.90243896484375,0.04372499883174896,0.6788374781608582,1.4805999994277954
1779996176407715600,1.919715576171875,-0.016087500378489494,-1.0657625198364258,-0.8027250170707703
1779996176424992500,1.936992431640625,-0.025987500324845314,-1.9098750352859497,0.01209999993443489
1779996176442269400,1.95426953125,-0.0015124999918043613,-1.6399624347686768,0.7988749742507935
1779996176459546000,1.971546142578125,0.01924999989569187,-0.6919000148773193,0.14162500202655792
1779996176476822800,1.98882275390625,0.002199999988079071,0.7070249915122986,0.15262499451637268
1779996176494099500,2.006099365234375,-0.01251249946653843,1.7088500261306763,-0.34581249952316284
1779996176511376400,2.02337646484375,-0.002749999985098839,1.7821375131607056,-1.3989249467849731
1779996176528653000,2.040653076171875,0.03519999980926514,0.8828874826431274,1.302262544631958
1779996176545930000,2.057929931640625,-0.02227500081062317,-0.74566251039505,-0.8369625210762024
1779996176563206700,2.07520654296875,-0.023512499406933784,-1.7632999420166016,0.23567499220371246
1779996176589121800,2.101121826171875,0.0009624999947845936,-1.4176249504089355,-0.05389999970793724
1779996176606398700,2.118398681640625,-0.0002749999985098839,-0.12498749792575836,-0.20047499239444733
1779996176623675400,2.13567529296875,0.005912499967962503,1.2310374975204468,-0.029424998909235
1779996176658229200,2.170229248046875,0.021724998950958252,1.540137529373169,0.31638750433921814
1779996176675506000,2.187505859375,-0.003987499978393316,0.1938749998807907,-0.15895000100135803
1779996176692782800,2.204782958984375,-0.016087500378489494,-1.222100019454956,0.0170499999076128
1779996176710059500,2.2220595703125,-0.018562499433755875,-1.8842999935150146,0.013337500393390656
1779996176727336400,2.23933642578125,-0.018562499433755875,-1.4689124822616577,-0.16376249492168427
1779996176744613000,2.256613037109375,0.0009624999947845936,-0.1872749924659729,0.2857249975204468
1779996176761889800,2.273889892578125,0.007012499962002039,1.1431750059127808,0.23691250383853912
1779996176779166700,2.291166748046875,0.008249999955296516,1.768662452697754,-0.5033875107765198
1779996176796443600,2.308443603515625,0.02667500078678131,1.5377999544143677,0.1929125040769577
1779996176813720600,2.325720458984375,0.002199999988079071,0.26963749527931213,0.11962500214576721
1779996176830997200,2.342997314453125,-0.023512499406933784,-1.1573375463485718,-0.3665750026702881
1779996176848274200,2.360274169921875,-0.014987500384449959,-1.7840625047683716,0.4250124990940094
1779996176865551000,2.377551025390625,-0.016087500378489494,-1.4603874683380127,-0.45210000872612
1779996176882827800,2.394827880859375,-0.0015124999918043613,-0.23251250386238098,0.2441999912261963
1779996176908743200,2.4207431640625,0.007012499962002039,1.5268000364303589,0.03162499889731407
1779996176926020000,2.43802001953125,0.013199999928474426,1.72837495803833,-0.5975750088691711
1779996176943296800,2.455296875,0.022962499409914017,0.9941250085830688,0.6645374894142151
1779996176969212000,2.4812119140625,-0.01979999989271164,-1.0755250453948975,-0.37152498960494995
1779996176986488800,2.49848876953125,-0.01251249946653843,-1.7315374612808228,0.4104374945163727
1779996177003765800,2.515765869140625,-0.016087500378489494,-1.450487494468689,-0.4288625121116638
1779996177021042400,2.53304248046875,-0.003987499978393316,-0.2703250050544739,0.24062499403953552
1779996177038319400,2.5503193359375,0.008249999955296516,1.0124125480651855,0.29315000772476196
1779996177055596300,2.56759619140625,0.009487500414252281,1.631850004196167,-0.4203374981880188
1779996177072873200,2.584873291015625,0.02419999986886978,1.4693249464035034,0.16362500190734863
1779996177098788400,2.610788330078125,-0.016087500378489494,-0.3998500108718872,-0.5291000008583069
1779996177116065300,2.628065185546875,-0.014987500384449959,-1.450487494468689,0.34072500467300415
1779996177133342200,2.64534228515625,-0.018562499433755875,-1.6655374765396118,-0.17599999904632568
1779996177150619100,2.662619140625,-0.011274999938905239,-0.9179499745368958,-0.11123749613761902
1779996177167895800,2.679895751953125,0.005912499967962503,0.36739999055862427,0.370012491941452
1779996177185172700,2.6971728515625,0.008249999955296516,1.377750039100647,-0.030662499368190765
1779996177202449700,2.71444970703125,0.015675000846385956,1.6330875158309937,-0.47286251187324524
1779996177228365000,2.740364990234375,-0.0002749999985098839,0.36121249198913574,0.04386249929666519
1779996177245642000,2.75764208984375,-0.01732499897480011,-0.9497125148773193,-0.24199999868869781
1779996177262918700,2.774918701171875,-0.01251249946653843,-1.608199954032898,0.3016749918460846
1779996177280195600,2.792195556640625,-0.016087500378489494,-1.38462495803833,-0.39957499504089355
1779996177297472500,2.809472412109375,-0.002749999985098839,-0.31927499175071716,0.3139125108718872
1779996177314749200,2.826749267578125,0.008249999955296516,0.8694124817848206,0.20019999146461487
1779996177332026000,2.844026123046875,0.011962499469518661,1.5072749853134155,-0.4460499882698059
1779996177357941200,2.869941162109375,0.01924999989569187,0.9843624830245972,0.5252500176429749
1779996177375218200,2.88721826171875,-0.014987500384449959,-0.29727500677108765,-0.4875749945640564
1779996177392495000,2.9044951171875,-0.01251249946653843,-1.3063875436782837,0.36272498965263367
1779996177418410500,2.930410400390625,-0.01732499897480011,-1.354099988937378,-0.3630000054836273
1779996177435687400,2.9476875,-0.003987499978393316,-0.33274999260902405,0.33219999074935913
1779996177452964400,2.96496435546875,0.008249999955296516,0.8120750188827515,0.14891250431537628
1779996177478879500,2.99087939453125,0.01677500084042549,1.536562442779541,-0.30057498812675476
1779996177496156400,3.008156494140625,0.014437500387430191,0.9781749844551086,0.44948750734329224
1779996177513433300,3.025433349609375,-0.014987500384449959,-0.24722500145435333,-0.44481250643730164
1779996177530710000,3.0427099609375,-0.008799999952316284,-1.2368124723434448,0.35791251063346863
1779996177547987000,3.059987060546875,-0.01732499897480011,-1.5349124670028687,-0.29823750257492065
1779996177565264000,3.077263916015625,-0.010037500411272049,-0.9179499745368958,0.10381250083446503
1779996177591179000,3.103178955078125,0.007149999961256981,0.7460749745368958,0.08786249905824661
1779996177608456000,3.1204560546875,0.011962499469518661,1.4070374965667725,-0.41676250100135803
1779996177625732900,3.13773291015625,0.0193875003606081,1.3545124530792236,0.3492499887943268
1779996177643009800,3.155009765625,-0.0002749999985098839,0.4259749948978424,-0.16142499446868896
1779996177660286700,3.17228662109375,-0.010037500411272049,-0.7444249987602234,0.01209999993443489
1779996177686202000,3.1982021484375,-0.018562499433755875,-1.496962547302246,-0.3092375099658966
1779996177703479000,3.21547900390625,-0.010037500411272049,-0.9190499782562256,0.1551000028848648
1779996177720756000,3.232755859375,0.002199999988079071,0.15482500195503235,0.18191249668598175
1779996177746671000,3.258671142578125,0.013199999928474426,1.3679875135421753,-0.3385249972343445
1779996177763948000,3.275947998046875,0.0193875003606081,1.3325124979019165,0.33467498421669006
1779996177781225000,3.293224853515625,-0.0002749999985098839,0.445499986410141,-0.19552500545978546
1779996177807140400,3.319140380859375,-0.008799999952316284,-1.1378124952316284,0.24543750286102295
1779996177824417300,3.336417236328125,-0.018562499433755875,-1.459149956703186,-0.2810499966144562
1779996177841694200,3.353694091796875,-0.010037500411272049,-0.9129999876022339,0.18314999341964722
1779996177858971100,3.37097119140625,0.002199999988079071,0.11687500029802322,0.1013374999165535
1779996177876248000,3.388248046875,0.008387500420212746,1.0514625310897827,-0.1882375031709671
1779996177893524700,3.405524658203125,0.018149999901652336,1.4338500499725342,0.0695749968290329
1779996177910801700,3.4228017578125,0.010724999941885471,0.9598875045776367,0.07686249911785126
1779996177928078600,3.44007861328125,-0.002612499985843897,-0.11893749982118607,-0.11866249889135361
1779996177945355500,3.45735546875,-0.011274999938905239,-1.0938124656677246,0.12333749979734421
1779996177971271000,3.48327099609375,-0.01732499897480011,-1.2563375234603882,-0.01347499992698431
1779996177988547800,3.5005478515625,-0.002612499985843897,-0.4170374870300293,0.11838749796152115
1779996178005824800,3.51782470703125,0.009487500414252281,0.6043124794960022,-0.0672374963760376
1779996178023101700,3.535101806640625,0.01691249944269657,1.303225040435791,-0.045237500220537186
1779996178040378600,3.552378662109375,0.013199999928474426,1.2677500247955322,0.11838749796152115
1779996178057655600,3.569655517578125,0.0009624999947845936,0.46873748302459717,-0.08195000141859055
1779996178074932500,3.586932373046875,-0.007562499959021807,-0.6124249696731567,0.06833750009536743
1779996178092209400,3.60420947265625,-0.016087500378489494,-1.3198624849319458,-0.10642500221729279
1779996178118124800,3.630124755859375,-0.007562499959021807,-0.8922374844551086,0.07081250101327896
1779996178135401700,3.647401611328125,0.0034374999813735485,0.05706249922513962,0.0010999999940395355
1779996178152678700,3.6646787109375,0.010724999941885471,0.9794124960899353,-0.03437500074505806
1779996178169955600,3.68195556640625,0.013199999928474426,1.3495625257492065,0.0340999998152256
1779996178187232500,3.699232421875,0.010724999941885471,0.9378874897956848,0.030387500301003456
1779996178204509400,3.716509521484375,-0.0002749999985098839,-0.06270000338554382,-0.015949999913573265
1779996178221786400,3.733786376953125,-0.010037500411272049,-1.0070500373840332,-0.00989999994635582
1779996178239063300,3.751063232421875,-0.01484999991953373,-1.3235750198364258,-0.052662499248981476
1779996178256340000,3.768340087890625,-0.011137500405311584,-0.8922374844551086,0.018287500366568565
1779996178273617000,3.785616943359375,-0.0002749999985098839,0.04235000163316727,0.03162499889731407
1779996178290893800,3.802893798828125,0.009624999947845936,0.9476500153541565,-0.030662499368190765
1779996178308170800,3.820170654296875,0.015675000846385956,1.3215124607086182,0.01209999993443489
1779996178334086100,3.846086181640625,0.004674999974668026,0.4834499955177307,-0.020899999886751175
1779996178351363000,3.863363037109375,-0.007562499959021807,-0.5465624928474426,-0.0013749999925494194
1779996178368640000,3.880639892578125,-0.01484999991953373,-1.239150047302246,-0.033137500286102295
1779996178385917000,3.8979169921875,-0.013612499460577965,-1.1842875480651855,-0.033137500286102295
1779996178403193900,3.91519384765625,-0.005087499972432852,-0.45003750920295715,0.045099999755620956
1779996178429109200,3.941109130859375,0.009624999947845936,0.9073625206947327,-0.037950001657009125
1779996178446386200,3.95838623046875,0.014437500387430191,1.282462477684021,0.028049999848008156
1779996178463663000,3.9756630859375,0.009624999947845936,0.9183624982833862,0.040150001645088196
1779996178489578500,4.00157861328125,-0.007562499959021807,-0.5159000158309937,0.009624999947845936
1779996178506855400,4.01885546875,-0.01484999991953373,-1.196387529373169,-0.045237500220537186
1779996178524132400,4.03613232421875,-0.012374999932944775,-1.1561000347137451,-0.015949999913573265
1779996178541409300,4.0534091796875,-0.0038499999791383743,-0.4548499882221222,0.03162499889731407
1779996178558686500,4.0706865234375,0.005912499967962503,0.4857875108718872,0.0010999999940395355
1779996178575963400,4.08796337890625,0.013199999928474426,1.1529375314712524,-0.023375000804662704
1779996178593240000,4.105239990234375,0.010724999941885471,1.1639374494552612,0.05857500061392784
1779996178610517200,4.122517333984375,0.0034374999813735485,0.4894999861717224,-0.012374999932944775
1779996178627794200,4.139794189453125,-0.005087499972432852,-0.47932499647140503,0.0035749999806284904
1779996178653709600,4.16570947265625,-0.01251249946653843,-1.2318625450134277,-0.04895000159740448
1779996178670986500,4.182986572265625,-0.007562499959021807,-0.8654249906539917,0.015812499448657036
1779996178688263400,4.200263427734375,0.0009624999947845936,-0.018699999898672104,0.018287500366568565
1779996178714178800,4.2261787109375,0.010724999941885471,1.1137499809265137,-0.018424998968839645
1779996178731456000,4.2434560546875,0.014437500387430191,1.1504625082015991,0.05004999786615372
1779996178748733000,4.26073291015625,0.005912499967962503,0.5066875219345093,-0.002474999986588955
1779996178774648300,4.2866484375,-0.010037500411272049,-0.8617125153541565,-0.00494999997317791
1779996178791925200,4.30392529296875,-0.01484999991953373,-1.2086249589920044,-0.04647500067949295
1779996178809202200,4.3212021484375,-0.010037500411272049,-0.864187479019165,0.008387500420212746
1779996178826479000,4.33847900390625,0.002199999988079071,-0.03464999794960022,0.0170499999076128
1779996178843756300,4.35575634765625,0.009487500414252281,0.8083624839782715,-0.012374999932944775
1779996178861033200,4.373033203125,0.013199999928474426,1.1932250261306763,0.014574999921023846
1779996178878310100,4.39031005859375,0.009487500414252281,0.9011750221252441,0.035337500274181366
1779996178895587000,4.407587158203125,-0.0015124999918043613,0.04358749836683273,-0.01718750037252903
1779996178912864300,4.4248642578125,-0.010037500411272049,-0.8299499750137329,-0.00494999997317791
1779996178930141200,4.44214111328125,-0.013612499460577965,-1.175624966621399,-0.04166249930858612
1779996178947418000,4.459418212890625,-0.008799999952316284,-0.8519499897956848,0.006049999967217445
1779996178964695000,4.476695068359375,-0.0002749999985098839,-0.050462499260902405,0.0170499999076128
1779996178981972000,4.493971923828125,0.008249999955296516,0.7728874683380127,-0.008662499487400055
1779996178999249000,4.511248779296875,0.013199999928474426,1.1602250337600708,0.013337500393390656
1779996179016526000,4.528526123046875,0.010724999941885471,0.8878374695777893,0.03657500073313713
1779996179033803000,4.545802978515625,-0.0002749999985098839,0.06187500059604645,-0.01347499992698431
1779996179059718400,4.571718505859375,-0.013612499460577965,-1.0583374500274658,-0.02694999985396862
1779996179076995300,4.588995361328125,-0.013612499460577965,-1.0828125476837158,-0.02213750034570694
1779996179094272500,4.6062724609375,-0.0038499999791383743,-0.4890874922275543,0.0170499999076128
1779996179111549700,4.6235498046875,0.004674999974668026,0.3722124993801117,0.007287499960511923
1779996179128826400,4.640826416015625,0.010724999941885471,1.0172250270843506,-0.008662499487400055
1779996179146103600,4.658103515625,0.011962499469518661,1.0844625234603882,0.03904999792575836
1779996179163380700,4.675380615234375,0.004674999974668026,0.5152124762535095,0.004812499973922968
1779996179180657700,4.69265771484375,-0.0038499999791383743,-0.368087500333786,-0.007424999959766865
1779996179197934600,4.7099345703125,-0.012374999932944775,-1.026574969291687,-0.025712499395012856
1779996179215211800,4.727211669921875,-0.012374999932944775,-1.0730500221252441,-0.020899999886751175
1779996179232488700,4.74448876953125,-0.005087499972432852,-0.4988499879837036,0.01209999993443489
1779996179249765600,4.761765625,0.004674999974668026,0.3502124845981598,0.007287499960511923
1779996179267042600,4.77904248046875,0.011962499469518661,0.9941250085830688,-0.006187499966472387
1779996179284319500,4.796319580078125,0.011962499469518661,1.0709874629974365,0.035337500274181366
1779996179301596700,4.8135966796875,0.0034374999813735485,0.5139750242233276,0.009624999947845936
1779996179318873600,4.83087353515625,-0.005087499972432852,-0.35103750228881836,-0.01347499992698431
1779996179344789200,4.856789306640625,-0.011274999938905239,-1.100000023841858,-0.035475000739097595
1779996179362066200,4.874066162109375,-0.007562499959021807,-0.8274750113487244,-0.0037124999798834324
1779996179379343400,4.89134326171875,-0.002612499985843897,-0.09322500228881836,0.018287500366568565
1779996179405258500,4.917258544921875,0.010724999941885471,0.9586499929428101,-0.008662499487400055
1779996179422535700,4.93453564453125,0.013199999928474426,1.0489875078201294,0.032862499356269836
1779996179439812900,4.951812744140625,0.007149999961256981,0.517549991607666,0.009624999947845936
1779996179457089800,4.96908984375,-0.005087499972432852,-0.3265624940395355,-0.00989999994635582
1779996179474367000,4.986366943359375,-0.013612499460577965,-0.9704750180244446,-0.02213750034570694
1779996179491644000,5.003643798828125,-0.012374999932944775,-1.034000039100647,-0.025712499395012856
1779996179508920800,5.0209208984375,-0.005087499972432852,-0.5013250112533569,0.010862499475479126
1779996179526198000,5.038197998046875,0.0034374999813735485,0.3111625015735626,0.008387500420212746
1779996179543475000,5.055474853515625,0.010724999941885471,0.9378874897956848,-0.00494999997317791
1779996179569390300,5.081390380859375,0.009487500414252281,0.8511250019073486,0.03162499889731407
1779996179586667300,5.098667236328125,-0.0002749999985098839,0.11563749611377716,-0.011137500405311584
1779996179603944400,5.1159443359375,-0.010037500411272049,-0.6869499683380127,-0.00989999994635582
1779996179621221400,5.133221435546875,-0.012374999932944775,-1.0498124361038208,-0.033137500286102295
1779996179638498300,5.150498291015625,-0.007562499959021807,-0.8079500198364258,-0.002474999986588955
1779996179655775500,5.167775390625,0.0009624999947845936,-0.113987497985363,0.01209999993443489
1779996179673052400,5.185052490234375,0.007149999961256981,0.6410250067710876,-0.0013749999925494194
1779996179698967800,5.2109677734375,0.009487500414252281,1.0026500225067139,0.02928750030696392
1779996179716245000,5.228244873046875,0.004674999974668026,0.512737512588501,0.007287499960511923
1779996179733522000,5.24552197265625,-0.0038499999791383743,-0.28503748774528503,-0.007424999959766865
1779996179759437300,5.271437255859375,-0.011274999938905239,-1.0230000019073486,-0.029424998909235
1779996179776714500,5.288714599609375,-0.008799999952316284,-0.7994250059127808,-0.0037124999798834324
1779996179793991400,5.305991455078125,-0.002612499985843897,-0.12870000302791595,0.009624999947845936
1779996179811268400,5.323268310546875,0.007149999961256981,0.6128374934196472,0.0010999999940395355
1779996179828545300,5.340545166015625,0.011962499469518661,1.0038875341415405,0.009624999947845936
1779996179845822500,5.357822509765625,0.009487500414252281,0.823074996471405,0.02928750030696392
1779996179863099400,5.375099365234375,0.0009624999947845936,0.14258749783039093,-0.007424999959766865
1779996179880376300,5.392376220703125,-0.007562499959021807,-0.6283749938011169,-0.008662499487400055
1779996179897653500,5.409653564453125,-0.012374999932944775,-0.9960500001907349,-0.028187500312924385
1779996179914930400,5.426930419921875,-0.008799999952316284,-0.7871875166893005,-0.00494999997317791
1779996179932207400,5.444207275390625,-0.0002749999985098839,-0.13846249878406525,0.010862499475479126
1779996179949484500,5.461484619140625,0.007149999961256981,0.5847874879837036,0.002337499987334013
1779996179966761500,5.478761474609375,0.010724999941885471,0.9744625091552734,0.008387500420212746
1779996179984038700,5.49603857421875,0.008387500420212746,0.8083624839782715,0.028049999848008156
1779996180001315600,5.513315673828125,0.002199999988079071,0.15358750522136688,-0.00494999997317791
1779996180018592500,5.530592529296875,-0.006324999965727329,-0.5953750014305115,-0.00989999994635582
1779996180035869400,5.547869384765625,-0.012374999932944775,-0.9667624831199646,-0.02694999985396862
1779996180053146600,5.565146728515625,-0.00989999994635582,-0.7811374664306641,-0.007424999959766865
1779996180070423800,5.582423828125,-0.0013749999925494194,-0.1531749963760376,0.008387500420212746
1779996180087700700,5.59970068359375,0.005912499967962503,0.5640249848365784,0.0035749999806284904
1779996180113616100,5.6256162109375,0.01209999993443489,0.9476500153541565,0.023099999874830246
1779996180130893300,5.642893310546875,0.004674999974668026,0.517549991607666,0.013337500393390656
1779996180148170500,5.66017041015625,-0.0038499999791383743,-0.2264624983072281,-0.00989999994635582
1779996180165447200,5.677447265625,-0.00989999994635582,-0.8262374997138977,-0.018424998968839645
1779996180182724000,5.69472412109375,-0.011137500405311584,-0.9301875233650208,-0.02213750034570694
1779996180200001300,5.712001220703125,-0.0038499999791383743,-0.49761250615119934,0.0035749999806284904
1779996180217278200,5.7292783203125,0.004674999974668026,0.21092499792575836,0.008387500420212746
1779996180243193600,5.755193603515625,0.009624999947845936,0.9293624758720398,0.008387500420212746
1779996180260470800,5.772470703125,0.007149999961256981,0.7888374924659729,0.02681249938905239
1779996180277747700,5.789747802734375,0.0010999999940395355,0.17434999346733093,-0.002474999986588955
1779996180303663000,5.8156630859375,-0.00989999994635582,-0.8006625175476074,-0.01718750037252903
1779996180320940300,5.832940185546875,-0.00989999994635582,-0.9154750108718872,-0.020899999886751175
1779996180338217200,5.85021728515625,-0.006324999965727329,-0.5013250112533569,0.0035749999806284904
1779996180364132600,5.876132568359375,0.005912499967962503,0.5163124799728394,0.004812499973922968
1779996180381409800,5.893409912109375,0.009624999947845936,0.906125009059906,0.008387500420212746
1779996180398686700,5.910686767578125,0.009624999947845936,0.7766000032424927,0.02433750033378601
1779996180424602600,5.9366025390625,-0.002612499985843897,-0.18975000083446503,-0.006187499966472387
1779996180441879600,5.953879638671875,-0.00989999994635582,-0.7761874794960022,-0.01966249942779541
1779996180459156500,5.971156494140625,-0.011137500405311584,-0.8971874713897705,-0.020899999886751175
1779996180476433400,5.988433349609375,-0.005087499972432852,-0.5013250112533569,-0.00013749999925494194
1779996180493710600,6.005710693359375,0.002337499987334013,0.17668749392032623,0.007287499960511923
1779996180510987500,6.022987548828125,0.008387500420212746,0.7485499978065491,0.002337499987334013
1779996180528264400,6.040264404296875,0.009624999947845936,0.8901749849319458,0.0193875003606081
1779996180545541600,6.057541748046875,0.005912499967962503,0.5163124799728394,0.01209999993443489
1779996180562818600,6.074818603515625,-0.0013749999925494194,-0.1751749962568283,-0.006187499966472387
1779996180588734000,6.10073388671875,-0.011137500405311584,-0.8799999952316284,-0.02213750034570694
1779996180606011000,6.118010986328125,-0.008799999952316284,-0.7419499754905701,-0.00989999994635582
1779996180623288000,6.1352880859375,-0.002612499985843897,-0.18246249854564667,0.006049999967217445
1779996180649203500,6.161203369140625,0.008387500420212746,0.7253124713897705,0.002337499987334013
1779996180666480400,6.17848046875,0.009624999947845936,0.8743624687194824,0.020624998956918716
1779996180683757600,6.195757568359375,0.005912499967962503,0.5163124799728394,0.013337500393390656
1779996180701034500,6.213034423828125,-0.002612499985843897,-0.15798750519752502,-0.007424999959766865
1779996180718311400,6.2303115234375,-0.00989999994635582,-0.7309499979019165,-0.015949999913573265
1779996180735588400,6.24758837890625,-0.011137500405311584,-0.8629499673843384,-0.020899999886751175
1779996180752865500,6.264865478515625,-0.005087499972432852,-0.5000874996185303,0.0010999999940395355
1779996180778781000,6.290781005859375,0.005912499967962503,0.454025000333786,0.004812499973922968
1779996180796057900,6.308057861328125,0.009624999947845936,0.8401250243186951,0.008387500420212746
1779996180813335000,6.3253349609375,0.008387500420212746,0.7423624992370605,0.02186249941587448
1779996180839250400,6.35125048828125,-0.0013749999925494194,-0.14093749225139618,-0.0037124999798834324
1779996180856527400,6.36852734375,-0.008799999952316284,-0.7077124714851379,-0.01718750037252903
1779996180873804500,6.385804443359375,-0.00989999994635582,-0.8457624912261963,-0.018424998968839645
1779996180899720000,6.411719970703125,-0.0013749999925494194,-0.20074999332427979,0.0035749999806284904
1779996180916997000,6.4289970703125,0.007149999961256981,0.4320249855518341,0.004812499973922968
1779996180934274300,6.4462744140625,0.008387500420212746,0.8181250095367432,0.009624999947845936
1779996180960189400,6.472189453125,0.004674999974668026,0.5163124799728394,0.01209999993443489
1779996180977466600,6.489466552734375,-0.0013749999925494194,-0.1237500011920929,-0.006187499966472387
1779996180994743600,6.50674365234375,-0.007562499959021807,-0.6833750009536743,-0.0147124994546175
1779996181012020700,6.524020751953125,-0.008799999952316284,-0.8311874866485596,-0.01718750037252903
1779996181029297700,6.541297607421875,-0.006324999965727329,-0.5025625228881836,-0.0013749999925494194
1779996181046574600,6.55857470703125,0.0009624999947845936,0.10958749800920486,0.006049999967217445
1779996181063851800,6.575851806640625,0.007149999961256981,0.6580749750137329,0.004812499973922968
1779996181089767000,6.601766845703125,0.009624999947845936,0.7277874946594238,0.020624998956918716
1779996181107044000,6.619044189453125,0.002199999988079071,0.22192500531673431,0.0035749999806284904
1779996181124321300,6.6363212890625,-0.006324999965727329,-0.42061248421669006,-0.00989999994635582
1779996181141598200,6.65359814453125,-0.011137500405311584,-0.7969499826431274,-0.020899999886751175
1779996181158875100,6.670875244140625,-0.007562499959021807,-0.7053750157356262,-0.00989999994635582
1779996181176152000,6.688152099609375,-0.0013749999925494194,-0.2129874974489212,0.0010999999940395355
1779996181193429200,6.70542919921875,0.004674999974668026,0.3979249894618988,0.006049999967217445
1779996181210706200,6.7227060546875,0.007149999961256981,0.7766000032424927,0.008387500420212746
1779996181236621600,6.74862158203125,0.005912499967962503,0.5139750242233276,0.013337500393390656
1779996181253898500,6.7658984375,-0.0013749999925494194,-0.0919874981045723,-0.0037124999798834324
1779996181271175700,6.78317578125,-0.007562499959021807,-0.6393749713897705,-0.015949999913573265
1779996181297091300,6.80909130859375,-0.007562499959021807,-0.6967124938964844,-0.00989999994635582
1779996181314368000,6.826367919921875,-0.0013749999925494194,-0.22522500157356262,0.0010999999940395355
1779996181331645200,6.843645263671875,0.004674999974668026,0.3746874928474426,0.008387500420212746
1779996181348922400,6.86092236328125,0.009624999947845936,0.7583125233650208,0.007287499960511923
1779996181366199300,6.87819921875,0.007149999961256981,0.7057874798774719,0.020624998956918716
1779996181383476200,6.895476318359375,0.002199999988079071,0.23416249454021454,0.0010999999940395355
1779996181400753200,6.912753173828125,-0.005087499972432852,-0.37908750772476196,-0.008662499487400055
1779996181418030000,6.930030029296875,-0.00989999994635582,-0.7517125010490417,-0.01966249942779541
1779996181435307300,6.947307373046875,-0.007562499959021807,-0.684612512588501,-0.011137500405311584
1779996181452584200,6.964584228515625,-0.002612499985843897,-0.2287999987602234,0.0035749999806284904
1779996181469861400,6.981861328125,0.0034374999813735485,0.3587374985218048,0.006049999967217445
1779996181487138300,6.99913818359375,0.007149999961256981,0.7363125085830688,0.008387500420212746
1779996181504415200,7.016415283203125,0.007149999961256981,0.6910749673843384,0.0170499999076128
1779996181521692400,7.0336923828125,0.0034374999813735485,0.23663750290870667,0.0035749999806284904
1779996181538969300,7.05096923828125,-0.0038499999791383743,-0.3620375096797943,-0.00989999994635582
1779996181556246300,7.068246337890625,-0.008799999952316284,-0.7346624732017517,-0.018424998968839645
1779996181573523200,7.085523193359375,-0.006324999965727329,-0.6771875023841858,-0.011137500405311584
1779996181599438800,7.11143896484375,-0.00013749999925494194,0.06187500059604645,0.008387500420212746
1779996181616715800,7.1287158203125,0.004674999974668026,0.57378751039505,0.004812499973922968
1779996181633992700,7.14599267578125,0.008387500420212746,0.7558375000953674,0.013337500393390656
1779996181651270000,7.163269775390625,0.005912499967962503,0.5077875256538391,0.013337500393390656
1779996181668546800,7.180546875,-0.0013749999925494194,-0.050462499260902405,-0.002474999986588955
1779996181685823700,7.19782373046875,-0.007562499959021807,-0.5758500099182129,-0.01347499992698431
1779996181703100700,7.2151005859375,-0.008799999952316284,-0.7517125010490417,-0.018424998968839645
1779996181720377600,7.232377685546875,-0.005087499972432852,-0.49156248569488525,-0.0037124999798834324
1779996181737654800,7.24965478515625,0.002199999988079071,0.04729999974370003,0.004812499973922968
1779996181763570400,7.2755703125,0.007149999961256981,0.696025013923645,0.010862499475479126
1779996181780847400,7.292847412109375,0.007149999961256981,0.6715499758720398,0.015812499448657036
1779996181798124300,7.310124267578125,0.002199999988079071,0.25011250376701355,0.007287499960511923
1779996181824040000,7.3360400390625,-0.005087499972432852,-0.5550875067710876,-0.01347499992698431
1779996181841316900,7.35331689453125,-0.007562499959021807,-0.7383750081062317,-0.01347499992698431
1779996181858593800,7.37059375,-0.006324999965727329,-0.49761250615119934,-0.006187499966472387
1779996181875870700,7.38787060546875,-0.0013749999925494194,0.028875000774860382,0.004812499973922968
1779996181893148000,7.40514794921875,0.004674999974668026,0.5347374677658081,0.006049999967217445
1779996181910424800,7.4224248046875,0.008387500420212746,0.7301250100135803,0.01209999993443489
1779996181927701800,7.43970166015625,0.004674999974668026,0.509024977684021,0.01209999993443489
1779996181944978700,7.456978759765625,-0.00013749999925494194,-0.02241249941289425,-0.002474999986588955
1779996181962256000,7.474255859375,-0.006324999965727329,-0.5378999710083008,-0.0147124994546175
1779996181979532800,7.49153271484375,-0.008799999952316284,-0.7284749746322632,-0.01718750037252903
1779996181996809700,7.508809814453125,-0.006324999965727329,-0.495137482881546,-0.006187499966472387
1779996182022725000,7.53472509765625,0.0034374999813735485,0.2891624867916107,0.008387500420212746
1779996182040002300,7.552002197265625,0.009487500414252281,0.6678375005722046,0.008387500420212746
1779996182057279200,7.569279296875,0.008387500420212746,0.6605499982833862,0.015812499448657036
1779996182074556200,7.58655615234375,0.0009624999947845936,0.26221248507499695,0.004812499973922968
1779996182091833300,7.603833251953125,-0.005087499972432852,-0.29727500677108765,-0.008662499487400055
1779996182109110300,7.6211103515625,-0.007562499959021807,-0.6601374745368958,-0.01718750037252903
1779996182126387200,7.63838720703125,-0.006324999965727329,-0.636900007724762,-0.00989999994635582
1779996182143664000,7.6556640625,-0.0002749999985098839,-0.2532750070095062,-0.0013749999925494194
1779996182160941300,7.67294140625,0.0034374999813735485,0.2732124924659729,0.007287499960511923
1779996182178218200,7.69021826171875,0.007149999961256981,0.6447374820709229,0.006049999967217445
1779996182204133600,7.716133544921875,0.005912499967962503,0.4992625117301941,0.013337500393390656
1779996182221410600,7.73341064453125,-0.0002749999985098839,-0.0016499999910593033,-0.00013749999925494194
1779996182238687700,7.750687744140625,-0.006324999965727329,-0.5013250112533569,-0.012374999932944775
1779996182255964700,7.767964599609375,-0.008799999952316284,-0.697950005531311,-0.015949999913573265
1779996182273241600,7.78524169921875,-0.005087499972432852,-0.4866124987602234,-0.006187499966472387
1779996182290518500,7.8025185546875,-0.0015124999918043613,0.0008249999955296516,0.0035749999806284904
1779996182307795700,7.819795654296875,0.005912499967962503,0.4846875071525574,0.007287499960511923
1779996182325072600,7.83707275390625,0.008387500420212746,0.6873624920845032,0.013337500393390656
1779996182342349600,7.854349609375,0.007149999961256981,0.49445000290870667,0.01209999993443489
1779996182359626500,7.87162646484375,-0.0002749999985098839,0.004537499975413084,-0.0013749999925494194
1779996182376903700,7.888903564453125,-0.006324999965727329,-0.48785001039505005,-0.012374999932944775
1779996182394180600,7.9061806640625,-0.007562499959021807,-0.6857125163078308,-0.015949999913573265
1779996182411457500,7.92345751953125,-0.005087499972432852,-0.48179998993873596,-0.006187499966472387
1779996182428734500,7.940734375,-0.0002749999985098839,-0.005224999971687794,0.0035749999806284904
1779996182446011400,7.958011474609375,0.005912499967962503,0.46997499465942383,0.006049999967217445
1779996182463288300,7.975288330078125,0.008387500420212746,0.6740249991416931,0.01209999993443489
1779996182489204000,8.001203857421874,0.002199999988079071,0.27211248874664307,0.007287499960511923
1779996182506481000,8.01848095703125,-0.0038499999791383743,-0.2532750070095062,-0.00494999997317791
1779996182523757800,8.0357578125,-0.007562499959021807,-0.6173750162124634,-0.0147124994546175
1779996182549673200,8.061673095703124,-0.005087499972432852,-0.4805625081062317,-0.006187499966472387
1779996182566950400,8.078950439453125,0.0009624999947845936,-0.015124999918043613,0.002337499987334013
1779996182584227300,8.096227294921874,0.0034374999813735485,0.45278748869895935,0.007287499960511923
1779996182601504300,8.113504150390625,0.005912499967962503,0.6580749750137329,0.010862499475479126
1779996182618781200,8.13078125,0.005912499967962503,0.48454999923706055,0.01209999993443489
1779996182636058400,8.148058349609375,-0.00013749999925494194,0.027637500315904617,-0.0013749999925494194
1779996182661973800,8.173973876953125,-0.006324999965727329,-0.5953750014305115,-0.015949999913573265
1779996182679250700,8.191250732421874,-0.007562499959021807,-0.606374979019165,-0.011137500405311584
1779996182696528000,8.20852783203125,-0.002612499985843897,-0.271699994802475,-0.002474999986588955
1779996182713804800,8.2258046875,0.002199999988079071,0.21587499976158142,0.004812499973922968
1779996182739720400,8.251720458984375,0.007149999961256981,0.644599974155426,0.009624999947845936
1779996182756997400,8.268997314453125,0.007149999961256981,0.48454999923706055,0.01209999993443489
1779996182774274300,8.2862744140625,0.0009624999947845936,0.03863750025629997,-0.00013749999925494194
1779996182791551200,8.30355126953125,-0.006324999965727329,-0.4328500032424927,-0.012374999932944775
1779996182808828200,8.320828125,-0.007562499959021807,-0.6430875062942505,-0.01347499992698431
1779996182826105300,8.338105224609375,-0.005087499972432852,-0.47437500953674316,-0.006187499966472387
1779996182843382300,8.35538232421875,-0.00013749999925494194,-0.03712499886751175,0.002337499987334013
1779996182860659200,8.3726591796875,0.005912499967962503,0.4174500107765198,0.006049999967217445
1779996182877936000,8.38993603515625,0.005912499967962503,0.6300249695777893,0.0085249999538064
1779996182895213000,8.407213134765625,0.0034374999813735485,0.47850000858306885,0.013337500393390656
1779996182912490200,8.424490234375,-0.00013749999925494194,0.0471624992787838,-0.00013749999925494194
1779996182929767200,8.44176708984375,-0.0038499999791383743,-0.4133250117301941,-0.00989999994635582
1779996182947044000,8.459044189453126,-0.006324999965727329,-0.6258999705314636,-0.01347499992698431
1779996182964321000,8.476321044921875,-0.005087499972432852,-0.4768500030040741,-0.006187499966472387
1779996182981598000,8.493597900390625,-0.0013749999925494194,-0.052937500178813934,-0.00013749999925494194
1779996182998875100,8.510875244140625,0.004674999974668026,0.3979249894618988,0.006049999967217445
1779996183016152000,8.528152099609375,0.007149999961256981,0.6213625073432922,0.009624999947845936
1779996183033429000,8.545428955078124,0.007149999961256981,0.4833124876022339,0.010862499475479126
1779996183050706000,8.562705810546875,0.0010999999940395355,0.05816249921917915,0.0010999999940395355
1779996183076621300,8.588621337890626,-0.006324999965727329,-0.5526124835014343,-0.01347499992698431
1779996183093898200,8.605898193359375,-0.006324999965727329,-0.5880874991416931,-0.011137500405311584
1779996183111175400,8.623175537109375,-0.002612499985843897,-0.28503748774528503,-0.00494999997317791
1779996183128452400,8.640452392578124,0.0035749999806284904,0.17916250228881836,0.006049999967217445
1779996183145729300,8.657729248046875,0.005912499967962503,0.5383124947547913,0.006049999967217445
1779996183163006200,8.675006103515624,0.005912499967962503,0.5908374786376953,0.010862499475479126
1779996183180283100,8.692283203125,0.0035749999806284904,0.30016249418258667,0.006049999967217445
1779996183206198500,8.718198486328125,-0.005087499972432852,-0.3877499997615814,-0.008662499487400055
1779996183223475700,8.735475830078125,-0.007424999959766865,-0.610087513923645,-0.012374999932944775
1779996183240752600,8.752752685546875,-0.005087499972432852,-0.47561249136924744,-0.007424999959766865
1779996183266668000,8.77866796875,0.0010999999940395355,0.16321249306201935,0.007287499960511923
1779996183283945000,8.795945068359375,0.004674999974668026,0.5248374938964844,0.007287499960511923
1779996183301222000,8.813221923828126,0.005912499967962503,0.583549976348877,0.013337500393390656
1779996183318499000,8.8304990234375,0.0035749999806284904,0.30373749136924744,0.0085249999538064
1779996183335776000,8.84777587890625,-0.0013749999925494194,-0.16664999723434448,-0.00494999997317791
1779996183353053000,8.865052978515624,-0.006324999965727329,-0.5306124687194824,-0.01347499992698431
1779996183370329900,8.882329833984375,-0.008662499487400055,-0.5770875215530396,-0.00989999994635582
1779996183396245500,8.90824560546875,-0.00013749999925494194,-0.07493750005960464,0.0010999999940395355
1779996183413522400,8.9255224609375,0.004674999974668026,0.3636874854564667,0.006049999967217445
1779996183430799400,8.94279931640625,0.005912499967962503,0.5908374786376953,0.0085249999538064
1779996183456714800,8.96871484375,0.002337499987334013,0.3086875081062317,0.007287499960511923
1779996183473991700,8.98599169921875,-0.002612499985843897,-0.14822499454021454,-0.00494999997317791
1779996183491268900,9.003268798828126,-0.005087499972432852,-0.5086125135421753,-0.011137500405311584
1779996183508545500,9.020545654296875,-0.006324999965727329,-0.5685625076293945,-0.011137500405311584
1779996183525822500,9.037822509765626,-0.005087499972432852,-0.3022249937057495,-0.0037124999798834324
1779996183543099600,9.055099609375,0.0010999999940395355,0.13392500579357147,0.0035749999806284904
1779996183560376600,9.07237646484375,0.004674999974668026,0.49197500944137573,0.006049999967217445
1779996183577653500,9.089653564453124,0.007149999961256981,0.5713124871253967,0.010862499475479126
1779996183594930400,9.106930419921875,0.004674999974668026,0.31597501039505005,0.0085249999538064
1779996183612207400,9.124207275390624,-0.00013749999925494194,-0.133650004863739,-0.002474999986588955
1779996183638122800,9.150122802734375,-0.006324999965727329,-0.5758500099182129,-0.011137500405311584
1779996183655399700,9.167399658203125,-0.005087499972432852,-0.47327500581741333,-0.007424999959766865
1779996183672676900,9.1846767578125,-0.00013749999925494194,-0.09817499667406082,-0.00013749999925494194
1779996183698592300,9.21059228515625,0.005912499967962503,0.4809750020503998,0.007287499960511923
1779996183715869200,9.227869140625,0.005912499967962503,0.5627874732017517,0.010862499475479126
1779996183733146400,9.245146484375,0.002337499987334013,0.31597501039505005,0.007287499960511923
1779996183759061800,9.271061767578125,-0.0038499999791383743,-0.3278000056743622,-0.008662499487400055
1779996183776338700,9.288338623046876,-0.006324999965727329,-0.5636125206947327,-0.011137500405311584
1779996183793615600,9.30561572265625,-0.005087499972432852,-0.47079998254776,-0.008662499487400055
1779996183819531000,9.331531005859375,-0.00013749999925494194,0.11192499846220016,0.004812499973922968
1779996183836808200,9.34880810546875,0.004674999974668026,0.46997499465942383,0.006049999967217445
1779996183854085000,9.366085205078125,0.005912499967962503,0.5590749979019165,0.009624999947845936
1779996183871362000,9.383362060546874,0.005912499967962503,0.32573750615119934,0.0085249999538064
1779996183888639000,9.400638916015625,-0.00013749999925494194,-0.10546249896287918,-0.002474999986588955
1779996183905916000,9.417916015625,-0.005087499972432852,-0.47079998254776,-0.00989999994635582
1779996183923192800,9.43519287109375,-0.007424999959766865,-0.5563250184059143,-0.00989999994635582
1779996183940470000,9.452469970703126,-0.005087499972432852,-0.3180375099182129,-0.00494999997317791
1779996183957746700,9.46974658203125,0.002337499987334013,0.10092499852180481,0.004812499973922968
1779996183983662000,9.495662109375,0.008387500420212746,0.5468375086784363,0.0085249999538064
1779996184000939300,9.512939208984376,0.004674999974668026,0.4723125100135803,0.010862499475479126
1779996184018216000,9.5302158203125,-0.0013749999925494194,0.12044999748468399,-0.00013749999925494194
1779996184035492900,9.547492919921876,-0.005087499972432852,-0.2997500002384186,-0.008662499487400055
1779996184052769800,9.564769775390625,-0.005087499972432852,-0.5355625152587891,-0.011137500405311584
1779996184070047000,9.582046875,-0.0038499999791383743,-0.45980000495910645,-0.007424999959766865
1779996184087324000,9.599323974609375,-0.0013749999925494194,-0.12498749792575836,-0.00013749999925494194
1779996184104600800,9.616600830078125,0.0034374999813735485,0.2817375063896179,0.006049999967217445
1779996184121877800,9.633877685546874,0.004674999974668026,0.5249750018119812,0.0085249999538064
1779996184139155000,9.651155029296875,0.004674999974668026,0.46502500772476196,0.009624999947845936
1779996184156432000,9.668431884765624,-0.00013749999925494194,0.13392500579357147,0.002337499987334013
1779996184173708800,9.685708740234375,-0.0038499999791383743,-0.2777499854564667,-0.006187499966472387
1779996184190985700,9.70298583984375,-0.005087499972432852,-0.5183749794960022,-0.012374999932944775
1779996184208262700,9.7202626953125,-0.005087499972432852,-0.4573250114917755,-0.00494999997317791
1779996184234178300,9.74617822265625,0.0010999999940395355,0.06916250288486481,0.0035749999806284904
1779996184251455200,9.763455322265624,0.005912499967962503,0.4174500107765198,0.006049999967217445
1779996184268732200,9.780732177734375,0.005912499967962503,0.5249750018119812,0.010862499475479126
1779996184294647600,9.8066474609375,0.0010999999940395355,0.14011250436306,0.002337499987334013
1779996184311924500,9.823924560546875,-0.005087499972432852,-0.2642749845981598,-0.007424999959766865
1779996184329201400,9.841201416015625,-0.006324999965727329,-0.5062749981880188,-0.011137500405311584
1779996184346478300,9.858478271484374,-0.0038499999791383743,-0.45374998450279236,-0.008662499487400055
1779996184363755300,9.87575537109375,-0.0013749999925494194,-0.13846249878406525,-0.0013749999925494194
1779996184381032000,9.893031982421874,0.002337499987334013,0.2512125074863434,0.007287499960511923
1779996184398308900,9.910308837890625,0.005912499967962503,0.4955500066280365,0.006049999967217445
1779996184415586000,9.9275859375,0.005912499967962503,0.45278748869895935,0.009624999947845936
1779996184432863000,9.944863037109375,0.002337499987334013,0.14739999175071716,0.0035749999806284904
1779996184458778400,9.9707783203125,-0.006324999965727329,-0.4047999978065491,-0.00989999994635582
1779996184476055300,9.98805517578125,-0.006324999965727329,-0.5110874772071838,-0.00989999994635582
1779996184493332200,10.005332275390625,-0.002612499985843897,-0.31927499175071716,-0.00494999997317791
1779996184519247600,10.03124755859375,0.004674999974668026,0.24021250009536743,0.006049999967217445
1779996184536524500,10.048524658203124,0.004674999974668026,0.4797374904155731,0.0085249999538064
1779996184553801500,10.065801513671875,0.004674999974668026,0.4442625045776367,0.0085249999538064
1779996184571078400,10.083078369140624,0.0009624999947845936,0.14863750338554382,0.002337499987334013
1779996184588355300,10.100355224609375,-0.002612499985843897,-0.23498749732971191,-0.0037124999798834324
1779996184605632300,10.11763232421875,-0.005087499972432852,-0.4768500030040741,-0.012374999932944775
1779996184622909200,10.1349091796875,-0.005087499972432852,-0.44151249527931213,-0.006187499966472387
1779996184648824600,10.160824462890625,-0.0002749999985098839,0.03629999980330467,0.0010999999940395355
1779996184666101800,10.178101806640624,0.0034374999813735485,0.3722124993801117,0.007287499960511923
1779996184683378700,10.195378662109375,0.005912499967962503,0.49431249499320984,0.0085249999538064
1779996184709294000,10.221294189453126,0.002199999988079071,0.16087499260902405,0.004812499973922968
1779996184726571000,10.238571044921875,-0.0038499999791383743,-0.2227499932050705,-0.006187499966472387
1779996184743848000,10.255847900390625,-0.005087499972432852,-0.4683249890804291,-0.011137500405311584
1779996184761124900,10.273124755859374,-0.005087499972432852,-0.43779999017715454,-0.008662499487400055
1779996184778401800,10.29040185546875,-0.0002749999985098839,-0.15441249310970306,-0.0013749999925494194
1779996184795678700,10.3076787109375,0.002199999988079071,0.21463750302791595,0.004812499973922968
1779996184812955600,10.32495556640625,0.004674999974668026,0.45526251196861267,0.007287499960511923
1779996184830232600,10.342232666015626,0.004674999974668026,0.43697500228881836,0.009624999947845936
1779996184847509500,10.359509521484375,0.0009624999947845936,0.1621125042438507,0.002337499987334013
1779996184864786400,10.376786376953126,-0.002612499985843897,-0.2092749923467636,-0.00494999997317791
1779996184882063400,10.3940634765625,-0.005087499972432852,-0.4525125026702881,-0.011137500405311584
1779996184899340300,10.41134033203125,-0.005087499972432852,-0.4328500032424927,-0.006187499966472387
1779996184916617200,10.4286171875,-0.002612499985843897,-0.1629374921321869,-0.0013749999925494194
1779996184933894100,10.44589404296875,0.002199999988079071,0.1999250054359436,0.0035749999806284904
1779996184951171000,10.463171142578124,0.005912499967962503,0.44673749804496765,0.007287499960511923
1779996184968448000,10.480447998046875,0.007149999961256981,0.4345000088214874,0.0085249999538064
1779996184994363600,10.50636376953125,-0.0002749999985098839,-0.018699999898672104,-0.0013749999925494194
1779996185011640300,10.523640380859375,-0.005087499972432852,-0.3497999906539917,-0.008662499487400055
1779996185028917200,10.540917236328125,-0.007562499959021807,-0.47079998254776,-0.006187499966472387
1779996185046194400,10.5581943359375,-0.0038499999791383743,-0.31927499175071716,-0.007424999959766865
1779996185063471000,10.57547119140625,0.0009624999947845936,0.016637500375509262,0.0035749999806284904
1779996185080748000,10.592748046875,0.004674999974668026,0.33797499537467957,0.004812499973922968
1779996185106663700,10.61866357421875,0.004674999974668026,0.42473748326301575,0.01209999993443489
1779996185123940400,10.6359404296875,0.0009624999947845936,0.16940000653266907,-0.0013749999925494194
1779996185141217300,10.65321728515625,-0.002612499985843897,-0.1849374920129776,-0.002474999986588955
1779996185158494200,10.670494140625,-0.005087499972432852,-0.426800012588501,-0.011137500405311584
1779996185175771400,10.687771484375,-0.005087499972432852,-0.4195125102996826,-0.007424999959766865
1779996185193048300,10.70504833984375,-0.0013749999925494194,-0.17022499442100525,-0.0013749999925494194
1779996185218963700,10.730963623046875,0.0034374999813735485,0.31968748569488525,0.006049999967217445
1779996185236240600,10.74824072265625,0.004674999974668026,0.4515500068664551,0.009624999947845936
1779996185253517600,10.765517578125,0.0034374999813735485,0.31968748569488525,0.004812499973922968
1779996185279433000,10.791432861328126,-0.00013749999925494194,-0.17270000278949738,-0.00494999997317791
1779996185296710000,10.8087099609375,-0.005087499972432852,-0.4133250117301941,-0.007424999959766865
1779996185313986800,10.82598681640625,-0.006324999965727329,-0.4170374870300293,-0.006187499966472387
1779996185339902200,10.851902099609376,-0.00013749999925494194,-0.007699999958276749,-0.00013749999925494194
1779996185357179100,10.86917919921875,0.0034374999813735485,0.30621248483657837,0.007287499960511923
1779996185374456000,10.8864560546875,0.005912499967962503,0.44302499294281006,0.007287499960511923
1779996185391732700,10.903732666015625,0.004674999974668026,0.3209249973297119,0.0085249999538064
1779996185409010000,10.921010009765626,0.0009624999947845936,0.010587500408291817,-0.0013749999925494194
1779996185426286800,10.938286865234375,-0.005087499972432852,-0.30346250534057617,-0.007424999959766865
1779996185443563800,10.955563720703125,-0.006324999965727329,-0.43779999017715454,-0.00989999994635582
1779996185460840700,10.9728408203125,-0.0038499999791383743,-0.31679999828338623,-0.0037124999798834324
1779996185478117600,10.99011767578125,0.0009624999947845936,-0.016362499445676804,0.0010999999940395355
1779996185495394600,11.00739453125,0.004674999974668026,0.2927374839782715,0.0035749999806284904
1779996185512671200,11.024671142578125,0.005912499967962503,0.43326249718666077,0.009624999947845936
1779996185529948200,11.0419482421875,0.0034374999813735485,0.31968748569488525,0.007287499960511923
1779996185547225000,11.05922509765625,-0.00013749999925494194,0.016637500375509262,-0.00013749999925494194
1779996185564501800,11.076501708984376,-0.0038499999791383743,-0.2924624979496002,-0.007424999959766865
1779996185581778700,11.09377880859375,-0.005087499972432852,-0.426800012588501,-0.007424999959766865
1779996185599056000,11.111055908203125,-0.0038499999791383743,-0.31556248664855957,-0.006187499966472387
1779996185616332800,11.128332763671875,0.0009624999947845936,-0.02488750033080578,0.0010999999940395355
1779996185633609700,11.145609619140625,0.0034374999813735485,0.2829749882221222,0.007287499960511923
1779996185650886700,11.16288671875,0.005912499967962503,0.42473748326301575,0.007287499960511923
1779996185668163600,11.18016357421875,0.004674999974668026,0.31968748569488525,0.0085249999538064
1779996185694078700,11.20607861328125,-0.002612499985843897,-0.13846249878406525,-0.00494999997317791
1779996185711356000,11.22335595703125,-0.005087499972432852,-0.37798750400543213,-0.008662499487400055
1779996185728632800,11.2406328125,-0.0038499999791383743,-0.3950375020503998,-0.006187499966472387
1779996185754548000,11.2665478515625,-0.0013749999925494194,-0.02736249938607216,0.0010999999940395355
1779996185771825000,11.283824951171875,0.0009624999947845936,0.26963749527931213,0.0035749999806284904
1779996185789101800,11.301101806640625,0.004674999974668026,0.41126251220703125,0.0085249999538064
1779996185806378800,11.318378662109374,0.0034374999813735485,0.318450003862381,0.006049999967217445
1779996185823655700,11.33565576171875,-0.00013749999925494194,0.03616249933838844,-0.00013749999925494194
1779996185840932600,11.3529326171875,-0.0038499999791383743,-0.26922500133514404,-0.006187499966472387
1779996185858209500,11.37020947265625,-0.005087499972432852,-0.41084998846054077,-0.008662499487400055
1779996185884125000,11.396125,-0.00013749999925494194,-0.1909874975681305,-0.0013749999925494194
1779996185901401900,11.41340185546875,0.0034374999813735485,0.11811249703168869,0.0035749999806284904
1779996185918678500,11.430678466796875,0.004674999974668026,0.3562625050544739,0.007287499960511923
1779996185935955500,11.44795556640625,0.002199999988079071,0.38692501187324524,0.007287499960511923
1779996185953232400,11.465232421875,0.0009624999947845936,0.19263750314712524,0.0035749999806284904
1779996185970509300,11.48250927734375,-0.0013749999925494194,-0.11275000125169754,-0.002474999986588955
1779996185987786200,11.4997861328125,-0.002612499985843897,-0.35103750228881836,-0.00989999994635582
1779996186005063200,11.517063232421876,-0.002612499985843897,-0.3852750062942505,-0.006187499966472387
1779996186022340000,11.534340087890625,-0.002612499985843897,-0.19593749940395355,-0.0037124999798834324
1779996186039617000,11.551616943359376,0.0009624999947845936,0.10711249709129333,0.0035749999806284904
1779996186056894000,11.56889404296875,0.004674999974668026,0.34773749113082886,0.006049999967217445
1779996186074171000,11.5861708984375,0.0034374999813735485,0.3856875002384186,0.007287499960511923
1779996186091447800,11.60344775390625,0.002199999988079071,0.19744999706745148,0.0035749999806284904
1779996186108724700,11.620724853515625,-0.002612499985843897,-0.10793749988079071,-0.0037124999798834324
1779996186126001700,11.638001708984374,-0.0038499999791383743,-0.34498751163482666,-0.007424999959766865
1779996186143278600,11.655278564453125,-0.005087499972432852,-0.38032498955726624,-0.007424999959766865
1779996186160555500,11.672555419921874,-0.002612499985843897,-0.19593749940395355,-0.0013749999925494194
1779996186177832200,11.689832275390625,0.0009624999947845936,0.10092499852180481,0.0010999999940395355
1779996186195109000,11.707109130859376,0.004674999974668026,0.33797499537467957,0.007287499960511923
1779996186212386000,11.724385986328125,0.005912499967962503,0.37950000166893005,0.006049999967217445
1779996186229662700,11.741662841796876,0.002199999988079071,0.196212500333786,0.004812499973922968
1779996186246939600,11.758939697265625,-0.002612499985843897,-0.10064999759197235,-0.0037124999798834324
1779996186272855300,11.784855224609375,-0.0038499999791383743,-0.38032498955726624,-0.007424999959766865
1779996186290132200,11.80213232421875,-0.0013749999925494194,-0.3022249937057495,-0.00494999997317791
1779996186307409200,11.8194091796875,0.0009624999947845936,-0.0541750006377697,0.0010999999940395355
1779996186324685800,11.836685791015626,0.002199999988079071,0.22068749368190765,0.0035749999806284904
1779996186341962800,11.853962646484375,0.002199999988079071,0.3684999942779541,0.004812499973922968
1779996186359239700,11.87123974609375,0.002199999988079071,0.30744999647140503,0.007287499960511923
1779996186376516600,11.8885166015625,0.0009624999947845936,0.06558749824762344,-0.00013749999925494194
1779996186393793500,11.90579345703125,-0.0013749999925494194,-0.21422499418258667,-0.0037124999798834324
1779996186411070200,11.9230703125,-0.0038499999791383743,-0.368087500333786,-0.008662499487400055
1779996186428347100,11.94034716796875,-0.002612499985843897,-0.30703750252723694,-0.006187499966472387
1779996186445624000,11.9576240234375,-0.0013749999925494194,-0.06888750195503235,-0.00013749999925494194
1779996186462901000,11.97490087890625,0.002199999988079071,0.2096875011920929,0.0035749999806284904
1779996186488816000,12.000816162109375,0.004674999974668026,0.36492499709129333,0.0085249999538064
1779996186506093000,12.018093017578124,0.0034374999813735485,0.20116250216960907,0.004812499973922968
1779996186523370000,12.035369873046875,-0.002612499985843897,-0.07864999771118164,-0.0013749999925494194
1779996186540647000,12.05264697265625,-0.0038499999791383743,-0.3119874894618988,-0.006187499966472387
1779996186557923800,12.069923828125,-0.0038499999791383743,-0.359562486410141,-0.006187499966472387
1779996186575200800,12.08720068359375,-0.0015124999918043613,-0.19827499985694885,-0.002474999986588955
1779996186592477700,12.104477783203125,0.0009624999947845936,0.07411249727010727,0.0035749999806284904
1779996186618393000,12.13039306640625,0.002199999988079071,0.3539249897003174,0.007287499960511923
1779996186635670000,12.147669921875,0.002199999988079071,0.30016249418258667,0.0035749999806284904
1779996186652946700,12.16494677734375,0.0009624999947845936,0.0765874981880188,0.002337499987334013
1779996186678862000,12.190862060546875,-0.002612499985843897,-0.29727500677108765,-0.008662499487400055
1779996186696138800,12.208138671875,-0.005087499972432852,-0.35708749294281006,-0.006187499966472387
1779996186713415700,12.225415771484375,-0.002612499985843897,-0.2069374918937683,-0.00494999997317791
1779996186730692600,12.242692626953126,0.002199999988079071,0.06311249732971191,0.0035749999806284904
1779996186756608000,12.26860791015625,0.004674999974668026,0.35144999623298645,0.006049999967217445
1779996186773884700,12.285884765625,0.0034374999813735485,0.30373749136924744,0.006049999967217445
1779996186791161600,12.30316162109375,-0.0002749999985098839,0.07906249910593033,0.0010999999940395355
1779996186808438500,12.3204384765625,-0.002612499985843897,-0.19222499430179596,-0.006187499966472387
1779996186825715500,12.337715576171876,-0.0038499999791383743,-0.34732499718666077,-0.00494999997317791
1779996186842992400,12.354992431640625,-0.002612499985843897,-0.2997500002384186,-0.006187499966472387
1779996186868907800,12.38090771484375,0.0009624999947845936,0.05829999968409538,0.0035749999806284904
1779996186886184700,12.398184814453124,0.0034374999813735485,0.28421249985694885,0.004812499973922968
1779996186903461400,12.41546142578125,0.004674999974668026,0.3489750027656555,0.007287499960511923
1779996186929376800,12.441376708984375,0.0009624999947845936,0.08139999955892563,0.0010999999940395355
1779996186946653700,12.45865380859375,-0.002612499985843897,-0.18369999527931213,-0.00494999997317791
1779996186963930400,12.475930419921875,-0.005087499972432852,-0.33880001306533813,-0.007424999959766865
1779996186989845800,12.501845703125,-0.0015124999918043613,-0.20198750495910645,-0.0037124999798834324
1779996187007122700,12.519122802734374,0.0009624999947845936,0.05335000157356262,0.002337499987334013
1779996187024399600,12.536399658203125,0.0034374999813735485,0.27816250920295715,0.004812499973922968
1779996187050315000,12.56231494140625,0.0034374999813735485,0.2964499890804291,0.006049999967217445
1779996187067592000,12.579592041015625,0.0009624999947845936,0.08511249721050262,0.002337499987334013
1779996187093507000,12.605507080078125,-0.002612499985843897,-0.2765125036239624,-0.00494999997317791
1779996187110784300,12.6227841796875,-0.0038499999791383743,-0.3400374948978424,-0.007424999959766865
1779996187128061000,12.64006103515625,-0.0013749999925494194,-0.20569999516010284,-0.0037124999798834324
1779996187145337900,12.657337890625,0.0009624999947845936,0.04606249928474426,0.0010999999940395355
1779996187162614800,12.67461474609375,0.0034374999813735485,0.26840001344680786,0.006049999967217445
1779996187179891500,12.691891357421875,0.0034374999813735485,0.33550000190734863,0.006049999967217445
1779996187197168400,12.70916845703125,0.002199999988079071,0.20611250400543213,0.004812499973922968
1779996187214445300,12.7264453125,-0.00013749999925494194,-0.043175000697374344,-0.002474999986588955
1779996187231722200,12.74372216796875,-0.002612499985843897,-0.26551249623298645,-0.007424999959766865
1779996187248999000,12.7609990234375,-0.002612499985843897,-0.3315125107765198,-0.006187499966472387
1779996187266275800,12.77827587890625,-0.002612499985843897,-0.20446249842643738,-0.0037124999798834324
1779996187283552800,12.795552734375,-0.00013749999925494194,0.03863750025629997,0.002337499987334013
1779996187300829700,12.81282958984375,0.0034374999813735485,0.259737491607666,0.002337499987334013
1779996187326745000,12.8387451171875,0.004674999974668026,0.29163751006126404,0.0085249999538064
1779996187344022000,12.85602197265625,0.002199999988079071,0.09363749623298645,0.0010999999940395355
1779996187361299000,12.873298828125,-0.0013749999925494194,-0.15798750519752502,-0.0013749999925494194
1779996187378575600,12.89057568359375,-0.0038499999791383743,-0.31679999828338623,-0.008662499487400055
1779996187395852300,12.907852294921875,-0.0038499999791383743,-0.28751251101493835,-0.0037124999798834324
1779996187413129200,12.925129150390624,0.0009624999947845936,-0.09322500228881836,-0.0013749999925494194
1779996187439044600,12.951044677734375,0.0034374999813735485,0.2512125074863434,0.006049999967217445
1779996187456321300,12.9683212890625,0.002199999988079071,0.32339999079704285,0.004812499973922968
1779996187473598200,12.98559814453125,0.002199999988079071,0.2096875011920929,0.004812499973922968
1779996187499513600,13.011513671875,-0.0013749999925494194,-0.15193749964237213,-0.0037124999798834324
1779996187516790500,13.02879052734375,-0.0038499999791383743,-0.3082749843597412,-0.007424999959766865
1779996187534067500,13.0460673828125,-0.002612499985843897,-0.28503748774528503,-0.006187499966472387
1779996187551344000,13.06334423828125,-0.00013749999925494194,-0.09693749994039536,-0.00013749999925494194
1779996187568621000,13.08062109375,0.002199999988079071,0.14492499828338623,0.0035749999806284904
1779996187585898000,13.09789794921875,0.0034374999813735485,0.30140000581741333,0.007287499960511923
1779996187603174700,13.115174560546874,0.0034374999813735485,0.28421249985694885,0.004812499973922968
1779996187620451600,13.13245166015625,0.0009624999947845936,0.10216250270605087,0.002337499987334013
1779996187637728500,13.149728515625,-0.0013749999925494194,-0.13846249878406525,-0.0037124999798834324
1779996187655005200,13.167005126953125,-0.0038499999791383743,-0.29727500677108765,-0.006187499966472387
1779996187672282000,13.1842822265625,-0.002612499985843897,-0.28146249055862427,-0.006187499966472387
1779996187689559000,13.20155908203125,-0.00013749999925494194,-0.10298749804496765,-0.0013749999925494194
1779996187706836000,13.2188359375,0.0009624999947845936,0.13392500579357147,0.004812499973922968
1779996187724113000,13.23611279296875,0.0034374999813735485,0.2927374839782715,0.006049999967217445
1779996187741389800,13.253389892578125,0.0034374999813735485,0.2793999910354614,0.004812499973922968
1779996187758666500,13.27066650390625,-0.00013749999925494194,0.10339999943971634,0.0035749999806284904
1779996187784582000,13.296581787109375,-0.0013749999925494194,-0.22769999504089355,-0.00494999997317791
1779996187801858800,13.31385888671875,-0.0038499999791383743,-0.3057999908924103,-0.00494999997317791
1779996187819135700,13.3311357421875,-0.0013749999925494194,-0.2069374918937683,-0.0037124999798834324
1779996187836412400,13.348412353515625,0.0009624999947845936,0.009349999949336052,-0.00013749999925494194
1779996187853689300,13.365689453125,0.0009624999947845936,0.21821250021457672,0.004812499973922968
1779996187870966300,13.38296630859375,0.0034374999813735485,0.3049750030040741,0.004812499973922968
1779996187888243200,13.4002431640625,0.002199999988079071,0.2134000062942505,0.004812499973922968
1779996187905520000,13.41752001953125,-0.00013749999925494194,-0.0028874999843537807,-0.002474999986588955
1779996187922797000,13.434797119140624,-0.0013749999925494194,-0.2167000025510788,-0.00494999997317791
1779996187948712200,13.460712158203124,-0.0038499999791383743,-0.2777499854564667,-0.006187499966472387
1779996187965989000,13.477989013671875,-0.0013749999925494194,-0.1116499975323677,-0.0013749999925494194
1779996187983266000,13.49526611328125,0.0009624999947845936,0.11811249703168869,0.0010999999940395355
1779996188009181200,13.52118115234375,0.004674999974668026,0.30140000581741333,0.0085249999538064
1779996188026457900,13.538457763671875,0.002199999988079071,0.2096875011920929,0.0035749999806284904
1779996188043734800,13.55573486328125,-0.0013749999925494194,-0.005362499970942736,0.0010999999940395355
1779996188069650200,13.581650146484375,-0.0038499999791383743,-0.27527499198913574,-0.006187499966472387
1779996188086927000,13.598927001953125,-0.0038499999791383743,-0.2679874897003174,-0.002474999986588955
1779996188104203800,13.616203857421874,-0.0013749999925494194,-0.10917499661445618,-0.002474999986588955
1779996188121480700,13.633480712890625,0.0009624999947845936,0.11082500219345093,0.0035749999806284904
1779996188138757600,13.650757568359374,0.0034374999813735485,0.26592499017715454,0.0035749999806284904
1779996188156034600,13.66803466796875,0.0034374999813735485,0.2671625018119812,0.004812499973922968
1779996188173311200,13.685311279296876,-0.0002749999985098839,0.11316250264644623,0.0035749999806284904
1779996188190588200,13.702588134765625,-0.0013749999925494194,-0.10670000314712524,-0.0037124999798834324
1779996188207865000,13.719864990234376,-0.002612499985843897,-0.260699987411499,-0.002474999986588955
1779996188225142000,13.73714208984375,-0.0013749999925494194,-0.26551249623298645,-0.00494999997317791
1779996188242419000,13.7544189453125,-0.0002749999985098839,-0.11646249890327454,-0.00013749999925494194
1779996188268334000,13.780333984375,0.0034374999813735485,0.19016249477863312,0.002337499987334013
1779996188285611000,13.797611083984375,0.002199999988079071,0.2806375026702881,0.004812499973922968
1779996188302887700,13.8148876953125,0.002199999988079071,0.2096875011920929,0.0035749999806284904
1779996188328803000,13.840802978515624,-0.0013749999925494194,-0.09322500228881836,-0.0037124999798834324
1779996188346079700,13.858079833984375,-0.0038499999791383743,-0.2508000135421753,-0.00494999997317791
1779996188363356700,13.875356689453126,-0.0013749999925494194,-0.26179999113082886,-0.006187499966472387
1779996188389272000,13.90127197265625,-0.0002749999985098839,-0.01746249943971634,0.0010999999940395355
1779996188406549000,13.918549072265625,0.002199999988079071,0.18039999902248383,0.0035749999806284904
1779996188423825700,13.93582568359375,0.002199999988079071,0.2732124924659729,0.006049999967217445
1779996188441102300,13.953102294921875,0.0034374999813735485,0.20721249282360077,0.004812499973922968
1779996188458379300,13.970379150390626,0.0009624999947845936,0.020349999889731407,0.0010999999940395355
1779996188475656200,13.98765625,-0.002612499985843897,-0.1812250018119812,-0.0037124999798834324
1779996188492932900,14.004932861328125,-0.0038499999791383743,-0.27527499198913574,-0.006187499966472387
1779996188510209800,14.022209716796874,-0.002612499985843897,-0.20803749561309814,-0.0037124999798834324
1779996188527486700,14.03948681640625,-0.0002749999985098839,-0.018699999898672104,-0.0013749999925494194
1779996188544763600,14.056763671875,0.0034374999813735485,0.18039999902248383,0.0035749999806284904
1779996188562040300,14.074040283203125,0.0034374999813735485,0.2732124924659729,0.006049999967217445
1779996188579317200,14.091317138671876,0.002199999988079071,0.20721249282360077,0.0035749999806284904
1779996188596594200,14.10859423828125,-0.0015124999918043613,0.020349999889731407,-0.00013749999925494194
1779996188613871000,14.12587109375,-0.002612499985843897,-0.1775124967098236,-0.00494999997317791
1779996188639786200,14.1517861328125,-0.002612499985843897,-0.2545124888420105,-0.002474999986588955
1779996188657063200,14.169063232421875,-0.0002749999985098839,-0.1214125007390976,-0.002474999986588955
1779996188674340000,14.186340087890626,0.002199999988079071,0.08016250282526016,0.0010999999940395355
1779996188691617000,14.203616943359375,0.002199999988079071,0.23539999127388,0.004812499973922968
1779996188708893700,14.220893798828126,0.002199999988079071,0.2536875009536743,0.004812499973922968
1779996188726170600,14.238170654296875,0.002199999988079071,0.12540000677108765,0.002337499987334013
1779996188743447600,14.255447509765625,-0.0002749999985098839,-0.07493750005960464,-0.002474999986588955
1779996188760724500,14.272724365234374,-0.002612499985843897,-0.23127499222755432,-0.00494999997317791
1779996188778001200,14.290001220703125,-0.002612499985843897,-0.25203749537467957,-0.00494999997317791
1779996188795278000,14.307278076171874,-0.0015124999918043613,-0.1237500011920929,-0.002474999986588955
1779996188812554800,14.3245546875,0.0009624999947845936,0.0728750005364418,0.002337499987334013
1779996188829831700,14.341831787109374,0.004674999974668026,0.22687499225139618,0.004812499973922968
1779996188847108400,14.3591083984375,0.0034374999813735485,0.24997499585151672,0.004812499973922968
1779996188864385300,14.37638525390625,-0.0002749999985098839,0.12292499840259552,0.0035749999806284904
1779996188881662200,14.393662109375,-0.0015124999918043613,-0.07246249914169312,-0.0013749999925494194
1779996188898939100,14.410939208984376,-0.0015124999918043613,-0.22522500157356262,-0.0037124999798834324
1779996188924854300,14.436854248046876,-0.002612499985843897,-0.20074999332427979,-0.006187499966472387
1779996188942131200,14.454131103515625,-0.0002749999985098839,-0.03217500075697899,0.0010999999940395355
1779996188959407900,14.471407958984376,0.002199999988079071,0.15468749403953552,-0.00013749999925494194
1779996188976684800,14.488684814453125,0.0034374999813735485,0.25244998931884766,0.004812499973922968
1779996188993961700,14.505961669921875,0.002199999988079071,0.20239999890327454,0.002337499987334013
1779996189011238400,14.52323828125,-0.0002749999985098839,0.03382499888539314,0.0010999999940395355
1779996189028515300,14.540515380859375,-0.002612499985843897,-0.15193749964237213,-0.0037124999798834324
1779996189045792000,14.5577919921875,-0.002612499985843897,-0.2484624981880188,-0.00494999997317791
1779996189063069000,14.57506884765625,-0.0015124999918043613,-0.20074999332427979,-0.0013749999925494194
1779996189088984300,14.600984375,0.0009624999947845936,0.05582499876618385,0.0010999999940395355
1779996189106261200,14.61826123046875,0.0009624999947845936,0.2096875011920929,0.004812499973922968
1779996189123538000,14.635537841796875,0.002199999988079071,0.24021250009536743,0.0035749999806284904
1779996189149453300,14.661453369140625,0.0009624999947845936,0.04235000163316727,0.0010999999940395355
1779996189166730000,14.67872998046875,-0.0002749999985098839,-0.1434125006198883,-0.0037124999798834324
1779996189184007000,14.6960068359375,-0.0038499999791383743,-0.24351249635219574,-0.00494999997317791
1779996189201283800,14.713283935546874,-0.0038499999791383743,-0.20198750495910645,-0.0037124999798834324
1779996189218560800,14.730560791015625,-0.0002749999985098839,-0.04441250115633011,-0.00013749999925494194
1779996189244476200,14.75647607421875,0.002199999988079071,0.20611250400543213,0.0035749999806284904
1779996189261752800,14.7737529296875,0.0034374999813735485,0.24021250009536743,0.006049999967217445
1779996189279029500,14.791029541015625,0.002199999988079071,0.13516250252723694,0.0010999999940395355
1779996189296306400,14.808306396484374,-0.0002749999985098839,-0.050462499260902405,-0.0013749999925494194
1779996189313583000,14.8255830078125,-0.0015124999918043613,-0.20446249842643738,-0.00494999997317791
1779996189330860000,14.842860107421876,-0.002749999985098839,-0.2387000024318695,-0.002474999986588955
1779996189348137000,14.860136962890625,-0.0015124999918043613,-0.13241249322891235,-0.00013749999925494194
1779996189365413600,14.87741357421875,0.0009624999947845936,0.04839999973773956,-0.00013749999925494194
1779996189382690600,14.894690673828125,0.002199999988079071,0.1999250054359436,0.0035749999806284904
1779996189399967500,14.911967529296875,0.002199999988079071,0.23539999127388,0.0035749999806284904
1779996189417244200,14.929244140625,-0.0002749999985098839,0.13392500579357147,0.0035749999806284904
1779996189434521000,14.94652099609375,-0.0015124999918043613,-0.04441250115633011,-0.002474999986588955
1779996189451797800,14.9637978515625,-0.002749999985098839,-0.19470000267028809,-0.002474999986588955
1779996189469074700,14.98107470703125,-0.002749999985098839,-0.23127499222755432,-0.0037124999798834324
1779996189486351600,14.9983515625,-0.0015124999918043613,-0.13241249322891235,-0.0037124999798834324
1779996189512266800,15.024266845703124,0.002199999988079071,0.1266375035047531,0.0035749999806284904
1779996189529543400,15.04154345703125,0.002199999988079071,0.22687499225139618,0.004812499973922968
1779996189546820600,15.058820556640624,0.002199999988079071,0.19634999334812164,0.0035749999806284904
1779996189564097300,15.07609716796875,0.0009624999947845936,0.05211250111460686,0.0010999999940395355
1779996189590012400,15.102012451171875,-0.0013749999925494194,-0.1909874975681305,-0.0037124999798834324
1779996189607289300,15.119289306640624,-0.002612499985843897,-0.23127499222755432,-0.0037124999798834324
1779996189624566300,15.136566162109375,-0.00013749999925494194,-0.13846249878406525,-0.002474999986588955
1779996189641843200,15.15384326171875,0.002199999988079071,0.03863750025629997,-0.00013749999925494194
1779996189659119900,15.171119873046875,0.002199999988079071,0.18892499804496765,0.006049999967217445
1779996189676396800,15.188396728515626,0.0034374999813735485,0.22921249270439148,0.002337499987334013
1779996189693673700,15.205673828125,0.002199999988079071,0.1363999992609024,0.0035749999806284904
1779996189710950700,15.22295068359375,-0.00013749999925494194,-0.03464999794960022,-0.002474999986588955
1779996189736865500,15.248865478515626,-0.0038499999791383743,-0.22151249647140503,-0.0037124999798834324
1779996189754142500,15.266142578125,-0.0013749999925494194,-0.19470000267028809,-0.006187499966472387
1779996189771419100,15.283419189453125,0.0009624999947845936,-0.05169999971985817,0.002337499987334013
1779996189788696000,15.300696044921875,0.002199999988079071,0.11687500029802322,0.0010999999940395355
1779996189814611500,15.326611572265625,0.002199999988079071,0.21821250021457672,0.007287499960511923
1779996189831888100,15.34388818359375,-0.00013749999925494194,0.12911249697208405,0.0010999999940395355
1779996189849165000,15.3611650390625,-0.00013749999925494194,-0.03217500075697899,-0.00013749999925494194
1779996189866442000,15.37844189453125,-0.00013749999925494194,-0.1751749962568283,-0.0037124999798834324
1779996189883718400,15.395718505859374,-0.002612499985843897,-0.21546250581741333,-0.0037124999798834324
1779996189900995300,15.412995361328125,-0.002612499985843897,-0.1311749964952469,-0.0013749999925494194
1779996189926910700,15.43891064453125,-0.00013749999925494194,0.11192499846220016,0.0035749999806284904
1779996189944187400,15.4561875,0.0034374999813735485,0.21463750302791595,0.006049999967217445
1779996189961464300,15.47346435546875,0.004674999974668026,0.18892499804496765,0.0035749999806284904
1779996189987379700,15.499379638671876,-0.0013749999925494194,-0.038224998861551285,-0.0013749999925494194
1779996190004656400,15.516656494140625,-0.0038499999791383743,-0.17998750507831573,-0.00494999997317791
1779996190021933300,15.533933349609375,-0.002612499985843897,-0.2129874974489212,-0.002474999986588955
1779996190039210000,15.5512099609375,0.0009624999947845936,-0.12498749792575836,-0.002474999986588955
1779996190056487000,15.56848681640625,0.002199999988079071,0.03629999980330467,0.0010999999940395355
1779996190073763800,15.585763916015624,0.002199999988079071,0.171875,0.0035749999806284904
1779996190091040800,15.603040771484375,0.0009624999947845936,0.20845000445842743,0.004812499973922968
1779996190116956000,15.628955810546875,-0.0002749999985098839,0.05087500065565109,0.0010999999940395355
1779996190134232800,15.64623291015625,-0.0002749999985098839,-0.10917499661445618,-0.00013749999925494194
1779996190151509500,15.663509521484375,-0.002612499985843897,-0.20446249842643738,-0.00494999997317791
1779996190168786400,15.680786376953124,-0.0038499999791383743,-0.1812250018119812,-0.00013749999925494194
1779996190186063400,15.6980634765625,-0.0015124999918043613,-0.0541750006377697,-0.0013749999925494194
1779996190203339800,15.71533984375,0.0009624999947845936,0.1046374961733818,0.004812499973922968
1779996190229255200,15.741255126953124,0.002199999988079071,0.20363749563694,0.0035749999806284904
1779996190246532000,15.758531982421875,0.0009624999947845936,0.12416250258684158,0.0035749999806284904
1779996190263808800,15.775808837890626,-0.0002749999985098839,-0.030937500298023224,-0.0013749999925494194
1779996190289724200,15.80172412109375,-0.002612499985843897,-0.19593749940395355,-0.00494999997317791
1779996190307000800,15.819000732421875,-0.002612499985843897,-0.1714625060558319,-0.0013749999925494194
1779996190324277500,15.836277587890624,-0.0002749999985098839,-0.048124998807907104,-0.002474999986588955
1779996190341554400,15.853554443359375,0.002199999988079071,0.1046374961733818,0.002337499987334013
1779996190358831000,15.8708310546875,0.0034374999813735485,0.19511249661445618,0.0035749999806284904
1779996190376108000,15.88810791015625,0.0034374999813735485,0.17311249673366547,0.0035749999806284904
1779996190393385000,15.905385009765626,0.0009624999947845936,0.04729999974370003,-0.00013749999925494194
1779996190410662000,15.922661865234375,-0.0015124999918043613,-0.10422500222921371,-0.0037124999798834324
1779996190427938600,15.9399384765625,-0.002612499985843897,-0.1909874975681305,-0.006187499966472387
1779996190445215200,15.95721533203125,-0.002612499985843897,-0.1652749925851822,-0.0037124999798834324
1779996190462492200,15.9744921875,-0.0002749999985098839,-0.040699999779462814,-0.00013749999925494194
1779996190488407600,16.000407470703124,0.0009624999947845936,0.15716250240802765,0.0035749999806284904
1779996190505684200,16.017684326171874,0.002199999988079071,0.19016249477863312,0.004812499973922968
1779996190522961000,16.0349609375,-0.0002749999985098839,0.11192499846220016,0.002337499987334013
1779996190548876300,16.060876220703125,-0.0015124999918043613,-0.10175000131130219,-0.002474999986588955
1779996190566153000,16.078153076171876,-0.0013749999925494194,-0.1909874975681305,-0.002474999986588955
1779996190583430000,16.095429931640624,-0.0013749999925494194,-0.16898749768733978,-0.00013749999925494194
1779996190609345300,16.12134521484375,-0.0002749999985098839,0.024062499403953552,0.002337499987334013
1779996190626622000,16.1386220703125,0.0009624999947845936,0.15111249685287476,0.0035749999806284904
1779996190643899000,16.15589892578125,0.002199999988079071,0.18892499804496765,0.0035749999806284904
1779996190669814300,16.181814208984374,0.0009624999947845936,0.05087500065565109,0.002337499987334013
1779996190687091000,16.199091064453125,-0.0002749999985098839,-0.0919874981045723,-0.002474999986588955
1779996190704367600,16.21636767578125,-0.0013749999925494194,-0.18369999527931213,-0.002474999986588955
1779996190721644500,16.23364453125,-0.0013749999925494194,-0.16775000095367432,-0.006187499966472387
1779996190738921200,16.250921142578125,0.0009624999947845936,-0.050462499260902405,0.0010999999940395355
1779996190756198100,16.2681982421875,0.002199999988079071,0.09487500041723251,0.0010999999940395355
1779996190773474800,16.285474853515623,0.002199999988079071,0.18287499248981476,0.0035749999806284904
1779996190790751700,16.302751708984374,0.002199999988079071,0.164450004696846,0.0010999999940395355
1779996190816667000,16.3286669921875,0.0009624999947845936,-0.02241249941289425,0.0010999999940395355
1779996190833943800,16.34594384765625,-0.002612499985843897,-0.1494625061750412,-0.00494999997317791
1779996190851220700,16.363220703125,-0.002612499985843897,-0.18975000083446503,-0.0037124999798834324
1779996190868497700,16.38049755859375,-0.0013749999925494194,-0.11769999563694,-0.0013749999925494194
1779996190885774300,16.3977744140625,0.0009624999947845936,0.024062499403953552,0.0010999999940395355
1779996190903051000,16.415051025390625,0.002199999988079071,0.14739999175071716,0.0035749999806284904
1779996190920328000,16.432327880859376,-0.0002749999985098839,0.18645000457763672,0.0035749999806284904
1779996190937604900,16.44960498046875,-0.0002749999985098839,0.11687500029802322,0.0010999999940395355
1779996190963519700,16.475519775390627,-0.0013749999925494194,-0.0859375,-0.002474999986588955
1779996190980796700,16.492796630859374,-0.002612499985843897,-0.17627499997615814,-0.0013749999925494194
1779996190998073600,16.510073486328125,-0.0013749999925494194,-0.1629374921321869,-0.00494999997317791
1779996191015350500,16.5273505859375,-0.0002749999985098839,-0.055412501096725464,0.0010999999940395355
1779996191032627200,16.544627197265626,0.0009624999947845936,0.08016250282526016,-0.00013749999925494194
1779996191049904000,16.561904052734373,0.002199999988079071,0.17434999346733093,0.0035749999806284904
1779996191067180800,16.579180908203124,0.0034374999813735485,0.16568750143051147,0.0035749999806284904
1779996191084457700,16.596457763671875,0.002199999988079071,0.05816249921917915,-0.00013749999925494194
1779996191101734400,16.613734375,-0.0002749999985098839,-0.08098749816417694,-0.0037124999798834324
1779996191119011300,16.63101123046875,-0.0002749999985098839,-0.17270000278949738,-0.006187499966472387
1779996191136288000,16.6482880859375,-0.0002749999985098839,-0.16046249866485596,-0.002474999986588955
1779996191153565000,16.66556494140625,-0.0002749999985098839,-0.055412501096725464,-0.0037124999798834324
1779996191170841600,16.682841552734374,0.0009624999947845936,0.0826374962925911,0.0010999999940395355
1779996191188118500,16.700118408203124,0.002199999988079071,0.17668749392032623,0.0035749999806284904
1779996191205395500,16.7173955078125,0.002199999988079071,0.16568750143051147,0.006049999967217445
1779996191222672100,16.734672119140626,0.002199999988079071,0.05458749830722809,0.002337499987334013
1779996191248587300,16.760587158203126,-0.0038499999791383743,-0.1457500010728836,-0.0013749999925494194
1779996191265864200,16.7778642578125,-0.005087499972432852,-0.1872749924659729,-0.002474999986588955
1779996191283141000,16.79514111328125,-0.0013749999925494194,-0.11769999563694,-0.0013749999925494194
1779996191309056300,16.82105615234375,0.0009624999947845936,0.08511249721050262,0.004812499973922968
1779996191326333000,16.8383330078125,0.002199999988079071,0.16940000653266907,0.0035749999806284904
1779996191343609900,16.85560986328125,-0.0002749999985098839,0.15963749587535858,0.004812499973922968
1779996191369525000,16.88152490234375,-0.0013749999925494194,-0.015124999918043613,-0.002474999986588955
1779996191386802000,16.898802001953126,-0.0013749999925494194,-0.13241249322891235,-0.002474999986588955
1779996191404078600,16.91607861328125,-0.0013749999925494194,-0.17270000278949738,-0.00494999997317791
1779996191421355300,16.933355224609375,0.0009624999947845936,-0.11275000125169754,-0.002474999986588955
1779996191438632200,16.950632080078126,0.0009624999947845936,0.010587500408291817,-0.00013749999925494194
1779996191455909000,16.9679091796875,0.0009624999947845936,0.1303499937057495,0.002337499987334013
1779996191481824300,16.99382421875,0.002199999988079071,0.15592500567436218,0.0035749999806284904
1779996191499101000,17.011100830078124,0.0009624999947845936,0.05582499876618385,0.002337499987334013
1779996191516377900,17.0283779296875,-0.0002749999985098839,-0.07617499679327011,-0.0013749999925494194
1779996191533654800,17.04565478515625,-0.002612499985843897,-0.16541250050067902,-0.0037124999798834324
1779996191550931500,17.062931396484377,-0.002612499985843897,-0.15674999356269836,-0.0013749999925494194
1779996191568208400,17.08020849609375,-0.0002749999985098839,-0.05664999783039093,-0.0013749999925494194
1779996191585485300,17.0974853515625,0.0009624999947845936,0.0765874981880188,0.002337499987334013
1779996191602762000,17.114761962890626,0.0009624999947845936,0.16335000097751617,0.002337499987334013
1779996191620038700,17.13203857421875,0.0009624999947845936,0.15468749403953552,0.0035749999806284904
1779996191645953800,17.157953857421877,-0.0002749999985098839,-0.008937500417232513,-0.00013749999925494194
1779996191663230700,17.175230712890624,-0.0015124999918043613,-0.1274625062942505,-0.0013749999925494194
1779996191680507600,17.192507568359375,-0.0015124999918043613,-0.17270000278949738,-0.0037124999798834324
1779996191697784300,17.209784423828125,-0.0015124999918043613,-0.113987497985363,-0.002474999986588955
1779996191715061200,17.227061279296876,-0.0002749999985098839,0.008112499490380287,-0.00013749999925494194
1779996191732338000,17.244337890625,-0.0002749999985098839,0.12787500023841858,0.002337499987334013
1779996191749614800,17.26161474609375,0.002199999988079071,0.17063750326633453,0.0035749999806284904
1779996191766891800,17.278891845703125,0.0034374999813735485,0.1143999993801117,0.0035749999806284904
1779996191784168400,17.29616845703125,0.002199999988079071,-0.008937500417232513,-0.00013749999925494194
1779996191801445400,17.3134453125,-0.0015124999918043613,-0.12870000302791595,-0.0013749999925494194
1779996191827360500,17.339360595703123,-0.002749999985098839,-0.15798750519752502,-0.00494999997317791
1779996191844637200,17.35663720703125,-0.0015124999918043613,-0.055412501096725464,-0.002474999986588955
1779996191861914000,17.3739140625,0.002199999988079071,0.08016250282526016,0.0010999999940395355
1779996191879190800,17.391190673828124,0.0034374999813735485,0.16940000653266907,0.002337499987334013
1779996191896467700,17.4084677734375,0.0009624999947845936,0.15716250240802765,0.0035749999806284904
1779996191913744400,17.425744384765625,-0.0002749999985098839,0.05335000157356262,0.0010999999940395355
1779996191939659800,17.45165966796875,-0.002749999985098839,-0.13598750531673431,-0.002474999986588955
1779996191956936700,17.468936767578125,-0.0015124999918043613,-0.17393749952316284,-0.0037124999798834324
1779996191974213400,17.48621337890625,-0.0015124999918043613,-0.11275000125169754,-0.00013749999925494194
1779996191991490300,17.503490234375,0.0009624999947845936,0.013062499463558197,0.002337499987334013
1779996192008767000,17.52076708984375,0.002199999988079071,0.12787500023841858,0.002337499987334013
1779996192026044000,17.5380439453125,0.002199999988079071,0.1681624948978424,0.004812499973922968
1779996192043320600,17.555320556640623,0.0009624999947845936,0.11192499846220016,0.002337499987334013
1779996192069236000,17.581236083984376,-0.0002749999985098839,-0.07369999587535858,-0.0013749999925494194
1779996192086512600,17.5985126953125,-0.0002749999985098839,-0.16169999539852142,-0.00494999997317791
1779996192103789300,17.615789306640625,-0.0015124999918043613,-0.15427500009536743,-0.0037124999798834324
1779996192129704700,17.64170458984375,-0.0002749999985098839,0.009349999949336052,-0.00013749999925494194
1779996192146981400,17.6589814453125,0.0009624999947845936,0.12787500023841858,0.0010999999940395355
1779996192164258300,17.67625830078125,0.002199999988079071,0.17311249673366547,0.004812499973922968
1779996192181535200,17.69353515625,0.0009624999947845936,0.1143999993801117,0.002337499987334013
1779996192207450400,17.719450439453126,0.0009624999947845936,-0.07493750005960464,-0.0013749999925494194
1779996192224727000,17.73672705078125,-0.002749999985098839,-0.16169999539852142,-0.0037124999798834324
1779996192242004000,17.75400390625,-0.002749999985098839,-0.1555124968290329,-0.0037124999798834324
1779996192259280600,17.77128076171875,-0.002749999985098839,-0.05898749828338623,-0.0013749999925494194
1779996192276557600,17.7885576171875,0.0009624999947845936,0.07535000145435333,0.0010999999940395355
1779996192293834200,17.805834228515625,0.0034374999813735485,0.16458749771118164,0.004812499973922968
1779996192311111200,17.823111083984376,0.002199999988079071,0.15358750522136688,0.0010999999940395355
1779996192328387800,17.840387939453127,-0.0002749999985098839,0.05458749830722809,0.0010999999940395355
1779996192345664800,17.857664794921874,-0.002749999985098839,-0.07617499679327011,-0.0037124999798834324
1779996192362941700,17.874941650390625,-0.0015124999918043613,-0.1592250019311905,-0.0037124999798834324
1779996192388856600,17.900856689453125,-0.0015124999918043613,-0.11041250079870224,-0.002474999986588955
1779996192406133500,17.918133544921876,0.0009624999947845936,0.006874999962747097,-0.00013749999925494194
1779996192423410200,17.93541015625,0.0009624999947845936,0.12182500213384628,0.002337499987334013
1779996192449325600,17.96132568359375,0.002199999988079071,0.15111249685287476,0.0035749999806284904
1779996192466602200,17.978602294921874,0.0009624999947845936,0.05706249922513962,-0.00013749999925494194
1779996192483879000,17.99587890625,-0.0015124999918043613,-0.07122500240802765,-0.00013749999925494194
1779996192501155800,18.01315576171875,-0.0015124999918043613,-0.15674999356269836,-0.0037124999798834324
1779996192518432800,18.030432861328126,-0.0002749999985098839,-0.15070000290870667,-0.0037124999798834324
1779996192535709400,18.04770947265625,-0.0002749999985098839,-0.052937500178813934,-0.0013749999925494194
1779996192552986400,18.064986328125,-0.0002749999985098839,0.07039999961853027,0.0010999999940395355
1779996192570263000,18.082262939453123,0.0009624999947845936,0.15468749403953552,0.002337499987334013
1779996192587540000,18.0995400390625,0.002199999988079071,0.15234999358654022,0.0035749999806284904
1779996192604817000,18.11681689453125,0.0009624999947845936,0.05829999968409538,0.002337499987334013
1779996192622093600,18.134093505859376,-0.0002749999985098839,-0.06998749822378159,-0.0013749999925494194
1779996192639370200,18.151370361328127,-0.0038499999791383743,-0.15674999356269836,-0.0013749999925494194
1779996192656647200,18.168647216796874,-0.002749999985098839,-0.1531749963760376,-0.0037124999798834324
1779996192673924000,18.185924072265625,-0.0002749999985098839,-0.055412501096725464,-0.00013749999925494194
1779996192691200800,18.20320068359375,0.0009624999947845936,0.0728750005364418,0.0035749999806284904
1779996192708477700,18.220477783203126,0.0009624999947845936,0.15468749403953552,0.0035749999806284904
1779996192725754400,18.23775439453125,0.0009624999947845936,0.14368750154972076,0.0035749999806284904
1779996192743031300,18.25503125,0.0009624999947845936,0.05087500065565109,0.0010999999940395355
1779996192768946400,18.280946533203124,-0.0015124999918043613,-0.11646249890327454,-0.0013749999925494194
1779996192786223400,18.298223388671875,-0.0015124999918043613,-0.15674999356269836,-0.00494999997317791
1779996192803500000,18.3155,-0.002749999985098839,-0.10793749988079071,-0.002474999986588955
1779996192829415200,18.341415283203126,0.0009624999947845936,0.0668250024318695,-0.00013749999925494194
1779996192846692000,18.358692138671874,0.0034374999813735485,0.1498750001192093,0.0035749999806284904
1779996192863968800,18.37596875,0.0034374999813735485,0.1461624950170517,0.0035749999806284904
1779996192889884000,18.4018837890625,-0.0002749999985098839,-0.008937500417232513,0.0010999999940395355
1779996192907160600,18.41916064453125,-0.0038499999791383743,-0.11893749982118607,-0.0037124999798834324
1779996192924437500,18.4364375,-0.0015124999918043613,-0.1555124968290329,-0.002474999986588955
1779996192941714200,18.453714111328125,-0.0002749999985098839,-0.10175000131130219,-0.00013749999925494194
1779996192958991000,18.4709912109375,0.0009624999947845936,0.008112499490380287,-0.00013749999925494194
1779996192976268000,18.48826806640625,0.002199999988079071,0.11316250264644623,0.002337499987334013
1779996192993544700,18.505544677734374,0.002199999988079071,0.15358750522136688,-0.00013749999925494194
1779996193019459800,18.5314599609375,-0.0002749999985098839,0.05211250111460686,0.0010999999940395355
1779996193036736500,18.548736572265625,-0.0002749999985098839,-0.06393750011920929,-0.002474999986588955
1779996193054013400,18.566013427734376,-0.0015124999918043613,-0.14217500388622284,-0.0013749999925494194
1779996193071290000,18.5832900390625,-0.0013749999925494194,-0.13846249878406525,-0.006187499966472387
1779996193088567000,18.600567138671874,-0.0013749999925494194,-0.05169999971985817,0.0010999999940395355
1779996193105843700,18.61784375,0.0009624999947845936,0.06311249732971191,0.0010999999940395355
1779996193123120600,18.63512060546875,0.002199999988079071,0.14011250436306,0.0035749999806284904
1779996193140397300,18.652397216796874,0.002199999988079071,0.13392500579357147,0.004812499973922968
1779996193157674200,18.66967431640625,-0.00013749999925494194,0.04839999973773956,-0.0013749999925494194
1779996193174951200,18.686951171875,-0.00013749999925494194,-0.06641250103712082,-0.0013749999925494194
1779996193192227800,18.704227783203127,-0.0013749999925494194,-0.1396999955177307,-0.006187499966472387
1779996193209504800,18.7215048828125,-0.002612499985843897,-0.1311749964952469,-0.002474999986588955
1779996193235420000,18.747419921875,-0.00013749999925494194,0.011824999935925007,-0.00013749999925494194
1779996193252696600,18.764696533203125,0.002199999988079071,0.11192499846220016,0.004812499973922968
1779996193269973500,18.781973388671876,0.0034374999813735485,0.14368750154972076,0.002337499987334013
1779996193287250200,18.799250244140627,0.0009624999947845936,0.08882500231266022,0.0010999999940395355
1779996193304527000,18.816527099609374,-0.0013749999925494194,-0.018699999898672104,-0.00013749999925494194
1779996193321803800,18.8338037109375,-0.0013749999925494194,-0.1116499975323677,-0.002474999986588955
1779996193339080700,18.851080810546875,-0.00013749999925494194,-0.13846249878406525,0.0010999999940395355
1779996193356357400,18.868357421875,0.0009624999947845936,-0.08470000326633453,-0.002474999986588955
1779996193382272500,18.8942724609375,-0.00013749999925494194,0.06435000151395798,0.002337499987334013
1779996193399549200,18.911549072265625,0.0009624999947845936,0.12911249697208405,-0.0013749999925494194
1779996193416826000,18.928826171875,0.002199999988079071,0.11935000121593475,0.002337499987334013
1779996193434102800,18.946102783203123,-0.00013749999925494194,0.04358749836683273,-0.00013749999925494194
1779996193451379700,18.963379638671874,-0.002612499985843897,-0.060224998742341995,-0.002474999986588955
1779996193468656600,18.98065673828125,-0.0013749999925494194,-0.1274625062942505,-0.0037124999798834324
1779996193485933300,18.997933349609376,-0.0013749999925494194,-0.11893749982118607,-0.002474999986588955
1779996193503210000,19.0152099609375,0.0009624999947845936,-0.04193750023841858,-0.00013749999925494194
1779996193520487000,19.03248681640625,0.0009624999947845936,0.05939999967813492,0.0010999999940395355
1779996193537763600,19.049763671875,-0.00013749999925494194,0.12540000677108765,0.002337499987334013
1779996193555040500,19.06704052734375,0.0009624999947845936,0.11935000121593475,0.002337499987334013
1779996193572317200,19.084317138671874,0.0009624999947845936,0.0448249988257885,0.002337499987334013
1779996193589594000,19.101593994140625,0.0009624999947845936,-0.05664999783039093,-0.0013749999925494194
1779996193606870800,19.118870849609376,-0.00013749999925494194,-0.12622499465942383,-0.002474999986588955
1779996193624147700,19.136147705078123,-0.002612499985843897,-0.12017499655485153,-0.0013749999925494194
1779996193641424400,19.15342431640625,-0.0013749999925494194,-0.04441250115633011,-0.002474999986588955
1779996193658701300,19.170701416015625,0.0009624999947845936,0.06063750013709068,0.0035749999806284904
1779996193675978200,19.187978271484376,0.002199999988079071,0.12787500023841858,0.002337499987334013
1779996193693255000,19.2052548828125,0.002199999988079071,0.11811249703168869,0.002337499987334013
1779996193710531600,19.222531494140625,-0.00013749999925494194,0.03987500071525574,-0.00013749999925494194
1779996193727808500,19.23980859375,-0.0013749999925494194,-0.06146249920129776,-0.0013749999925494194
1779996193745085200,19.257085205078123,-0.0013749999925494194,-0.1237500011920929,-0.002474999986588955
1779996193762361900,19.27436181640625,-0.0013749999925494194,-0.11522500216960907,-0.0013749999925494194
1779996193779638800,19.291638671875,0.0009624999947845936,-0.040699999779462814,0.0010999999940395355
1779996193796915700,19.308915771484376,0.0009624999947845936,0.05458749830722809,0.0010999999940395355
1779996193822830800,19.334830810546876,0.0009624999947845936,0.12292499840259552,0.002337499987334013
1779996193840107500,19.352107421875,-0.00013749999925494194,0.0826374962925911,0.0010999999940395355
1779996193857384400,19.369384521484374,-0.0013749999925494194,-0.004124999977648258,-0.00013749999925494194
1779996193874661400,19.386661376953125,-0.0013749999925494194,-0.08717499673366547,-0.0013749999925494194
1779996193891938000,19.40393798828125,-0.0013749999925494194,-0.1214125007390976,-0.0013749999925494194
1779996193909214700,19.421214599609375,-0.00013749999925494194,-0.0859375,-0.00013749999925494194
1779996193926491400,19.438491455078125,0.0009624999947845936,-0.004124999977648258,0.0010999999940395355
1779996193943768300,19.455768310546876,0.0009624999947845936,0.08387500047683716,0.002337499987334013
1779996193961045000,19.473044921875,-0.00013749999925494194,0.11935000121593475,0.0035749999806284904
1779996193978322000,19.490322021484374,-0.00013749999925494194,0.08635000139474869,0.002337499987334013
1779996194004237000,19.516237060546874,-0.00013749999925494194,-0.04193750023841858,0.0010999999940395355
1779996194021514000,19.533513916015625,-0.0013749999925494194,-0.11275000125169754,-0.0037124999798834324
1779996194038790700,19.550790771484376,-0.0013749999925494194,-0.11522500216960907,-0.0013749999925494194
1779996194064705800,19.576705810546876,-0.0015124999918043613,-0.0028874999843537807,-0.00013749999925494194
1779996194081982700,19.593982666015624,0.0009624999947845936,0.08635000139474869,0.002337499987334013
1779996194099259400,19.61125927734375,0.002199999988079071,0.12416250258684158,0.002337499987334013
1779996194125174500,19.637174560546875,0.0009624999947845936,0.05087500065565109,-0.00013749999925494194
1779996194142451500,19.654451416015625,-0.0002749999985098839,-0.045649997889995575,-0.00013749999925494194
1779996194159728000,19.67172802734375,-0.0015124999918043613,-0.113987497985363,-0.002474999986588955
1779996194177005000,19.689005126953123,-0.002612499985843897,-0.11522500216960907,-0.002474999986588955
1779996194194282000,19.706281982421874,-0.0002749999985098839,-0.04922499880194664,-0.00013749999925494194
1779996194211558700,19.72355859375,0.0009624999947845936,0.0448249988257885,-0.00013749999925494194
1779996194228835300,19.74083544921875,0.0009624999947845936,0.11192499846220016,0.002337499987334013
1779996194246112000,19.758112060546875,0.0009624999947845936,0.11687500029802322,0.002337499987334013
1779996194263389000,19.775388916015626,-0.0002749999985098839,0.05211250111460686,0.0010999999940395355
1779996194289304000,19.801303955078126,-0.0015124999918043613,-0.08098749816417694,-0.0037124999798834324
1779996194306581000,19.8185810546875,-0.002612499985843897,-0.1214125007390976,-0.0013749999925494194
1779996194323857700,19.835857666015624,-0.0015124999918043613,-0.09075000137090683,-0.0013749999925494194
1779996194349772500,19.8617724609375,-0.0015124999918043613,0.03739999979734421,0.0010999999940395355
1779996194367049500,19.879049560546875,-0.0002749999985098839,0.10711249709129333,0.0010999999940395355
1779996194384326400,19.896326416015626,0.002199999988079071,0.1143999993801117,0.004812499973922968
1779996194401603000,19.91360302734375,0.0009624999947845936,0.05211250111460686,-0.0013749999925494194
1779996194418880000,19.9308798828125,-0.0002749999985098839,-0.040699999779462814,-0.00013749999925494194
1779996194436156700,19.94815673828125,-0.002612499985843897,-0.11041250079870224,-0.0013749999925494194
1779996194453433600,19.96543359375,-0.0015124999918043613,-0.11275000125169754,-0.0037124999798834324
1779996194470710500,19.98271044921875,-0.0002749999985098839,-0.050462499260902405,0.0010999999940395355
1779996194487987200,19.9999873046875,0.002199999988079071,0.04235000163316727,-0.00013749999925494194
1779996194505264000,20.01726416015625,0.002199999988079071,0.11082500219345093,0.0035749999806284904
1779996194522540800,20.034540771484377,0.002199999988079071,0.1143999993801117,-0.00013749999925494194
1779996194539817500,20.0518173828125,0.0009624999947845936,0.04839999973773956,0.002337499987334013
1779996194557094400,20.069094482421875,-0.0002749999985098839,-0.04441250115633011,-0.0037124999798834324
1779996194574371000,20.08637109375,-0.0015124999918043613,-0.10793749988079071,-0.00013749999925494194
1779996194591648000,20.10364794921875,-0.0002749999985098839,-0.11041250079870224,-0.0013749999925494194
1779996194608924700,20.120924560546875,0.0009624999947845936,-0.047987498342990875,-0.00013749999925494194
1779996194626201300,20.138201416015626,-0.0002749999985098839,0.03863750025629997,0.002337499987334013
1779996194643478300,20.155478271484377,0.0009624999947845936,0.10339999943971634,-0.00013749999925494194
1779996194669393400,20.181393310546873,-0.0002749999985098839,0.08387500047683716,0.0010999999940395355
1779996194686670000,20.198670166015624,-0.0002749999985098839,0.006874999962747097,-0.0013749999925494194
1779996194703947000,20.215947021484375,-0.0002749999985098839,-0.07369999587535858,-0.0013749999925494194
1779996194721223700,20.2332236328125,-0.002749999985098839,-0.11151249706745148,-0.002474999986588955
1779996194738500600,20.25050048828125,-0.0015124999918043613,-0.0859375,-0.00013749999925494194
1779996194755777300,20.26777734375,-0.0002749999985098839,-0.006462499964982271,-0.00013749999925494194
1779996194773054200,20.28505419921875,0.002199999988079071,0.07782500237226486,0.0035749999806284904
1779996194790331000,20.302330810546874,0.002199999988079071,0.11316250264644623,-0.00013749999925494194
1779996194807607800,20.31960791015625,-0.0002749999985098839,0.0826374962925911,0.0010999999940395355
1779996194824884500,20.336884521484375,-0.0015124999918043613,0.0056374999694526196,-0.00013749999925494194
1779996194842161400,20.354161376953126,-0.0002749999985098839,-0.07493750005960464,-0.0013749999925494194
1779996194859438000,20.37143798828125,-0.0002749999985098839,-0.10670000314712524,-0.0013749999925494194
1779996194876714800,20.38871484375,0.0009624999947845936,-0.082225002348423,-0.0013749999925494194
1779996194893991400,20.405991455078127,0.0009624999947845936,-0.008937500417232513,0.002337499987334013
1779996194911268400,20.423268310546874,-0.0002749999985098839,0.06806249916553497,-0.00013749999925494194
1779996194928545300,20.440545166015625,0.0009624999947845936,0.10587500035762787,0.0035749999806284904
1779996194954460400,20.46646044921875,0.0009624999947845936,0.05087500065565109,0.0010999999940395355
1779996194971737300,20.4837373046875,0.0009624999947845936,-0.028462499380111694,0.0010999999940395355
1779996194989013800,20.501013671875,-0.0015124999918043613,-0.09569999575614929,-0.002474999986588955
1779996195006290700,20.518290771484374,-0.002749999985098839,-0.10670000314712524,-0.002474999986588955
1779996195023567400,20.5355673828125,-0.0015124999918043613,-0.052937500178813934,0.0010999999940395355
1779996195040844300,20.55284423828125,-0.0002749999985098839,0.03135000169277191,-0.00013749999925494194
1779996195058121000,20.570120849609374,0.0009624999947845936,0.09363749623298645,0.002337499987334013
1779996195084036000,20.5960361328125,0.0009624999947845936,0.08387500047683716,0.0010999999940395355
1779996195101313000,20.61331298828125,0.0009624999947845936,0.014299999922513962,0.0010999999940395355
1779996195118589700,20.630589599609376,-0.0002749999985098839,-0.06270000338554382,-0.002474999986588955
1779996195135866600,20.64786669921875,-0.0015124999918043613,-0.10422500222921371,-0.0013749999925494194
1779996195153143300,20.665143310546874,-0.0015124999918043613,-0.0859375,-0.0013749999925494194
1779996195170420200,20.682420166015625,-0.0015124999918043613,-0.016224998980760574,-0.00013749999925494194
1779996195187697000,20.69969677734375,0.0009624999947845936,0.06311249732971191,0.0010999999940395355
1779996195204973600,20.7169736328125,0.002199999988079071,0.1046374961733818,0.002337499987334013
1779996195222250500,20.73425048828125,0.002199999988079071,0.08511249721050262,0.0010999999940395355
1779996195239527200,20.751527099609376,-0.0002749999985098839,0.015537500381469727,0.0010999999940395355
1779996195256803800,20.768803955078123,-0.0015124999918043613,-0.06517499685287476,-0.0037124999798834324
1779996195274080800,20.786080810546874,-0.0002749999985098839,-0.10422500222921371,-0.0013749999925494194
1779996195291357400,20.803357421875,-0.0002749999985098839,-0.08346249908208847,-0.0013749999925494194
1779996195308634000,20.820634033203124,-0.0002749999985098839,-0.015124999918043613,-0.00013749999925494194
1779996195325911000,20.8379111328125,0.0009624999947845936,0.05939999967813492,0.0010999999940395355
1779996195343187700,20.855187744140625,0.0009624999947845936,0.10216250270605087,0.002337499987334013
1779996195369103000,20.88110302734375,-0.0002749999985098839,0.05829999968409538,0.002337499987334013
1779996195386379800,20.8983798828125,-0.0002749999985098839,-0.01993750035762787,-0.00013749999925494194
1779996195403656400,20.915656494140624,-0.0015124999918043613,-0.08841250091791153,-0.00013749999925494194
1779996195420933400,20.932933349609375,-0.0002749999985098839,-0.10546249896287918,-0.00494999997317791
1779996195446848500,20.9588486328125,-0.0015124999918043613,-0.018699999898672104,-0.0013749999925494194
1779996195464125200,20.976125244140626,-0.0002749999985098839,0.05939999967813492,0.0010999999940395355
1779996195481402000,20.993402099609376,0.0009624999947845936,0.10339999943971634,0.0010999999940395355
1779996195498678800,21.0106787109375,0.002199999988079071,0.09006249904632568,0.002337499987334013
1779996195515955700,21.027955810546874,0.0009624999947845936,0.020349999889731407,0.0010999999940395355
1779996195533232400,21.045232421875,-0.0002749999985098839,-0.06270000338554382,-0.002474999986588955
1779996195559147500,21.0711474609375,-0.0015124999918043613,-0.10422500222921371,-0.002474999986588955
1779996195576424400,21.088424560546876,-0.0015124999918043613,-0.057887498289346695,-0.00013749999925494194
1779996195593701000,21.105701171875,-0.0015124999918043613,0.022824998944997787,-0.0013749999925494194
1779996195610977800,21.122977783203126,0.0009624999947845936,0.09363749623298645,0.0035749999806284904
1779996195628254700,21.140254638671873,0.0034374999813735485,0.10587500035762787,0.002337499987334013
1779996195645531400,21.157531494140624,0.0009624999947845936,0.05706249922513962,0.002337499987334013
1779996195662808300,21.174808349609375,-0.0002749999985098839,-0.028462499380111694,-0.0013749999925494194
1779996195688723500,21.200723388671875,-0.002749999985098839,-0.10917499661445618,-0.002474999986588955
1779996195706000100,21.218000244140626,-0.0015124999918043613,-0.08470000326633453,-0.002474999986588955
1779996195723277000,21.235277099609377,0.0009624999947845936,-0.011412499472498894,0.0010999999940395355
1779996195740553700,21.2525537109375,0.002199999988079071,0.06929999589920044,0.002337499987334013
1779996195766468900,21.27846875,0.0009624999947845936,0.09982500225305557,0.002337499987334013
1779996195783745500,21.29574560546875,-0.0015124999918043613,0.04839999973773956,0.0010999999940395355
1779996195801022500,21.3130224609375,-0.0002749999985098839,-0.030937500298023224,-0.00013749999925494194
1779996195818299100,21.330299072265625,-0.0002749999985098839,-0.09075000137090683,-0.0013749999925494194
1779996195835576000,21.347576171875,-0.0015124999918043613,-0.09941250085830688,-0.0013749999925494194
1779996195852852700,21.364852783203126,-0.0002749999985098839,-0.04922499880194664,0.0010999999940395355
1779996195878768000,21.39076806640625,0.0009624999947845936,0.05829999968409538,-0.00013749999925494194
1779996195896044800,21.408044921875,0.0034374999813735485,0.10106249898672104,0.002337499987334013
1779996195913321500,21.425321533203125,-0.0002749999985098839,0.08139999955892563,0.0010999999940395355
1779996195939236600,21.451236572265625,-0.002749999985098839,-0.023649999871850014,-0.00013749999925494194
1779996195956513500,21.468513427734376,-0.0015124999918043613,-0.08346249908208847,-0.0037124999798834324
1779996195973790200,21.485790283203126,0.0009624999947845936,-0.09322500228881836,-0.0013749999925494194
1779996195991067000,21.50306689453125,-0.0002749999985098839,-0.05169999971985817,-0.0013749999925494194
1779996196008343600,21.520343505859376,0.0009624999947845936,0.020349999889731407,0.0010999999940395355
1779996196025620500,21.537620361328123,0.0009624999947845936,0.08016250282526016,0.0010999999940395355
1779996196042897200,21.554897216796874,-0.0002749999985098839,0.09363749623298645,0.0010999999940395355
1779996196060173800,21.572173828125,-0.0002749999985098839,0.05087500065565109,0.0010999999940395355
1779996196077450800,21.58945068359375,-0.00013749999925494194,-0.018699999898672104,-0.00013749999925494194
1779996196094727400,21.6067275390625,-0.00013749999925494194,-0.07864999771118164,-0.00013749999925494194
1779996196112004600,21.624004638671874,-0.00013749999925494194,-0.09446249902248383,-0.00494999997317791
1779996196129281000,21.641281005859376,0.0009624999947845936,-0.052937500178813934,-0.0013749999925494194
1779996196146558000,21.658557861328124,-0.00013749999925494194,0.020349999889731407,0.0010999999940395355
1779996196163835000,21.6758349609375,-0.00013749999925494194,0.0789249986410141,-0.00013749999925494194
1779996196181111600,21.693111572265625,0.0009624999947845936,0.09363749623298645,0.0035749999806284904
1779996196198388200,21.71038818359375,0.0009624999947845936,0.05335000157356262,0.002337499987334013
1779996196215665200,21.7276650390625,0.0009624999947845936,-0.01746249943971634,-0.0013749999925494194
1779996196232942000,21.744942138671874,-0.0013749999925494194,-0.07864999771118164,-0.0013749999925494194
1779996196250218500,21.762218505859376,-0.0013749999925494194,-0.09446249902248383,-0.0013749999925494194
1779996196267495200,21.7794951171875,-0.0013749999925494194,-0.052937500178813934,-0.0013749999925494194
1779996196284772000,21.796772216796874,0.0009624999947845936,0.019112499430775642,0.0010999999940395355
1779996196302048800,21.814048828125,0.0034374999813735485,0.08016250282526016,0.0010999999940395355
1779996196319325700,21.83132568359375,0.0009624999947845936,0.09116250276565552,0.002337499987334013
1779996196336602600,21.8486025390625,-0.00013749999925494194,0.04839999973773956,-0.0013749999925494194
1779996196353879000,21.865879150390626,-0.00013749999925494194,-0.01993750035762787,-0.0013749999925494194
1779996196371155700,21.88315576171875,-0.00013749999925494194,-0.07246249914169312,-0.00013749999925494194
1779996196388432600,21.9004326171875,-0.00013749999925494194,-0.0859375,-0.00013749999925494194
1779996196414347800,21.92634765625,-0.00013749999925494194,-0.01993750035762787,-0.00013749999925494194
1779996196431624700,21.943624755859375,-0.00013749999925494194,0.04358749836683273,-0.00013749999925494194
1779996196448901400,21.9609013671875,0.002199999988079071,0.0826374962925911,0.002337499987334013
1779996196466178300,21.97817822265625,0.0009624999947845936,0.0728750005364418,0.002337499987334013
1779996196492093200,22.00409326171875,-0.0013749999925494194,-0.013887500390410423,-0.00013749999925494194
