time,seconds_elapsed,z,y,x
1779996174710280400,0.222280517578125,-0.0012374999932944775,-0.007287499960511923,0.00976249948143959
1779996174727557000,0.23955712890625,-0.0035749999806284904,-0.00494999997317791,0.023237500339746475
1779996174744833800,0.256833740234375,-0.0035749999806284904,0.004812499973922968,0.007287499960511923
1779996174762110500,0.2741103515625,-0.0035749999806284904,0.010999999940395355,-0.006049999967217445
1779996174779387100,0.29138720703125,-0.002337499987334013,0.0037124999798834324,-0.006049999967217445
1779996174796663600,0.30866357421875,0,-0.0012374999932944775,0.00494999997317791
1779996174822578700,0.33457861328125,-0.002337499987334013,-0.006187499966472387,0.007287499960511923
1779996174839855400,0.35185546875,-0.0035749999806284904,-0.0085249999538064,-0.01347499992698431
1779996174857132000,0.369132080078125,-0.002337499987334013,0.002474999986588955,-0.01347499992698431
1779996174874408400,0.386408447265625,-0.002337499987334013,0.01223750039935112,0
1779996174891685000,0.40368505859375,-0.0012374999932944775,0,0.010999999940395355
1779996174908962000,0.420962158203125,-0.0012374999932944775,-0.02199999988079071,0.002474999986588955
1779996174926238500,0.438238525390625,-0.002337499987334013,-0.023237500339746475,0.007287499960511923
1779996174943515100,0.45551513671875,-0.0012374999932944775,-0.002474999986588955,0.032999999821186066
1779996174960791800,0.472791748046875,0,0.01347499992698431,0.037812501192092896
1779996174982387700,0.4943876953125,0.0012374999932944775,0.007287499960511923,0.002474999986588955
1779996174999664400,0.511664306640625,-0.0012374999932944775,-0.002474999986588955,-0.025712499395012856
1779996175016941000,0.528941162109375,-0.0012374999932944775,0.0012374999932944775,-0.035475000739097595
1779996175034217700,0.5462177734375,-0.002337499987334013,0.0170499999076128,-0.02681249938905239
1779996175051494400,0.563494384765625,-0.0010999999940395355,0.02199999988079071,-0.0037124999798834324
1779996175068770800,0.580770751953125,-0.0010999999940395355,0.020762499421834946,0.01952499896287918
1779996175086047500,0.598047607421875,0.0012374999932944775,0.018287500366568565,0.010999999940395355
1779996175103324200,0.61532421875,-0.0010999999940395355,0.010999999940395355,0.00976249948143959
1779996175120600800,0.632600830078125,0,-0.00494999997317791,0.0170499999076128
1779996175137877500,0.64987744140625,-0.002337499987334013,-0.01718750037252903,0.00976249948143959
1779996175155154200,0.667154296875,-0.002337499987334013,-0.018287500366568565,0.0085249999538064
1779996175172430800,0.684430908203125,-0.0010999999940395355,-0.010999999940395355,-0.0085249999538064
1779996175189707500,0.70170751953125,-0.0010999999940395355,-0.002474999986588955,-0.035475000739097595
1779996175215622700,0.72762255859375,-0.002337499987334013,0.018287500366568565,-0.018287500366568565
1779996175232899000,0.744899169921875,-0.002337499987334013,0.025575000792741776,0.00494999997317791
1779996175250175700,0.76217578125,-0.0010999999940395355,0.018287500366568565,0.007287499960511923
1779996175267452400,0.779452392578125,-0.0010999999940395355,0.007287499960511923,-0.0012374999932944775
1779996175284729000,0.79672900390625,-0.0035749999806284904,0.004812499973922968,-0.01952499896287918
1779996175302005800,0.814005859375,-0.002337499987334013,0.010999999940395355,-0.015812499448657036
1779996175319282200,0.8312822265625,0,0.0170499999076128,0.0012374999932944775
1779996175336559000,0.84855908203125,-0.0010999999940395355,0.020762499421834946,0.002474999986588955
1779996175353835800,0.865835693359375,-0.0010999999940395355,0.02928750030696392,0.0012374999932944775
1779996175371112200,0.8831123046875,-0.0010999999940395355,0.03423750028014183,-0.002474999986588955
1779996175388388900,0.900388916015625,-0.002337499987334013,0.02447500079870224,0
1779996175405665500,0.91766552734375,-0.0035749999806284904,0.007287499960511923,-0.006049999967217445
1779996175422942500,0.9349423828125,-0.002337499987334013,-0.0037124999798834324,-0.0012374999932944775
1779996175448857000,0.960857177734375,-0.0035749999806284904,0.02447500079870224,-0.00976249948143959
1779996175466134000,0.978134033203125,-0.0010999999940395355,0.08910000324249268,0.015949999913573265
1779996175483410700,0.99541064453125,0.0012374999932944775,0.11357499659061432,0.04152499884366989
1779996175500687400,1.012687255859375,-0.0010999999940395355,0.05376249924302101,0.00494999997317791
1779996175517964000,1.029964111328125,-0.002337499987334013,0.0012374999932944775,-0.03671250119805336
1779996175535240700,1.04724072265625,-0.004812499973922968,-0.054999999701976776,-0.03423750028014183
1779996175552517600,1.064517578125,-0.0035749999806284904,-0.09404999762773514,-0.02681249938905239
1779996175569794300,1.081794189453125,-0.0035749999806284904,-0.07823749631643295,0.00494999997317791
1779996175587070700,1.09907080078125,-0.002474999986588955,-0.05128749832510948,0.030524998903274536
1779996175604347400,1.116347412109375,-0.0012374999932944775,-0.04152499884366989,0.01952499896287918
1779996175621624000,1.1336240234375,-0.002474999986588955,-0.03423750028014183,-0.0085249999538064
1779996175638901000,1.15090087890625,-0.0035749999806284904,-0.018287500366568565,-0.01347499992698431
1779996175656177700,1.168177734375,-0.002474999986588955,-0.00494999997317791,-0.00976249948143959
1779996175673454300,1.185454345703125,-0.0012374999932944775,0.0085249999538064,-0.006049999967217445
1779996175690731000,1.20273095703125,0,0.023237500339746475,-0.01223750039935112
1779996175708007700,1.220007568359375,-0.0012374999932944775,0.02928750030696392,-0.0147124994546175
1779996175733922800,1.2459228515625,-0.0012374999932944775,0.010999999940395355,-0.0012374999932944775
1779996175777114600,1.289114501953125,-0.0035749999806284904,0.0012374999932944775,0
1779996175794391300,1.306391357421875,-0.002474999986588955,-0.002474999986588955,0.0085249999538064
1779996175811668000,1.32366796875,-0.0035749999806284904,0.0037124999798834324,0.002474999986588955
1779996175828944600,1.340944580078125,-0.0035749999806284904,0.006049999967217445,-0.0012374999932944775
1779996175846221300,1.35822119140625,-0.0035749999806284904,0.010999999940395355,0.010999999940395355
1779996175863498000,1.375498046875,-0.002474999986588955,0.015812499448657036,0.02447500079870224
1779996175880775000,1.39277490234375,-0.0035749999806284904,0.01223750039935112,0.01347499992698431
1779996175898051600,1.410051513671875,-0.0035749999806284904,0.018287500366568565,0
1779996175915328300,1.427328369140625,-0.0035749999806284904,0.023237500339746475,-0.0085249999538064
1779996175932605000,1.44460498046875,-0.0035749999806284904,0.023237500339746475,-0.0085249999538064
1779996175949881600,1.461881591796875,-0.002474999986588955,0.010999999940395355,-0.028049999848008156
1779996175975796700,1.487796630859375,0,0.028049999848008156,0.0012374999932944775
1779996175993073400,1.505073486328125,-0.0035749999806284904,0.02681249938905239,0.025712499395012856
1779996176010350300,1.522350341796875,-0.004812499973922968,0.006049999967217445,0.02928750030696392
1779996176027627000,1.539626953125,-0.0035749999806284904,-0.007287499960511923,0.00976249948143959
1779996176044903400,1.5569033203125,-0.0010999999940395355,-0.00494999997317791,0.0037124999798834324
1779996176062180400,1.574180419921875,-0.0010999999940395355,0.004812499973922968,-0.010999999940395355
1779996176079457000,1.59145703125,0.00013749999925494194,0.018287500366568565,-0.018287500366568565
1779996176096734000,1.60873388671875,-0.0010999999940395355,0.02447500079870224,-0.010999999940395355
1779996176114010600,1.6260107421875,-0.0035749999806284904,0.037812501192092896,-0.007287499960511923
1779996176131287600,1.64328759765625,-0.0035749999806284904,0.0635249987244606,0.01223750039935112
1779996176148564200,1.660564208984375,-0.0010999999940395355,0.09157499670982361,0.05376249924302101
1779996176165841200,1.677841064453125,0.00013749999925494194,0.10009999573230743,0.06847500056028366
1779996176183117800,1.695117919921875,-0.002337499987334013,0.09404999762773514,0.0012374999932944775
1779996176209032700,1.72103271484375,-0.004812499973922968,0.0317624993622303,-0.02447500079870224
1779996176226309600,1.7383095703125,-0.008387500420212746,-0.04028749838471413,-0.04647500067949295
1779996176243586300,1.75558642578125,-0.03162499889731407,-0.1942874938249588,-0.14409999549388885
1779996176260863000,1.772863037109375,-0.059812501072883606,-0.6927250027656555,0.14904999732971191
1779996176278139600,1.7901396484375,-0.04028749838471413,-1.901075005531311,0.03423750028014183
1779996176295416600,1.80741650390625,-0.015812499448657036,-2.147749900817871,-0.6377249956130981
1779996176312693200,1.824693359375,-0.05486249923706055,-1.1948750019073486,0.8673499822616577
1779996176329970000,1.841969970703125,-0.0170499999076128,0.3115749955177307,0.5351499915122986
1779996176355885300,1.86788525390625,-0.02186249941587448,1.893649935722351,-0.3041499853134155
1779996176373162000,1.885161865234375,-0.010862499475479126,1.8154125213623047,-1.6725499629974365
1779996176390439000,1.90243896484375,0.04166249930858612,0.6792500019073486,1.4807374477386475
1779996176407715600,1.919715576171875,-0.018287500366568565,-1.0653499364852905,-0.8027250170707703
1779996176424992500,1.936992431640625,-0.028049999848008156,-1.909600019454956,0.01223750039935112
1779996176442269400,1.95426953125,-0.0035749999806284904,-1.639549970626831,0.7990124821662903
1779996176459546000,1.971546142578125,0.01718750037252903,-0.6914874911308289,0.14176249504089355
1779996176485461000,1.9974609375,-0.01209999993443489,1.3964500427246094,0.010999999940395355
1779996176502738000,2.014738037109375,-0.023099999874830246,1.8851250410079956,-0.9297749996185303
1779996176528653000,2.040653076171875,0.033137500286102295,0.8833000063896179,1.30239999294281
1779996176545930000,2.057929931640625,-0.02433750033378601,-0.7452499866485596,-0.8368250131607056
1779996176563206700,2.07520654296875,-0.025575000792741776,-1.7630250453948975,0.2358125001192093
1779996176589121800,2.101121826171875,-0.0010999999940395355,-1.4172124862670898,-0.05376249924302101
1779996176606398700,2.118398681640625,-0.002337499987334013,-0.1247124969959259,-0.2003374993801117
1779996176623675400,2.13567529296875,0.0037124999798834324,1.2314499616622925,-0.02928750030696392
1779996176649590800,2.1615908203125,0.01718750037252903,1.875362515449524,-0.11357499659061432
1779996176666867500,2.178867431640625,0.011137500405311584,0.9956374764442444,0.27857500314712524
1779996176684144400,2.196144287109375,-0.015812499448657036,-0.5693874955177307,-0.3115749955177307
1779996176701421000,2.213421142578125,-0.018149999901652336,-1.7128374576568604,0.24433749914169312
1779996176718698000,2.230697998046875,-0.023099999874830246,-1.8398874998092651,-0.25905001163482666
1779996176735974700,2.247974609375,-0.020624998956918716,-0.8955374956130981,0.13433749973773956
1779996176753251600,2.26525146484375,0.007424999959766865,0.524150013923645,0.3273875117301941
1779996176770528300,2.2825283203125,0.00494999997317791,1.5783624649047852,-0.05004999786615372
1779996176787805200,2.29980517578125,0.013612499460577965,1.7678375244140625,-0.6254875063896179
1779996176805082000,2.31708203125,0.02213750034570694,1.0029250383377075,0.7207750082015991
1779996176822359000,2.334359130859375,-0.02186249941587448,-0.5033875107765198,-0.6182000041007996
1779996176848274200,2.360274169921875,-0.0170499999076128,-1.783787488937378,0.4251500070095062
1779996176865551000,2.377551025390625,-0.018149999901652336,-1.459975004196167,-0.45196250081062317
1779996176882827800,2.394827880859375,-0.0035749999806284904,-0.2320999950170517,0.24433749914169312
1779996176908743200,2.4207431640625,0.00494999997317791,1.527074933052063,0.0317624993622303
1779996176926020000,2.43802001953125,0.011137500405311584,1.7286499738693237,-0.5974375009536743
1779996176943296800,2.455296875,0.020899999886751175,0.9944000244140625,0.6646749973297119
1779996176969212000,2.4812119140625,-0.02186249941587448,-1.0751124620437622,-0.3713875114917755
1779996176986488800,2.49848876953125,-0.014574999921023846,-1.731124997138977,0.4104374945163727
1779996177003765800,2.515765869140625,-0.018149999901652336,-1.4502124786376953,-0.4288625121116638
1779996177021042400,2.53304248046875,-0.006049999967217445,-0.2700499892234802,0.24062499403953552
1779996177038319400,2.5503193359375,0.006187499966472387,1.0128250122070312,0.29315000772476196
1779996177055596300,2.56759619140625,0.007424999959766865,1.6321250200271606,-0.420199990272522
1779996177072873200,2.584873291015625,0.02213750034570694,1.4697375297546387,0.16376249492168427
1779996177098788400,2.610788330078125,-0.018149999901652336,-0.39957499504089355,-0.5289624929428101
1779996177116065300,2.628065185546875,-0.0170499999076128,-1.4502124786376953,0.340862512588501
1779996177133342200,2.64534228515625,-0.020624998956918716,-1.6652624607086182,-0.17586250603199005
1779996177150619100,2.662619140625,-0.013337500393390656,-0.91753751039505,-0.11123749613761902
1779996177167895800,2.679895751953125,0.0037124999798834324,0.3676750063896179,0.37014999985694885
1779996177185172700,2.6971728515625,0.006187499966472387,1.378024935722351,-0.030524998903274536
1779996177202449700,2.71444970703125,0.013612499460577965,1.6333625316619873,-0.47286251187324524
1779996177228365000,2.740364990234375,-0.002337499987334013,0.36162498593330383,0.04399999976158142
1779996177245642000,2.75764208984375,-0.0193875003606081,-0.9492999911308289,-0.24186250567436218
1779996177262918700,2.774918701171875,-0.014574999921023846,-1.6077874898910522,0.3018124997615814
1779996177280195600,2.792195556640625,-0.018149999901652336,-1.3842124938964844,-0.39943748712539673
1779996177297472500,2.809472412109375,-0.004812499973922968,-0.3188624978065491,0.3139125108718872
1779996177314749200,2.826749267578125,0.006187499966472387,0.869825005531311,0.2003374993801117
1779996177332026000,2.844026123046875,0.00989999994635582,1.5075500011444092,-0.44591251015663147
1779996177357941200,2.869941162109375,0.01718750037252903,0.9846374988555908,0.5253875255584717
1779996177375218200,2.88721826171875,-0.0170499999076128,-0.29686251282691956,-0.48743748664855957
1779996177392495000,2.9044951171875,-0.014574999921023846,-1.3059749603271484,0.3628624975681305
1779996177418410500,2.930410400390625,-0.0193875003606081,-1.3536875247955322,-0.3628624975681305
1779996177435687400,2.9476875,-0.006049999967217445,-0.33233749866485596,0.33233749866485596
1779996177452964400,2.96496435546875,0.006187499966472387,0.8123499751091003,0.14904999732971191
1779996177478879500,2.99087939453125,0.0147124994546175,1.5368374586105347,-0.30057498812675476
1779996177496156400,3.008156494140625,0.012374999932944775,0.9785875082015991,0.4496249854564667
1779996177513433300,3.025433349609375,-0.0170499999076128,-0.24681249260902405,-0.4446749985218048
1779996177530710000,3.0427099609375,-0.010862499475479126,-1.2364000082015991,0.35791251063346863
1779996177547987000,3.059987060546875,-0.0193875003606081,-1.534500002861023,-0.29809999465942383
1779996177565264000,3.077263916015625,-0.01209999993443489,-0.91753751039505,0.10381250083446503
1779996177591179000,3.103178955078125,0.005087499972432852,0.7464874982833862,0.08799999952316284
1779996177608456000,3.1204560546875,0.00989999994635582,1.4073125123977661,-0.4166249930858612
1779996177625732900,3.13773291015625,0.01718750037252903,1.3547874689102173,0.3493874967098236
1779996177643009800,3.155009765625,-0.002337499987334013,0.4263874888420105,-0.16128750145435333
1779996177660286700,3.17228662109375,-0.01209999993443489,-0.7440124750137329,0.01223750039935112
1779996177686202000,3.1982021484375,-0.020624998956918716,-1.4966875314712524,-0.3091000020503998
1779996177703479000,3.21547900390625,-0.01209999993443489,-0.9187750220298767,0.1551000028848648
1779996177720756000,3.232755859375,0.00013749999925494194,0.1551000028848648,0.18205000460147858
1779996177746671000,3.258671142578125,0.011137500405311584,1.368262529373169,-0.33838748931884766
1779996177763948000,3.275947998046875,0.01718750037252903,1.3327875137329102,0.3348124921321869
1779996177781225000,3.293224853515625,-0.002337499987334013,0.44591251015663147,-0.19552500545978546
1779996177798502000,3.310501953125,-0.009624999947845936,-0.6927250027656555,0.08923749625682831
1779996177824417300,3.336417236328125,-0.020624998956918716,-1.4587374925613403,-0.2810499966144562
1779996177841694200,3.353694091796875,-0.01209999993443489,-0.9127249717712402,0.18328750133514404
1779996177858971100,3.37097119140625,0.00013749999925494194,0.11728750169277191,0.1013374999165535
1779996177876248000,3.388248046875,0.006324999965727329,1.0518749952316284,-0.18809999525547028
1779996177893524700,3.405524658203125,0.016087500378489494,1.4342625141143799,0.0695749968290329
1779996177910801700,3.4228017578125,0.008662499487400055,0.9601625204086304,0.07699999958276749
1779996177928078600,3.44007861328125,-0.004674999974668026,-0.11852499842643738,-0.11852499842643738
1779996177945355500,3.45735546875,-0.013337500393390656,-1.093537449836731,0.12333749979734421
1779996177971271000,3.48327099609375,-0.0193875003606081,-1.255924940109253,-0.01347499992698431
1779996177988547800,3.5005478515625,-0.004674999974668026,-0.4166249930858612,0.11852499842643738
1779996178005824800,3.51782470703125,0.007424999959766865,0.6047250032424927,-0.0672374963760376
1779996178023101700,3.535101806640625,0.01484999991953373,1.3034999370574951,-0.045237500220537186
1779996178040378600,3.552378662109375,0.011137500405311584,1.2680250406265259,0.11852499842643738
1779996178057655600,3.569655517578125,-0.0010999999940395355,0.46915000677108765,-0.08181250095367432
1779996178074932500,3.586932373046875,-0.009624999947845936,-0.6121500134468079,0.06847500056028366
1779996178092209400,3.60420947265625,-0.018149999901652336,-1.3194500207901,-0.10628750175237656
1779996178118124800,3.630124755859375,-0.009624999947845936,-0.8918250203132629,0.07081250101327896
1779996178135401700,3.647401611328125,0.0013749999925494194,0.057337500154972076,0.0012374999932944775
1779996178152678700,3.6646787109375,0.008662499487400055,0.9798250198364258,-0.03423750028014183
1779996178169955600,3.68195556640625,0.011137500405311584,1.3499749898910522,0.03423750028014183
1779996178187232500,3.699232421875,0.008662499487400055,0.9381625056266785,0.030524998903274536
1779996178204509400,3.716509521484375,-0.002337499987334013,-0.06228749826550484,-0.015812499448657036
1779996178221786400,3.733786376953125,-0.01209999993443489,-1.0067750215530396,-0.00976249948143959
1779996178239063300,3.751063232421875,-0.01691249944269657,-1.3231624364852905,-0.05252499878406525
1779996178256340000,3.768340087890625,-0.013337500393390656,-0.8918250203132629,0.018287500366568565
1779996178273617000,3.785616943359375,-0.002337499987334013,0.042762499302625656,0.0317624993622303
1779996178290893800,3.802893798828125,0.007562499959021807,0.9480624794960022,-0.030524998903274536
1779996178308170800,3.820170654296875,0.013612499460577965,1.3217874765396118,0.01223750039935112
1779996178334086100,3.846086181640625,0.002612499985843897,0.48372501134872437,-0.020762499421834946
1779996178351363000,3.863363037109375,-0.009624999947845936,-0.5461499691009521,-0.0012374999932944775
1779996178368640000,3.880639892578125,-0.01691249944269657,-1.2388750314712524,-0.032999999821186066
1779996178385917000,3.8979169921875,-0.015675000846385956,-1.1838749647140503,-0.032999999821186066
1779996178403193900,3.91519384765625,-0.007149999961256981,-0.4496249854564667,0.045237500220537186
1779996178429109200,3.941109130859375,0.007562499959021807,0.9076374769210815,-0.037812501192092896
1779996178446386200,3.95838623046875,0.012374999932944775,1.2827374935150146,0.028049999848008156
1779996178463663000,3.9756630859375,0.007562499959021807,0.9186375141143799,0.04028749838471413
1779996178489578500,4.00157861328125,-0.009624999947845936,-0.515625,0.00976249948143959
1779996178506855400,4.01885546875,-0.01691249944269657,-1.1961125135421753,-0.045237500220537186
1779996178524132400,4.03613232421875,-0.014437500387430191,-1.1558250188827515,-0.015812499448657036
1779996178541409300,4.0534091796875,-0.005912499967962503,-0.4545750021934509,0.0317624993622303
1779996178558686500,4.0706865234375,0.0038499999791383743,0.4862000048160553,0.0012374999932944775
1779996178575963400,4.08796337890625,0.011137500405311584,1.153212547302246,-0.023237500339746475
1779996178593240000,4.105239990234375,0.008662499487400055,1.1642124652862549,0.05857500061392784
1779996178610517200,4.122517333984375,0.0013749999925494194,0.4899125099182129,-0.01223750039935112
1779996178627794200,4.139794189453125,-0.007149999961256981,-0.47891250252723694,0.0037124999798834324
1779996178653709600,4.16570947265625,-0.014574999921023846,-1.231587529182434,-0.04881250113248825
1779996178670986500,4.182986572265625,-0.009624999947845936,-0.8650124669075012,0.015949999913573265
1779996178688263400,4.200263427734375,-0.0010999999940395355,-0.018424998968839645,0.018287500366568565
1779996178714178800,4.2261787109375,0.008662499487400055,1.1141624450683594,-0.018287500366568565
1779996178731456000,4.2434560546875,0.012374999932944775,1.1508749723434448,0.05004999786615372
1779996178748733000,4.26073291015625,0.0038499999791383743,0.5069624781608582,-0.002474999986588955
1779996178774648300,4.2866484375,-0.01209999993443489,-0.861299991607666,-0.00494999997317791
1779996178791925200,4.30392529296875,-0.01691249944269657,-1.2083499431610107,-0.04647500067949295
1779996178809202200,4.3212021484375,-0.01209999993443489,-0.8637750148773193,0.0085249999538064
1779996178826479000,4.33847900390625,0.00013749999925494194,-0.03423750028014183,0.0170499999076128
1779996178843756300,4.35575634765625,0.007424999959766865,0.808775007724762,-0.01223750039935112
1779996178861033200,4.373033203125,0.011137500405311584,1.193637490272522,0.0147124994546175
1779996178878310100,4.39031005859375,0.007424999959766865,0.9015874862670898,0.035475000739097595
1779996178895587000,4.407587158203125,-0.0035749999806284904,0.04399999976158142,-0.0170499999076128
1779996178912864300,4.4248642578125,-0.01209999993443489,-0.8295375108718872,-0.00494999997317791
1779996178930141200,4.44214111328125,-0.015812499448657036,-1.1753499507904053,-0.04152499884366989
1779996178947418000,4.459418212890625,-0.010862499475479126,-0.8515374660491943,0.006049999967217445
1779996178964695000,4.476695068359375,-0.002337499987334013,-0.050187498331069946,0.0170499999076128
1779996178981972000,4.493971923828125,0.006187499966472387,0.7732999920845032,-0.0085249999538064
1779996178999249000,4.511248779296875,0.011137500405311584,1.1606374979019165,0.01347499992698431
1779996179016526000,4.528526123046875,0.008662499487400055,0.888112485408783,0.03671250119805336
1779996179033803000,4.545802978515625,-0.002337499987334013,0.06228749826550484,-0.01347499992698431
1779996179059718400,4.571718505859375,-0.015675000846385956,-1.0580625534057617,-0.02681249938905239
1779996179076995300,4.588995361328125,-0.015675000846385956,-1.0825375318527222,-0.02199999988079071
1779996179094272500,4.6062724609375,-0.005912499967962503,-0.48867499828338623,0.0170499999076128
1779996179111549700,4.6235498046875,0.002612499985843897,0.3726249933242798,0.007287499960511923
1779996179128826400,4.640826416015625,0.008662499487400055,1.0176374912261963,-0.0085249999538064
1779996179146103600,4.658103515625,0.00989999994635582,1.0848749876022339,0.03904999792575836
1779996179163380700,4.675380615234375,0.002612499985843897,0.5154874920845032,0.00494999997317791
1779996179180657700,4.69265771484375,-0.005912499967962503,-0.36781248450279236,-0.007287499960511923
1779996179197934600,4.7099345703125,-0.014574999921023846,-1.0262999534606934,-0.025712499395012856
1779996179223850200,4.735850341796875,-0.01209999993443489,-0.8442500233650208,0
1779996179241127200,4.753127197265625,-0.002337499987334013,-0.08304999768733978,0.01223750039935112
1779996179267042600,4.77904248046875,0.00989999994635582,0.9944000244140625,-0.006049999967217445
1779996179284319500,4.796319580078125,0.00989999994635582,1.0714000463485718,0.035475000739097595
1779996179301596700,4.8135966796875,0.0013749999925494194,0.5142499804496765,0.00976249948143959
1779996179318873600,4.83087353515625,-0.007149999961256981,-0.35062500834465027,-0.01347499992698431
1779996179344789200,4.856789306640625,-0.013337500393390656,-1.0995874404907227,-0.035475000739097595
1779996179362066200,4.874066162109375,-0.009624999947845936,-0.8271999955177307,-0.0037124999798834324
1779996179379343400,4.89134326171875,-0.004674999974668026,-0.0929500013589859,0.018287500366568565
1779996179405258500,4.917258544921875,0.008662499487400055,0.9590625166893005,-0.0085249999538064
1779996179422535700,4.93453564453125,0.011137500405311584,1.049399971961975,0.032999999821186066
1779996179439812900,4.951812744140625,0.005087499972432852,0.5179625153541565,0.00976249948143959
1779996179457089800,4.96908984375,-0.007149999961256981,-0.32628750801086426,-0.00976249948143959
1779996179474367000,4.986366943359375,-0.015675000846385956,-0.9700624942779541,-0.02199999988079071
1779996179491644000,5.003643798828125,-0.014574999921023846,-1.0335874557495117,-0.025712499395012856
1779996179508920800,5.0209208984375,-0.007149999961256981,-0.5009124875068665,0.010999999940395355
1779996179526198000,5.038197998046875,0.0013749999925494194,0.3114374876022339,0.0085249999538064
1779996179543475000,5.055474853515625,0.008662499487400055,0.9383000135421753,-0.00494999997317791
1779996179560751900,5.072751953125,0.00989999994635582,1.031112551689148,0.0317624993622303
1779996179578028800,5.09002880859375,0.002612499985843897,0.5142499804496765,0.0085249999538064
1779996179595306000,5.107305908203125,-0.008387500420212746,-0.3115749955177307,-0.010999999940395355
1779996179612583000,5.1245830078125,-0.014574999921023846,-0.9420124888420105,-0.02199999988079071
1779996179638498300,5.150498291015625,-0.009624999947845936,-0.8075374960899353,-0.002474999986588955
1779996179655775500,5.167775390625,-0.0010999999940395355,-0.11371249705553055,0.01223750039935112
1779996179673052400,5.185052490234375,0.005087499972432852,0.6413000226020813,-0.0012374999932944775
1779996179698967800,5.2109677734375,0.007424999959766865,1.0029250383377075,0.02928750030696392
1779996179716245000,5.228244873046875,0.002612499985843897,0.5130124688148499,0.007287499960511923
1779996179733522000,5.24552197265625,-0.005912499967962503,-0.28476250171661377,-0.007287499960511923
1779996179750798800,5.262798828125,-0.01209999993443489,-0.9065374732017517,-0.020762499421834946
1779996179768076000,5.280075927734375,-0.014574999921023846,-0.9872499704360962,-0.020762499421834946
1779996179785353000,5.29735302734375,-0.008387500420212746,-0.4996750056743622,0.0085249999538064
1779996179811268400,5.323268310546875,0.005087499972432852,0.6132500171661377,0.0012374999932944775
1779996179828545300,5.340545166015625,0.00989999994635582,1.0041625499725342,0.00976249948143959
1779996179845822500,5.357822509765625,0.007424999959766865,0.8233500123023987,0.02928750030696392
1779996179863099400,5.375099365234375,-0.0010999999940395355,0.1428624987602234,-0.007287499960511923
1779996179889014800,5.401014892578125,-0.013337500393390656,-0.8784874677658081,-0.018287500366568565
1779996179906292000,5.4182919921875,-0.013337500393390656,-0.9663500189781189,-0.02199999988079071
1779996179923569000,5.43556884765625,-0.005912499967962503,-0.4984374940395355,0.006049999967217445
1779996179940846000,5.45284619140625,0.002612499985843897,0.24557499587535858,0.0085249999538064
1779996179966761500,5.478761474609375,0.008662499487400055,0.9748749732971191,0.0085249999538064
1779996179984038700,5.49603857421875,0.006324999965727329,0.808775007724762,0.028049999848008156
1779996180009954000,5.5219541015625,-0.005912499967962503,-0.24433749914169312,-0.0085249999538064
1779996180027231200,5.539231201171875,-0.01209999993443489,-0.8467249870300293,-0.018287500366568565
1779996180044508200,5.556508056640625,-0.014437500387430191,-0.9468249678611755,-0.020762499421834946
1779996180061785300,5.573785400390625,-0.008387500420212746,-0.5033875107765198,0.0037124999798834324
1779996180079062300,5.591062255859375,0.00013749999925494194,0.22591249644756317,0.00976249948143959
1779996180113616100,5.6256162109375,0.010037500411272049,0.9479249715805054,0.023237500339746475
1779996180130893300,5.642893310546875,0.002612499985843897,0.5179625153541565,0.01347499992698431
1779996180148170200,5.660170166015625,-0.005912499967962503,-0.22605000436306,-0.00976249948143959
1779996180165447200,5.677447265625,-0.011962499469518661,-0.825962483882904,-0.018287500366568565
1779996180182724000,5.69472412109375,-0.013199999928474426,-0.9297749996185303,-0.02199999988079071
1779996180200001300,5.712001220703125,-0.005912499967962503,-0.4973374903202057,0.0037124999798834324
1779996180217278200,5.7292783203125,0.002612499985843897,0.21133749186992645,0.0085249999538064
1779996180243193600,5.755193603515625,0.007562499959021807,0.9296374917030334,0.0085249999538064
1779996180260470800,5.772470703125,0.005087499972432852,0.7891125082969666,0.02681249938905239
1779996180277747700,5.789747802734375,-0.0009624999947845936,0.1746249943971634,-0.002474999986588955
1779996180303663000,5.8156630859375,-0.011962499469518661,-0.8002499938011169,-0.0170499999076128
1779996180320940300,5.832940185546875,-0.011962499469518661,-0.9150624871253967,-0.020762499421834946
1779996180338217200,5.85021728515625,-0.008387500420212746,-0.5009124875068665,0.0037124999798834324
1779996180364132600,5.876132568359375,0.0038499999791383743,0.5167250037193298,0.00494999997317791
1779996180381409800,5.893409912109375,0.007562499959021807,0.9063999652862549,0.0085249999538064
1779996180398686700,5.910686767578125,0.007562499959021807,0.7770124673843384,0.02447500079870224
1779996180424602600,5.9366025390625,-0.004674999974668026,-0.18947499990463257,-0.006049999967217445
1779996180441879600,5.953879638671875,-0.011962499469518661,-0.7757750153541565,-0.01952499896287918
1779996180459156500,5.971156494140625,-0.013199999928474426,-0.8967750072479248,-0.020762499421834946
1779996180476433400,5.988433349609375,-0.007149999961256981,-0.5009124875068665,0
1779996180493710600,6.005710693359375,0.00013749999925494194,0.17710000276565552,0.007287499960511923
1779996180510987500,6.022987548828125,0.006324999965727329,0.7488250136375427,0.002474999986588955
1779996180528264400,6.040264404296875,0.007562499959021807,0.8905875086784363,0.01952499896287918
1779996180545541600,6.057541748046875,0.0038499999791383743,0.5167250037193298,0.01223750039935112
1779996180562818600,6.074818603515625,-0.0034374999813735485,-0.17476250231266022,-0.006049999967217445
1779996180588734000,6.10073388671875,-0.013199999928474426,-0.8797249794006348,-0.02199999988079071
1779996180606011000,6.118010986328125,-0.010862499475479126,-0.7416750192642212,-0.00976249948143959
1779996180623288000,6.1352880859375,-0.004674999974668026,-0.18205000460147858,0.006049999967217445
1779996180649203500,6.161203369140625,0.006324999965727329,0.7255874872207642,0.002474999986588955
1779996180666480400,6.17848046875,0.007562499959021807,0.8746374845504761,0.020762499421834946
1779996180683757600,6.195757568359375,0.0038499999791383743,0.5167250037193298,0.01347499992698431
1779996180701034500,6.213034423828125,-0.004674999974668026,-0.15771250426769257,-0.007287499960511923
1779996180718311400,6.2303115234375,-0.011962499469518661,-0.7306749820709229,-0.015812499448657036
1779996180735588400,6.24758837890625,-0.013199999928474426,-0.8625375032424927,-0.020762499421834946
1779996180752865500,6.264865478515625,-0.007149999961256981,-0.4996750056743622,0.0012374999932944775
1779996180778781000,6.290781005859375,0.0038499999791383743,0.4544374942779541,0.00494999997317791
1779996180796057900,6.308057861328125,0.007562499959021807,0.8405374884605408,0.0085249999538064
1779996180813335000,6.3253349609375,0.006324999965727329,0.742775022983551,0.02199999988079071
1779996180839250400,6.35125048828125,-0.0034374999813735485,-0.1405249983072281,-0.0037124999798834324
1779996180856527400,6.36852734375,-0.010862499475479126,-0.7074375152587891,-0.0170499999076128
1779996180873804500,6.385804443359375,-0.011962499469518661,-0.8454874753952026,-0.018287500366568565
1779996180899720000,6.411719970703125,-0.0034374999813735485,-0.20047499239444733,0.0037124999798834324
1779996180916997000,6.4289970703125,0.005087499972432852,0.4324375092983246,0.00494999997317791
1779996180938593300,6.45059326171875,0.006324999965727329,0.8478249907493591,0.01223750039935112
1779996180964509000,6.476509033203125,0.0013749999925494194,0.3713875114917755,0.007287499960511923
1779996180981785900,6.493785888671875,-0.004674999974668026,-0.2870999872684479,-0.006049999967217445
1779996180999062800,6.511062744140625,-0.009624999947845936,-0.7636749744415283,-0.018287500366568565
1779996181016339700,6.528339599609375,-0.010862499475479126,-0.7856749892234802,-0.01223750039935112
1779996181033616600,6.54561669921875,-0.005912499967962503,-0.36162498593330383,0.0012374999932944775
1779996181050893800,6.562893798828125,0.0013749999925494194,0.26510000228881836,0.006049999967217445
1779996181068170800,6.580170654296875,0.006324999965727329,0.7415375113487244,0.00494999997317791
1779996181094086100,6.606086181640625,0.006324999965727329,0.6377249956130981,0.018287500366568565
1779996181111363300,6.62336328125,-0.0034374999813735485,0.05857500061392784,-0.0012374999932944775
1779996181128640300,6.64064013671875,-0.009624999947845936,-0.5546749830245972,-0.01347499992698431
1779996181154555600,6.6665556640625,-0.010862499475479126,-0.7734375,-0.0147124994546175
1779996181171832800,6.683832763671875,-0.004674999974668026,-0.35804998874664307,0
1779996181189110000,6.701110107421875,0.0013749999925494194,0.25533750653266907,0.006049999967217445
1779996181206387000,6.718386962890625,0.005087499972432852,0.7170624732971191,0.006049999967217445
1779996181232302600,6.744302490234375,0.0038499999791383743,0.6267250180244446,0.0147124994546175
1779996181249579500,6.76157958984375,-0.0010999999940395355,0.07081250101327896,0
1779996181266856400,6.7788564453125,-0.007149999961256981,-0.5278624892234802,-0.01347499992698431
1779996181284133600,6.796133544921875,-0.010862499475479126,-0.8014875054359436,-0.0170499999076128
1779996181301410600,6.81341064453125,-0.008387500420212746,-0.6133875250816345,-0.0085249999538064
1779996181318687500,6.8306875,-0.002199999988079071,-0.07095000147819519,0.0037124999798834324
1779996181344603000,6.856602783203125,0.006324999965727329,0.6975374817848206,0.00494999997317791
1779996181361880000,6.873880126953125,0.006324999965727329,0.7635374665260315,0.01952499896287918
1779996181379157000,6.891156982421875,0.002612499985843897,0.3823874890804291,0.007287499960511923
1779996181396434000,6.908433837890625,-0.005912499967962503,-0.23457500338554382,-0.007287499960511923
1779996181413711000,6.925711181640625,-0.01209999993443489,-0.698912501335144,-0.018287500366568565
1779996181439626500,6.95162646484375,-0.009624999947845936,-0.6048625111579895,-0.006049999967217445
1779996181456903400,6.9689033203125,-0.0010999999940395355,-0.07947500050067902,0.00494999997317791
1779996181482819000,6.994819091796875,0.005087499972432852,0.6767749786376953,0.006049999967217445
1779996181500096000,7.012095947265625,0.005087499972432852,0.7475875020027161,0.018287500366568565
1779996181517373000,7.029373046875,0.0013749999925494194,0.3811500072479248,0.007287499960511923
1779996181543288600,7.05528857421875,-0.007149999961256981,-0.4899125099182129,-0.010999999940395355
1779996181560565500,7.0725654296875,-0.009624999947845936,-0.7672500014305115,-0.018287500366568565
1779996181577842400,7.089842529296875,-0.007149999961256981,-0.598675012588501,-0.0085249999538064
1779996181595119400,7.107119384765625,-0.002337499987334013,-0.08676250278949738,0.0037124999798834324
1779996181612396300,7.124396240234375,0.0013749999925494194,0.4666749835014343,0.0085249999538064
1779996181629673500,7.141673583984375,0.006324999965727329,0.7525374889373779,0.00976249948143959
1779996181646950700,7.15895068359375,0.005087499972432852,0.607200026512146,0.0147124994546175
1779996181664227600,7.1762275390625,-0.002337499987334013,0.1013374999165535,0
1779996181681504500,7.19350439453125,-0.007149999961256981,-0.4655750095844269,-0.00976249948143959
1779996181698781700,7.21078173828125,-0.010862499475479126,-0.7452499866485596,-0.01952499896287918
1779996181716058600,7.22805859375,-0.008387500420212746,-0.5926250219345093,-0.00494999997317791
1779996181733335600,7.24533544921875,-0.0010999999940395355,-0.10147500038146973,0.0012374999932944775
1779996181759251200,7.271251220703125,0.005087499972432852,0.6340125203132629,0.007287499960511923
1779996181776528100,7.288528076171875,0.006324999965727329,0.7182999849319458,0.0170499999076128
1779996181793805000,7.30580517578125,0.002612499985843897,0.3871999979019165,0.010999999940395355
1779996181811082200,7.323082275390625,-0.0034374999813735485,-0.18700000643730164,-0.00494999997317791
1779996181828359200,7.340359130859375,-0.008387500420212746,-0.6377249956130981,-0.0147124994546175
1779996181845636000,7.357635986328125,-0.009624999947845936,-0.7110124826431274,-0.010999999940395355
1779996181862913000,7.3749130859375,-0.007149999961256981,-0.37757501006126404,-0.0037124999798834324
1779996181880190000,7.39218994140625,-0.0010999999940395355,0.16733749210834503,0.007287499960511923
1779996181897467100,7.409467041015625,0.005087499972432852,0.6182000041007996,0.007287499960511923
1779996181914744000,7.426744140625,0.006324999965727329,0.7134875059127808,0.015949999913573265
1779996181932021000,7.44402099609375,0.002612499985843897,0.3957250118255615,0.00976249948143959
1779996181949298000,7.4612978515625,-0.004674999974668026,-0.1685750037431717,-0.0037124999798834324
1779996181966575000,7.4785751953125,-0.010862499475479126,-0.6231499910354614,-0.015812499448657036
1779996181983852000,7.49585205078125,-0.010862499475479126,-0.7037249803543091,-0.01223750039935112
1779996182001129000,7.51312890625,-0.007149999961256981,-0.3788124918937683,-0.0037124999798834324
1779996182018406000,7.530406005859375,0.00013749999925494194,0.16005000472068787,0.006049999967217445
1779996182035682800,7.547682861328125,0.005087499972432852,0.603487491607666,0.006049999967217445
1779996182052960000,7.5649599609375,0.006187499966472387,0.7012500166893005,0.01347499992698431
1779996182070237000,7.58223681640625,0.0013749999925494194,0.39338749647140503,0.007287499960511923
1779996182087513900,7.599513916015625,-0.005912499967962503,-0.16005000472068787,-0.006049999967217445
1779996182104790800,7.616790771484375,-0.009624999947845936,-0.6059625148773193,-0.015812499448657036
1779996182122067700,7.634067626953125,-0.008387500420212746,-0.6841999888420105,-0.01223750039935112
1779996182139345000,7.651344970703125,-0.004674999974668026,-0.3726249933242798,-0.0037124999798834324
1779996182156621800,7.668621826171875,-0.0010999999940395355,0.14657500386238098,0.006049999967217445
1779996182173898800,7.685898681640625,0.0038499999791383743,0.5802500247955322,0.007287499960511923
1779996182199814400,7.711814453125,0.005087499972432852,0.5839625000953674,0.015949999913573265
1779996182217091300,7.72909130859375,0.00013749999925494194,0.13557499647140503,0.0012374999932944775
1779996182234368500,7.746368408203125,-0.007149999961256981,-0.3946250081062317,-0.00976249948143959
1779996182251645400,7.7636455078125,-0.009624999947845936,-0.681725025177002,-0.015812499448657036
1779996182268922400,7.78092236328125,-0.009624999947845936,-0.5741999745368958,-0.007287499960511923
1779996182286199600,7.798199462890625,-0.0035749999806284904,-0.13571250438690186,0
1779996182303476500,7.8154765625,0.002612499985843897,0.37991249561309814,0.007287499960511923
1779996182320753400,7.83275341796875,0.005087499972432852,0.6755374670028687,0.00976249948143959
1779996182346668800,7.858668701171875,0.0038499999791383743,0.39338749647140503,0.0085249999538064
1779996182363946000,7.875946044921875,-0.0035749999806284904,-0.13323749601840973,-0.002474999986588955
1779996182381223000,7.893222900390625,-0.009624999947845936,-0.5729625225067139,-0.0147124994546175
1779996182398499800,7.910499755859375,-0.009624999947845936,-0.6671500205993652,-0.01223750039935112
1779996182424415200,7.936415283203125,-0.0035749999806284904,-0.13805000483989716,0
1779996182441692400,7.9536923828125,0.002612499985843897,0.3689124882221222,0.006049999967217445
1779996182458969300,7.97096923828125,0.005087499972432852,0.6609625220298767,0.00976249948143959
1779996182484884700,7.996884765625,0.002612499985843897,0.3909125030040741,0.00976249948143959
1779996182502162000,8.014161865234374,-0.004674999974668026,-0.12347500026226044,-0.002474999986588955
1779996182519438600,8.0314384765625,-0.009624999947845936,-0.5583875179290771,-0.01347499992698431
1779996182545354000,8.05735400390625,-0.008387500420212746,-0.5583875179290771,-0.007287499960511923
1779996182562631200,8.074631103515625,-0.0034374999813735485,-0.1467124968767166,-0.0012374999932944775
1779996182579908000,8.091908203125,0.0013749999925494194,0.3493874967098236,0.007287499960511923
1779996182605823700,8.11782373046875,0.005087499972432852,0.6498249769210815,0.01223750039935112
1779996182623100700,8.1351005859375,0.002612499985843897,0.39214998483657837,0.00976249948143959
1779996182640377600,8.152377685546876,-0.0034374999813735485,-0.10395000129938126,-0.0037124999798834324
1779996182657654500,8.169654541015625,-0.008387500420212746,-0.5351499915122986,-0.01347499992698431
1779996182674931500,8.186931396484376,-0.009624999947845936,-0.6414374709129333,-0.01347499992698431
1779996182692208600,8.204208740234375,-0.005912499967962503,-0.38005000352859497,-0.0037124999798834324
1779996182709485600,8.221485595703125,-0.0010999999940395355,0.09638749808073044,0.0037124999798834324
1779996182735401000,8.24740087890625,0.005087499972432852,0.6254875063896179,0.0085249999538064
1779996182752678000,8.264677978515625,0.005087499972432852,0.559487521648407,0.01223750039935112
1779996182769954800,8.281954833984376,0.00013749999925494194,0.1611499935388565,0.002474999986588955
1779996182787231700,8.299231689453125,-0.007149999961256981,-0.33233749866485596,-0.0085249999538064
1779996182804509000,8.316509033203126,-0.010862499475479126,-0.6206749677658081,-0.0147124994546175
1779996182821786000,8.3337861328125,-0.008387500420212746,-0.5486249923706055,-0.0085249999538064
1779996182839063000,8.35106298828125,-0.0034374999813735485,-0.16128750145435333,-0.0012374999932944775
1779996182856340000,8.368340087890624,0.002612499985843897,0.3176249861717224,0.007287499960511923
1779996182873617200,8.3856171875,0.005087499972432852,0.6107749938964844,0.0085249999538064
1779996182890894000,8.40289404296875,0.0038499999791383743,0.550962507724762,0.01347499992698431
1779996182908171000,8.4201708984375,-0.0010999999940395355,0.16733749210834503,0.002474999986588955
1779996182925448000,8.437447998046874,-0.004674999974668026,-0.3152875006198883,-0.007287499960511923
1779996182942724900,8.454724853515625,-0.008387500420212746,-0.6023874878883362,-0.0147124994546175
1779996182960001800,8.472001708984376,-0.008387500420212746,-0.5436750054359436,-0.007287499960511923
1779996182977279000,8.489279052734375,-0.004674999974668026,-0.17352500557899475,-0.0012374999932944775
1779996182994556000,8.506555908203126,0.00013749999925494194,0.29686251282691956,0.006049999967217445
1779996183011832800,8.523832763671875,0.005087499972432852,0.5972999930381775,0.007287499960511923
1779996183029109800,8.54110986328125,0.006324999965727329,0.550962507724762,0.01347499992698431
1779996183046386700,8.55838671875,0.0015124999918043613,0.17957499623298645,0.00494999997317791
1779996183063663900,8.575663818359375,-0.005912499967962503,-0.3018124997615814,-0.006049999967217445
1779996183080940800,8.59294091796875,-0.008387500420212746,-0.5938624739646912,-0.0147124994546175
1779996183098217500,8.610217529296875,-0.007149999961256981,-0.5425750017166138,-0.0085249999538064
1779996183124132900,8.6361328125,0.0002749999985098839,0.06462500244379044,0.0037124999798834324
1779996183141410000,8.65341015625,0.0038499999791383743,0.4727250039577484,0.006049999967217445
1779996183158687200,8.670687255859375,0.005087499972432852,0.612012505531311,0.010999999940395355
1779996183175964200,8.687964111328125,0.0015124999918043613,0.39943748712539673,0.00976249948143959
1779996183201879300,8.71387939453125,-0.005912499967962503,-0.28833749890327454,-0.0085249999538064
1779996183219156500,8.731156494140626,-0.008387500420212746,-0.5816249847412109,-0.01347499992698431
1779996183236433400,8.748433349609375,-0.007149999961256981,-0.5388625264167786,-0.0085249999538064
1779996183262348800,8.774348876953125,-0.0009624999947845936,0.05004999786615372,0.00494999997317791
1779996183279626000,8.7916259765625,0.002612499985843897,0.45801249146461487,0.006049999967217445
1779996183296903000,8.80890283203125,0.005087499972432852,0.6047250032424927,0.010999999940395355
1779996183314179800,8.826179931640626,0.002612499985843897,0.4006749987602234,0.0085249999538064
1779996183331456800,8.843456787109375,-0.002199999988079071,-0.045237500220537186,-0.0012374999932944775
1779996183348733700,8.860733642578126,-0.005912499967962503,-0.4618625044822693,-0.01347499992698431
1779996183366011000,8.878010986328125,-0.009487500414252281,-0.6011499762535095,-0.010999999940395355
1779996183391926300,8.90392626953125,-0.004674999974668026,-0.18947499990463257,-0.002474999986588955
1779996183409203200,8.921203125,0.002612499985843897,0.26496249437332153,0.006049999967217445
1779996183426480000,8.938480224609375,0.005087499972432852,0.564300000667572,0.007287499960511923
1779996183452395500,8.9643955078125,0.0015124999918043613,0.4006749987602234,0.0085249999538064
1779996183469672400,8.98167236328125,-0.002199999988079071,-0.029424998909235,-0.0037124999798834324
1779996183486949600,8.99894970703125,-0.005912499967962503,-0.44110000133514404,-0.00976249948143959
1779996183504226600,9.0162265625,-0.007149999961256981,-0.5889124870300293,-0.010999999940395355
1779996183521503500,9.03350341796875,-0.007149999961256981,-0.39352500438690186,-0.0037124999798834324
1779996183538780400,9.050780517578126,-0.002199999988079071,0.023099999874830246,0.002474999986588955
1779996183556057300,9.068057373046875,0.002612499985843897,0.42625001072883606,0.006049999967217445
1779996183573334300,9.085334228515626,0.005087499972432852,0.5839625000953674,0.00976249948143959
1779996183590611500,9.102611572265625,0.002612499985843897,0.40424999594688416,0.00976249948143959
1779996183607888400,9.119888427734375,-0.0009624999947845936,-0.0147124994546175,-0.0012374999932944775
1779996183633803800,9.1458037109375,-0.008387500420212746,-0.5449125170707703,-0.01223750039935112
1779996183651080700,9.163080810546875,-0.008387500420212746,-0.5278624892234802,-0.00976249948143959
1779996183668357600,9.180357666015626,-0.0034374999813735485,-0.20652499794960022,-0.002474999986588955
1779996183694273000,9.20627294921875,0.002612499985843897,0.41401249170303345,0.007287499960511923
1779996183711550200,9.22355029296875,0.0038499999791383743,0.5740625262260437,0.010999999940395355
1779996183728827100,9.2408271484375,0.0015124999918043613,0.4031499922275543,0.00976249948143959
1779996183754742500,9.266742431640624,-0.004674999974668026,-0.2297624945640564,-0.0037124999798834324
1779996183772019500,9.28401953125,-0.008387500420212746,-0.5315750241279602,-0.010999999940395355
1779996183789296400,9.30129638671875,-0.007149999961256981,-0.524150013923645,-0.0085249999538064
1779996183815211800,9.327211669921875,-0.0034374999813735485,0.0035749999806284904,0.0012374999932944775
1779996183832489000,9.344489013671875,0.0015124999918043613,0.4006749987602234,0.007287499960511923
1779996183849766000,9.361765869140624,0.0038499999791383743,0.5680124759674072,0.00976249948143959
1779996183867042800,9.379042724609375,0.0038499999791383743,0.40796250104904175,0.00976249948143959
1779996183884319700,9.39631982421875,-0.0009624999947845936,0.007287499960511923,0
1779996183901596700,9.4135966796875,-0.004674999974668026,-0.39957499504089355,-0.00976249948143959
1779996183918873600,9.43087353515625,-0.009487500414252281,-0.5669124722480774,-0.010999999940395355
1779996183936150500,9.448150634765625,-0.008387500420212746,-0.4045250117778778,-0.006049999967217445
1779996183953427500,9.465427490234376,-0.002199999988079071,-0.00989999994635582,0.002474999986588955
1779996183979342800,9.4913427734375,0.006324999965727329,0.5130124688148499,0.007287499960511923
1779996183996619800,9.508619873046875,0.0038499999791383743,0.5240125060081482,0.01223750039935112
1779996184013897000,9.52589697265625,-0.002199999988079071,0.22714999318122864,0.0037124999798834324
1779996184031174000,9.543173828125,-0.005912499967962503,-0.20528750121593475,-0.007287499960511923
1779996184048450800,9.560450927734376,-0.007149999961256981,-0.5021499991416931,-0.010999999940395355
1779996184065727700,9.577727783203125,-0.007149999961256981,-0.5058624744415283,-0.0085249999538064
1779996184083004700,9.595004638671876,-0.0034374999813735485,-0.22481249272823334,-0.0037124999798834324
1779996184100281600,9.612281494140625,0.00013749999925494194,0.1868624985218048,0.0037124999798834324
1779996184117558500,9.62955859375,0.002612499985843897,0.48977500200271606,0.006049999967217445
1779996184134835700,9.646835693359375,0.002612499985843897,0.5094375014305115,0.010999999940395355
1779996184152112600,9.664112548828125,0.00013749999925494194,0.23567499220371246,0.00494999997317791
1779996184169389600,9.6813896484375,-0.004674999974668026,-0.18205000460147858,-0.004812499973922968
1779996184186666800,9.698666748046875,-0.007149999961256981,-0.48138749599456787,-0.010999999940395355
1779996184203943400,9.715943359375,-0.007149999961256981,-0.5009124875068665,-0.007287499960511923
1779996184221220600,9.733220703125,-0.004674999974668026,-0.23223750293254852,-0.002474999986588955
1779996184238497500,9.75049755859375,0.00013749999925494194,0.1685750037431717,0.00494999997317791
1779996184255774500,9.7677744140625,0.002612499985843897,0.4702500104904175,0.0085249999538064
1779996184273051400,9.785051513671876,0.0038499999791383743,0.5020124912261963,0.010999999940395355
1779996184290328300,9.802328369140625,0.00013749999925494194,0.24062499403953552,0.00494999997317791
1779996184307605200,9.819605224609376,-0.004674999974668026,-0.1699499934911728,-0.004812499973922968
1779996184324882200,9.836882080078125,-0.008387500420212746,-0.4703874886035919,-0.01223750039935112
1779996184350797600,9.862797607421875,-0.004674999974668026,-0.39352500438690186,-0.007287499960511923
1779996184368074500,9.880074462890626,-0.002199999988079071,-0.03671250119805336,0.0012374999932944775
1779996184393990000,9.905989990234374,0.002612499985843897,0.45925000309944153,0.006049999967217445
1779996184411266800,9.923266845703125,0.005087499972432852,0.49472498893737793,0.00976249948143959
1779996184428543700,9.940543701171874,0.0013749999925494194,0.2441999912261963,0.00494999997317791
1779996184454459100,9.966459228515625,-0.005912499967962503,-0.3335750102996826,-0.007287499960511923
1779996184471736000,9.983736083984375,-0.008387500420212746,-0.515625,-0.01223750039935112
1779996184489013000,10.001012939453124,-0.004674999974668026,-0.38981249928474426,-0.007287499960511923
1779996184514928400,10.026928466796875,0.0013749999925494194,0.15015000104904175,0.00494999997317791
1779996184532205300,10.044205322265626,0.0038499999791383743,0.4446749985218048,0.006049999967217445
1779996184549482200,10.061482177734375,0.002612499985843897,0.48124998807907104,0.0085249999538064
1779996184566759400,10.078759521484375,-0.0010999999940395355,0.24186250567436218,0.0037124999798834324
1779996184584036000,10.0960361328125,-0.0034374999813735485,-0.14300000667572021,-0.002474999986588955
1779996184601313300,10.113313232421875,-0.007149999961256981,-0.4361499845981598,-0.010999999940395355
1779996184618590200,10.130590087890624,-0.007149999961256981,-0.47657498717308044,-0.007287499960511923
1779996184644505600,10.156505615234375,-0.0034374999813735485,-0.057475000619888306,-0.0012374999932944775
1779996184661782500,10.173782470703125,0.0013749999925494194,0.30291250348091125,0.007287499960511923
1779996184679059500,10.1910595703125,0.0038499999791383743,0.48977500200271606,0.007287499960511923
1779996184704974800,10.216974853515625,0.0013749999925494194,0.24914999306201935,0.006049999967217445
1779996184722251800,10.234251708984376,-0.0034374999813735485,-0.12952500581741333,-0.0037124999798834324
1779996184739528700,10.25152880859375,-0.007149999961256981,-0.4263874888420105,-0.010999999940395355
1779996184756805600,10.2688056640625,-0.008387500420212746,-0.4716250002384186,-0.0085249999538064
1779996184774082600,10.28608251953125,-0.0034374999813735485,-0.24199999868869781,-0.0037124999798834324
1779996184791359500,10.303359375,0.00013749999925494194,0.12581250071525574,0.0037124999798834324
1779996184808636400,10.320636474609374,0.0013749999925494194,0.41772499680519104,0.006049999967217445
1779996184825913600,10.33791357421875,0.0013749999925494194,0.4702500104904175,0.0085249999538064
1779996184843190500,10.3551904296875,0.00013749999925494194,0.24914999306201935,0.00494999997317791
1779996184860467200,10.37246728515625,-0.0034374999813735485,-0.11976250261068344,-0.002474999986588955
1779996184877744400,10.389744384765624,-0.005912499967962503,-0.4118124842643738,-0.00976249948143959
1779996184895021300,10.407021240234375,-0.008387500420212746,-0.46309998631477356,-0.0085249999538064
1779996184912298000,10.424298095703126,-0.005912499967962503,-0.24681249260902405,-0.002474999986588955
1779996184929575200,10.4415751953125,-0.002337499987334013,0.11110000312328339,0.002474999986588955
1779996184946852000,10.45885205078125,0.0038499999791383743,0.4067249894142151,0.007287499960511923
1779996184964128800,10.476128662109375,0.005087499972432852,0.46543750166893005,0.0085249999538064
1779996184981405700,10.49340576171875,0.0013749999925494194,0.2516250014305115,0.006049999967217445
1779996184998683000,10.510682861328124,-0.002337499987334013,-0.10999999940395355,-0.002474999986588955
1779996185015959600,10.52795947265625,-0.008387500420212746,-0.4020499885082245,-0.0085249999538064
1779996185033236500,10.545236572265624,-0.009624999947845936,-0.45938751101493835,-0.006049999967217445
1779996185050513400,10.562513427734375,-0.005912499967962503,-0.24928750097751617,-0.006049999967217445
1779996185067790600,10.57979052734375,0.00013749999925494194,0.1050499975681305,0.007287499960511923
1779996185085067500,10.597067626953125,0.002612499985843897,0.39338749647140503,0.0037124999798834324
1779996185102344400,10.614344482421876,0.0038499999791383743,0.45567500591278076,0.010999999940395355
1779996185119621400,10.631621337890625,0.0013749999925494194,0.2503874897956848,0.002474999986588955
1779996185145536800,10.657536865234375,-0.005912499967962503,-0.2639999985694885,-0.004812499973922968
1779996185162813700,10.674813720703124,-0.005912499967962503,-0.45086249709129333,-0.010999999940395355
1779996185180090600,10.692090576171875,-0.005912499967962503,-0.37386250495910645,-0.004812499973922968
1779996185197367600,10.709367431640626,-0.0010999999940395355,-0.08442500233650208,0
1779996185214644500,10.72664453125,0.0013749999925494194,0.25286251306533813,0.00494999997317791
1779996185231921400,10.74392138671875,0.0013749999925494194,0.4422000050544739,0.00976249948143959
1779996185249198300,10.7611982421875,0.0013749999925494194,0.3749625086784363,0.0085249999538064
1779996185275113700,10.78711376953125,-0.002337499987334013,-0.08676250278949738,-0.0012374999932944775
1779996185292390700,10.804390625,-0.005912499967962503,-0.3702875077724457,-0.0085249999538064
1779996185309667600,10.82166748046875,-0.008387500420212746,-0.4386250078678131,-0.006049999967217445
1779996185326944500,10.838944580078126,-0.0034374999813735485,-0.25423750281333923,-0.006049999967217445
1779996185344221400,10.856221435546875,-0.0010999999940395355,0.08057499676942825,0.0037124999798834324
1779996185361498000,10.873498046875,0.002612499985843897,0.3639625012874603,0.007287499960511923
1779996185378775000,10.890775146484375,0.002612499985843897,0.4372499883174896,0.007287499960511923
1779996185396052000,10.908052001953125,0.002612499985843897,0.25533750653266907,0.00494999997317791
1779996185413329000,10.925328857421874,-0.002337499987334013,-0.07342500239610672,-0.0037124999798834324
1779996185430605800,10.942605712890625,-0.007149999961256981,-0.35804998874664307,-0.006049999967217445
1779996185447882800,10.9598828125,-0.008387500420212746,-0.43133750557899475,-0.00976249948143959
1779996185465159700,10.97715966796875,-0.004674999974668026,-0.2529999911785126,-0.0012374999932944775
1779996185482436600,10.9944365234375,-0.0010999999940395355,0.0695749968290329,0.0012374999932944775
1779996185508352000,11.02035205078125,0.0038499999791383743,0.4189625084400177,0.0085249999538064
1779996185525629000,11.03762890625,0.002612499985843897,0.3713875114917755,0.007287499960511923
1779996185542905900,11.05490576171875,-0.002199999988079071,0.10257499665021896,0.0012374999932944775
1779996185560182800,11.072182861328125,-0.004674999974668026,-0.22357499599456787,-0.004812499973922968
1779996185577459700,11.089459716796876,-0.007149999961256981,-0.4166249930858612,-0.007287499960511923
1779996185594736600,11.106736572265625,-0.007149999961256981,-0.3653374910354614,-0.007287499960511923
1779996185612013600,11.124013671875,-0.0034374999813735485,-0.10395000129938126,-0.0012374999932944775
1779996185637929000,11.149928955078124,0.002612499985843897,0.34072500467300415,0.007287499960511923
1779996185655206000,11.167205810546875,0.0038499999791383743,0.4226749837398529,0.007287499960511923
1779996185672482800,11.18448291015625,0.0013749999925494194,0.2576749920845032,0.006049999967217445
1779996185698398200,11.210398193359374,-0.004674999974668026,-0.21381250023841858,-0.006049999967217445
1779996185715675100,11.227675048828125,-0.007149999961256981,-0.4068624973297119,-0.0085249999538064
1779996185732952000,11.2449521484375,-0.004674999974668026,-0.3592875003814697,-0.007287499960511923
1779996185750228700,11.262228759765625,-0.0034374999813735485,-0.10642500221729279,-0.0012374999932944775
1779996185767506000,11.279505859375,0.00013749999925494194,0.20391249656677246,0.0037124999798834324
1779996185784782800,11.296782958984375,0.0013749999925494194,0.39820000529289246,0.007287499960511923
1779996185802059500,11.3140595703125,0.002612499985843897,0.3614875078201294,0.0085249999538064
1779996185819336400,11.33133642578125,-0.0010999999940395355,0.11604999750852585,0.0012374999932944775
1779996185836613400,11.34861328125,-0.004674999974668026,-0.20047499239444733,-0.004812499973922968
1779996185853890300,11.365890380859375,-0.007149999961256981,-0.3971000015735626,-0.0085249999538064
1779996185879805700,11.3918056640625,-0.0034374999813735485,-0.25657498836517334,-0.002474999986588955
1779996185897082600,11.40908251953125,0.00013749999925494194,0.04028749838471413,0.002474999986588955
1779996185914359600,11.426359619140625,0.0013749999925494194,0.31267499923706055,0.006049999967217445
1779996185940274700,11.452274658203125,0.00013749999925494194,0.35667499899864197,0.006049999967217445
1779996185957551600,11.469551513671876,-0.0010999999940395355,0.12333749979734421,0.0037124999798834324
1779996185974828500,11.48682861328125,-0.0034374999813735485,-0.1845249980688095,-0.004812499973922968
1779996186000744000,11.512743896484375,-0.005912499967962503,-0.3971000015735626,-0.006049999967217445
1779996186018020900,11.530020751953124,-0.004674999974668026,-0.2578125,-0.0037124999798834324
1779996186035297500,11.547297607421875,-0.002199999988079071,0.02928750030696392,0
1779996186052574500,11.564574462890626,0.0013749999925494194,0.3016749918460846,0.006049999967217445
1779996186069851400,11.581851318359375,0.002612499985843897,0.4006749987602234,0.007287499960511923
1779996186087128300,11.59912841796875,0.0013749999925494194,0.2626250088214874,0.007287499960511923
1779996186104405200,11.6164052734375,-0.002199999988079071,-0.030662499368190765,-0.002474999986588955
1779996186121682200,11.63368212890625,-0.005912499967962503,-0.30057498812675476,-0.006049999967217445
1779996186138959000,11.650958984375,-0.005912499967962503,-0.3922874927520752,-0.007287499960511923
1779996186156236000,11.668236083984375,-0.005912499967962503,-0.2578125,-0.0037124999798834324
1779996186173513000,11.685512939453124,-0.002199999988079071,0.023099999874830246,0
1779996186190790000,11.702789794921875,0.0013749999925494194,0.29315000772476196,0.007287499960511923
1779996186208066800,11.72006689453125,0.0038499999791383743,0.39214998483657837,0.007287499960511923
1779996186233982200,11.745982177734374,-0.0010999999940395355,0.12815000116825104,0.0037124999798834324
1779996186251259000,11.7632587890625,-0.005912499967962503,-0.1722874939441681,-0.006049999967217445
1779996186268535800,11.780535888671874,-0.005912499967962503,-0.3653374910354614,-0.0085249999538064
1779996186285812700,11.797812744140625,-0.004674999974668026,-0.34209999442100525,-0.004812499973922968
1779996186303089700,11.815089599609376,-0.002199999988079071,-0.1247124969959259,-0.0012374999932944775
1779996186320366600,11.83236669921875,-0.0010999999940395355,0.15991249680519104,0.0037124999798834324
1779996186337643500,11.8496435546875,0.00013749999925494194,0.3517250120639801,0.0037124999798834324
1779996186354920400,11.86692041015625,0.0013749999925494194,0.3431999981403351,0.007287499960511923
1779996186372197400,11.884197265625,0.00013749999925494194,0.1368124932050705,0.002474999986588955
1779996186389474300,11.901474365234375,-0.002199999988079071,-0.15028749406337738,-0.002474999986588955
1779996186406751200,11.918751220703125,-0.005912499967962503,-0.34952500462532043,-0.007287499960511923
1779996186424028000,11.93602783203125,-0.005912499967962503,-0.3433375060558319,-0.007287499960511923
1779996186441304800,11.953304931640625,-0.004674999974668026,-0.13695000112056732,0
1779996186458581800,11.970581787109374,0.00013749999925494194,0.14533749222755432,0.0012374999932944775
1779996186484497200,11.9964970703125,0.002612499985843897,0.37248748540878296,0.0085249999538064
1779996186501773800,12.01377392578125,0.002612499985843897,0.26138749718666077,0.006049999967217445
1779996186519050800,12.03105078125,-0.0034374999813735485,-0.0037124999798834324,-0.0012374999932944775
1779996186536327700,12.04832763671875,-0.007149999961256981,-0.26881250739097595,-0.006049999967217445
1779996186553604600,12.0656044921875,-0.007149999961256981,-0.3702875077724457,-0.0085249999538064
1779996186570881500,12.082881591796875,-0.004812499973922968,-0.25533750653266907,-0.0012374999932944775
1779996186588158500,12.100158447265626,-0.0010999999940395355,0.0035749999806284904,0
1779996186614073600,12.126073486328124,0.00013749999925494194,0.33467498421669006,0.006049999967217445
1779996186631350500,12.1433505859375,0.00013749999925494194,0.3334375023841858,0.006049999967217445
1779996186648627500,12.16062744140625,0.00013749999925494194,0.1428624987602234,0.0012374999932944775
1779996186683181300,12.195181396484376,-0.005912499967962503,-0.3310999870300293,-0.0085249999538064
1779996186700458200,12.212458251953125,-0.005912499967962503,-0.33605000376701355,-0.004812499973922968
1779996186717735200,12.229735107421876,-0.0035749999806284904,-0.14423750340938568,-0.0037124999798834324
1779996186735011800,12.24701171875,0.00013749999925494194,0.13062499463558197,0.00494999997317791
1779996186752288800,12.264288818359375,0.002612499985843897,0.33096250891685486,0.007287499960511923
1779996186769565700,12.281565673828124,0.0013749999925494194,0.3359124958515167,0.007287499960511923
1779996186786842400,12.29884228515625,0.00013749999925494194,0.14533749222755432,0.00494999997317791
1779996186804119300,12.316119384765624,-0.0035749999806284904,-0.12952500581741333,-0.006049999967217445
1779996186821396200,12.333396240234375,-0.005912499967962503,-0.3250499963760376,-0.006049999967217445
1779996186838673000,12.3506728515625,-0.005912499967962503,-0.329862505197525,-0.006049999967217445
1779996186864588300,12.37658837890625,-0.002337499987334013,-0.00976249948143959,0.002474999986588955
1779996186881865200,12.393865234375,0.0013749999925494194,0.24062499403953552,0.002474999986588955
1779996186899142100,12.41114208984375,0.002612499985843897,0.3529624938964844,0.007287499960511923
1779996186925057500,12.4370576171875,0.00013749999925494194,0.14781250059604645,0.002474999986588955
1779996186942334500,12.45433447265625,-0.004812499973922968,-0.12347500026226044,-0.002474999986588955
1779996186959611400,12.471611328125,-0.007149999961256981,-0.31652501225471497,-0.0085249999538064
1779996186985526500,12.497526611328125,-0.004812499973922968,-0.2529999911785126,-0.0037124999798834324
1779996187002803500,12.514803466796875,-0.0010999999940395355,-0.01223750039935112,0
1779996187020080400,12.532080322265625,0.0013749999925494194,0.2320999950170517,0.0037124999798834324
1779996187045995800,12.557995849609375,0.0013749999925494194,0.32491248846054077,0.007287499960511923
1779996187063272700,12.575272705078126,-0.0010999999940395355,0.14781250059604645,0.002474999986588955
1779996187080549400,12.59254931640625,-0.0034374999813735485,-0.11728750169277191,-0.002474999986588955
1779996187097826300,12.609826416015625,-0.005912499967962503,-0.31033748388290405,-0.006049999967217445
1779996187115103200,12.627103271484375,-0.005912499967962503,-0.32257500290870667,-0.004812499973922968
1779996187132380200,12.644380126953125,-0.0034374999813735485,-0.14794999361038208,-0.0012374999932944775
1779996187149657000,12.661656982421874,0.00013749999925494194,0.11110000312328339,0.002474999986588955
1779996187166934000,12.67893408203125,0.0013749999925494194,0.3041499853134155,0.007287499960511923
1779996187184210700,12.696210693359374,0.0013749999925494194,0.32120001316070557,0.00494999997317791
1779996187210126000,12.7221259765625,-0.0010999999940395355,0.02433750033378601,-0.0012374999932944775
1779996187227403000,12.739403076171875,-0.005912499967962503,-0.2199999988079071,-0.007287499960511923
1779996187244679700,12.7566796875,-0.005912499967962503,-0.3335750102996826,-0.004812499973922968
1779996187261956600,12.77395654296875,-0.004674999974668026,-0.25052499771118164,-0.006049999967217445
1779996187279233500,12.791233642578124,-0.002337499987334013,-0.02447500079870224,0.002474999986588955
1779996187296510200,12.80851025390625,0.00013749999925494194,0.21615000069141388,0.002474999986588955
1779996187322425600,12.834425537109375,0.002612499985843897,0.3151499927043915,0.0085249999538064
1779996187339702500,12.85170263671875,0.00013749999925494194,0.1551000028848648,0.002474999986588955
1779996187356979500,12.8689794921875,-0.0034374999813735485,-0.09776250272989273,-0.0012374999932944775
1779996187374256400,12.88625634765625,-0.005912499967962503,-0.29081249237060547,-0.006049999967217445
1779996187391533300,12.903533203125,-0.005912499967962503,-0.3152875006198883,-0.006049999967217445
1779996187408810000,12.92081005859375,-0.0034374999813735485,-0.1527625024318695,-0.0012374999932944775
1779996187426087000,12.9380869140625,-0.0010999999940395355,0.09404999762773514,0.0012374999932944775
1779996187443363600,12.955363525390625,0.0013749999925494194,0.2870999872684479,0.006049999967217445
1779996187460640500,12.972640625,0.0013749999925494194,0.31267499923706055,0.00494999997317791
1779996187477917400,12.98991748046875,0.00013749999925494194,0.15633749961853027,0.0037124999798834324
1779996187495194400,13.0071943359375,-0.0034374999813735485,-0.09171249717473984,-0.002474999986588955
1779996187512471000,13.024470947265625,-0.004674999974668026,-0.2835249900817871,-0.006049999967217445
1779996187529748000,13.041748046875,-0.004674999974668026,-0.3067624866962433,-0.007287499960511923
1779996187555663400,13.067663330078124,-0.002199999988079071,-0.035475000739097595,0.002474999986588955
1779996187572940300,13.084940185546875,-0.0010999999940395355,0.1966249942779541,0.0037124999798834324
1779996187598855400,13.11085546875,0.00013749999925494194,0.3053874969482422,0.0037124999798834324
1779996187616132400,13.12813232421875,0.00013749999925494194,0.1588124930858612,0.002474999986588955
1779996187633409300,13.1454091796875,-0.002199999988079071,-0.08318749815225601,-0.002474999986588955
1779996187650686200,13.162686279296874,-0.004674999974668026,-0.2737624943256378,-0.006049999967217445
1779996187667963000,13.179962890625,-0.005912499967962503,-0.3018124997615814,-0.004812499973922968
1779996187685240000,13.197239990234374,-0.004674999974668026,-0.15895000100135803,-0.002474999986588955
1779996187702516700,13.214516845703125,-0.0010999999940395355,0.07809999585151672,0.002474999986588955
1779996187719793700,13.231793701171876,0.0013749999925494194,0.2662000060081482,0.007287499960511923
1779996187737070600,13.249070556640625,0.002612499985843897,0.3004375100135803,0.00494999997317791
1779996187754347500,13.266347412109376,-0.0010999999940395355,0.1588124930858612,0.0037124999798834324
1779996187780262700,13.2922626953125,-0.004674999974668026,-0.18328750133514404,-0.004812499973922968
1779996187797539600,13.30953955078125,-0.005912499967962503,-0.3030500113964081,-0.006049999967217445
1779996187814816500,13.32681640625,-0.004674999974668026,-0.24681249260902405,-0.002474999986588955
1779996187840731600,13.352731689453124,-0.0010999999940395355,0.06833750009536743,0.002474999986588955
1779996187858008600,13.370008544921875,0.00013749999925494194,0.2564375102519989,0.0037124999798834324
1779996187875285500,13.387285400390626,0.0013749999925494194,0.29686251282691956,0.00494999997317791
1779996187892562400,13.4045625,-0.0010999999940395355,0.16609999537467957,0.0037124999798834324
1779996187909839400,13.42183935546875,-0.0034374999813735485,-0.062424998730421066,-0.002474999986588955
1779996187927116000,13.439115966796875,-0.004674999974668026,-0.2554749846458435,-0.006049999967217445
1779996187944393000,13.45639306640625,-0.004674999974668026,-0.2957625091075897,-0.007287499960511923
1779996187961670000,13.473669921875,-0.004674999974668026,-0.16376249492168427,-0.002474999986588955
1779996187978946600,13.490946533203125,-0.002199999988079071,0.06228749826550484,0.0012374999932944775
1779996188004862000,13.516862060546876,0.0013749999925494194,0.29686251282691956,0.007287499960511923
1779996188022139000,13.534138916015625,0.00013749999925494194,0.24667499959468842,0.00494999997317791
1779996188039415800,13.551415771484375,-0.002199999988079071,0.05362499877810478,0.0012374999932944775
1779996188065331000,13.5773310546875,-0.005912499967962503,-0.24928750097751617,-0.006049999967217445
1779996188082607900,13.59460791015625,-0.005912499967962503,-0.28476250171661377,-0.002474999986588955
1779996188099884500,13.611884521484376,-0.0035749999806284904,-0.16005000472068787,-0.002474999986588955
1779996188117161500,13.629161376953125,-0.0010999999940395355,0.05609999969601631,0.002474999986588955
1779996188134438400,13.6464384765625,0.00013749999925494194,0.24062499403953552,0.006049999967217445
1779996188151715300,13.66371533203125,0.00013749999925494194,0.28338751196861267,0.0037124999798834324
1779996188168992300,13.6809921875,-0.0010999999940395355,0.16362500190734863,0.002474999986588955
1779996188186269000,13.69826904296875,-0.002337499987334013,-0.052662499248981476,-0.002474999986588955
1779996188203545600,13.715545654296875,-0.004674999974668026,-0.23457500338554382,-0.002474999986588955
1779996188220822500,13.732822509765626,-0.0035749999806284904,-0.2798124849796295,-0.006049999967217445
1779996188238099500,13.750099365234375,-0.0035749999806284904,-0.16499999165534973,-0.002474999986588955
1779996188264014800,13.776014892578125,0.00013749999925494194,0.14533749222755432,0.002474999986588955
1779996188281291800,13.793291748046874,0.0013749999925494194,0.27486249804496765,0.006049999967217445
1779996188298568400,13.810568359375,0.00013749999925494194,0.24186250567436218,0.0037124999798834324
1779996188315845400,13.827845458984376,-0.002337499987334013,0.0695749968290329,0
1779996188333122000,13.8451220703125,-0.0035749999806284904,-0.14176249504089355,-0.002474999986588955
1779996188350399200,13.862399169921876,-0.005912499967962503,-0.2700499892234802,-0.004812499973922968
1779996188367676200,13.87967626953125,-0.0035749999806284904,-0.23828749358654022,-0.0037124999798834324
1779996188384952800,13.896952880859375,-0.002337499987334013,-0.06971249729394913,0
1779996188402229800,13.914229736328124,-0.002337499987334013,0.1368124932050705,0.002474999986588955
1779996188419506400,13.93150634765625,0.00013749999925494194,0.2638624906539917,0.006049999967217445
1779996188436783400,13.948783447265624,0.0013749999925494194,0.23938749730587006,0.00494999997317791
1779996188454060000,13.96606005859375,0.00013749999925494194,0.07328750193119049,0.002474999986588955
1779996188471337000,13.9833369140625,-0.0035749999806284904,-0.13571250438690186,-0.002474999986588955
1779996188488614000,14.00061376953125,-0.005912499967962503,-0.26633748412132263,-0.006049999967217445
1779996188505890800,14.017890869140626,-0.005912499967962503,-0.23828749358654022,-0.004812499973922968
1779996188523167500,14.03516748046875,-0.0035749999806284904,-0.07095000147819519,0
1779996188540444400,14.0524443359375,0.00013749999925494194,0.1368124932050705,0.0012374999932944775
1779996188557721300,14.069721435546874,0.0013749999925494194,0.26633748412132263,0.006049999967217445
1779996188574998000,14.086998046875,0.00013749999925494194,0.2381500005722046,0.00494999997317791
1779996188592275200,14.104275146484374,-0.002337499987334013,0.07204999774694443,0
1779996188609552000,14.1215517578125,-0.004812499973922968,-0.13323749601840973,-0.002474999986588955
1779996188635467300,14.14746728515625,-0.0035749999806284904,-0.26633748412132263,-0.004812499973922968
1779996188652744000,14.164743896484374,-0.002337499987334013,-0.1662375032901764,-0.0037124999798834324
1779996188670020600,14.1820205078125,0.00013749999925494194,0.02928750030696392,0.0012374999932944775
1779996188687297500,14.199297607421874,0.00013749999925494194,0.2063875049352646,0.00494999997317791
1779996188704574500,14.216574462890625,-0.0010999999940395355,0.2638624906539917,0.00494999997317791
1779996188721851400,14.233851318359376,0.00013749999925494194,0.1685750037431717,0.0037124999798834324
1779996188739128000,14.251128173828125,-0.002337499987334013,-0.025712499395012856,-0.002474999986588955
1779996188756405000,14.268405029296876,-0.0035749999806284904,-0.20281249284744263,-0.004812499973922968
1779996188773682000,14.285681884765625,-0.004812499973922968,-0.2615250051021576,-0.006049999967217445
1779996188790958800,14.302958740234375,-0.004812499973922968,-0.1662375032901764,-0.0012374999932944775
1779996188816874000,14.3288740234375,0.00013749999925494194,0.12086249887943268,0.002474999986588955
1779996188834151000,14.34615087890625,0.0013749999925494194,0.24791249632835388,0.006049999967217445
1779996188851427800,14.363427734375,0.00013749999925494194,0.22962500154972076,0.002474999986588955
1779996188868704500,14.38070458984375,-0.0010999999940395355,0.07686249911785126,0.0037124999798834324
1779996188885981200,14.397981201171875,-0.0035749999806284904,-0.11852499842643738,-0.002474999986588955
1779996188903258000,14.415258056640624,-0.004812499973922968,-0.24433749914169312,-0.0037124999798834324
1779996188920535000,14.43253515625,-0.004812499973922968,-0.22728750109672546,-0.004812499973922968
1779996188937812000,14.44981201171875,-0.0035749999806284904,-0.08071249723434448,0
1779996188955088600,14.467088623046875,-0.0010999999940395355,0.11110000312328339,0.0012374999932944775
1779996188972365600,14.484365478515626,0.0013749999925494194,0.24310000240802765,0.00494999997317791
1779996188989642500,14.501642578125,0.0013749999925494194,0.22962500154972076,0.00494999997317791
1779996189006919400,14.51891943359375,-0.002337499987334013,0.08428750187158585,0.0012374999932944775
1779996189024196000,14.536196044921875,-0.0035749999806284904,-0.10876250267028809,-0.002474999986588955
1779996189041473000,14.55347314453125,-0.004812499973922968,-0.23704999685287476,-0.004812499973922968
1779996189058750000,14.57075,-0.0035749999806284904,-0.22357499599456787,-0.002474999986588955
1779996189076026600,14.588026611328125,-0.002337499987334013,-0.08552499860525131,-0.0012374999932944775
1779996189093303600,14.605303466796874,0.00013749999925494194,0.10257499665021896,0.002474999986588955
1779996189110580200,14.622580322265625,-0.0010999999940395355,0.2283875048160553,0.00494999997317791
1779996189127857200,14.639857177734376,-0.0010999999940395355,0.22591249644756317,0.0037124999798834324
1779996189145134000,14.657134033203125,0.00013749999925494194,0.08910000324249268,0.0037124999798834324
1779996189162410800,14.67441064453125,-0.0035749999806284904,-0.10023749619722366,-0.0037124999798834324
1779996189179687700,14.691687744140625,-0.0035749999806284904,-0.2297624945640564,-0.004812499973922968
1779996189196964600,14.708964599609375,-0.004812499973922968,-0.22481249272823334,-0.006049999967217445
1779996189214241300,14.7262412109375,-0.0035749999806284904,-0.08923749625682831,-0.0012374999932944775
1779996189231518200,14.743518310546875,-0.0010999999940395355,0.0976250022649765,0.0012374999932944775
1779996189248795100,14.760795166015624,0.0013749999925494194,0.2283875048160553,0.0037124999798834324
1779996189266071800,14.77807177734375,0.0013749999925494194,0.22591249644756317,0.00494999997317791
1779996189283348700,14.7953486328125,0.00013749999925494194,0.09281250089406967,0.0012374999932944775
1779996189300625700,14.812625732421875,-0.0035749999806284904,-0.09652499854564667,-0.0012374999932944775
1779996189317902600,14.829902587890626,-0.004812499973922968,-0.22728750109672546,-0.006049999967217445
1779996189335179500,14.847179443359375,-0.004812499973922968,-0.22357499599456787,-0.002474999986588955
1779996189352456200,14.864456298828125,-0.002337499987334013,-0.09047500044107437,-0.0012374999932944775
1779996189369732900,14.88173291015625,0.00013749999925494194,0.09281250089406967,0.0012374999932944775
1779996189387009500,14.899009521484375,0.0013749999925494194,0.22110000252723694,0.0037124999798834324
1779996189404286500,14.916286376953124,0.00013749999925494194,0.2223374992609024,0.0037124999798834324
1779996189421563400,14.9335634765625,-0.002337499987334013,0.09281250089406967,0.0037124999798834324
1779996189447478500,14.959478515625,-0.004812499973922968,-0.1662375032901764,-0.004812499973922968
1779996189464755500,14.97675537109375,-0.004812499973922968,-0.2358125001192093,-0.002474999986588955
1779996189482032400,14.994032470703125,-0.0035749999806284904,-0.16871249675750732,-0.002474999986588955
1779996189499309300,15.011309326171874,-0.0010999999940395355,-0.0037124999798834324,0.002474999986588955
1779996189516586000,15.0285859375,-0.0010999999940395355,0.16238750517368317,0.002474999986588955
1779996189533863000,15.04586279296875,0.00013749999925494194,0.23333749175071716,0.006049999967217445
1779996189551139800,15.063139892578125,0.00013749999925494194,0.16981250047683716,0.002474999986588955
1779996189568416500,15.08041650390625,-0.0010999999940395355,0.006049999967217445,0.0012374999932944775
1779996189585693400,15.097693359375,-0.0034374999813735485,-0.16005000472068787,-0.002474999986588955
1779996189602970400,15.114970458984375,-0.0034374999813735485,-0.2358125001192093,-0.004812499973922968
1779996189620247300,15.132247314453124,-0.0034374999813735485,-0.1722874939441681,-0.0012374999932944775
1779996189637524000,15.14952392578125,-0.0010999999940395355,-0.007424999959766865,-0.0012374999932944775
1779996189654801000,15.16680078125,0.00013749999925494194,0.15757499635219574,0.00494999997317791
1779996189672077600,15.18407763671875,0.0013749999925494194,0.2320999950170517,0.002474999986588955
1779996189689354200,15.201354248046876,0.00013749999925494194,0.16981250047683716,0.002474999986588955
1779996189706631200,15.218631103515625,-0.002337499987334013,0.00976249948143959,-0.0012374999932944775
1779996189732546600,15.244546630859375,-0.004674999974668026,-0.20652499794960022,-0.0037124999798834324
1779996189749823200,15.2618232421875,-0.004674999974668026,-0.21271249651908875,-0.004812499973922968
1779996189767100200,15.27910009765625,-0.0034374999813735485,-0.09542500227689743,0
1779996189784377000,15.296377197265626,0.00013749999925494194,0.07686249911785126,0.002474999986588955
1779996189810292000,15.3222919921875,0.00013749999925494194,0.2223374992609024,0.006049999967217445
1779996189827569000,15.33956884765625,-0.0010999999940395355,0.1611499935388565,0.002474999986588955
1779996189844845800,15.356845703125,-0.002337499987334013,0.00976249948143959,-0.0012374999932944775
1779996189862122500,15.37412255859375,-0.0034374999813735485,-0.14794999361038208,-0.0037124999798834324
1779996189879399400,15.3913994140625,-0.0034374999813735485,-0.2162874937057495,-0.006049999967217445
1779996189896676400,15.40867626953125,-0.004674999974668026,-0.16005000472068787,-0.002474999986588955
1779996189922591500,15.434591552734375,-0.0034374999813735485,0.07438749819993973,0.0012374999932944775
1779996189939868400,15.451868408203126,0.0013749999925494194,0.19910000264644623,0.00494999997317791
1779996189957145300,15.469145263671875,0.002612499985843897,0.20886249840259552,0.0037124999798834324
1779996189983060500,15.495060546875,-0.002337499987334013,0.006049999967217445,0.0012374999932944775
1779996190000337400,15.51233740234375,-0.005912499967962503,-0.1527625024318695,-0.004812499973922968
1779996190017614300,15.5296142578125,-0.004674999974668026,-0.21752500534057617,-0.0037124999798834324
1779996190034891000,15.54689111328125,-0.002337499987334013,-0.15399999916553497,-0.002474999986588955
1779996190052167700,15.564167724609375,-0.0010999999940395355,-0.00494999997317791,0.0012374999932944775
1779996190069444900,15.58144482421875,0.00013749999925494194,0.14409999549388885,0.002474999986588955
1779996190086721500,15.598721435546874,-0.0010999999940395355,0.21133749186992645,0.00494999997317791
1779996190112636700,15.62463671875,-0.002337499987334013,0.08910000324249268,0
1779996190138551800,15.6505517578125,-0.0035749999806284904,-0.14176249504089355,-0.002474999986588955
1779996190155828700,15.667828857421876,-0.004812499973922968,-0.20899999141693115,-0.0037124999798834324
1779996190173105700,15.685105712890625,-0.004812499973922968,-0.1564749926328659,-0.0012374999932944775
1779996190190382300,15.70238232421875,-0.002337499987334013,-0.01347499992698431,-0.0012374999932944775
1779996190207659300,15.7196591796875,0.00013749999925494194,0.1391499936580658,0.006049999967217445
1779996190224936200,15.736936279296875,0.00013749999925494194,0.2063875049352646,0.002474999986588955
1779996190242212900,15.754212890625,-0.0010999999940395355,0.1551000028848648,0.0012374999932944775
1779996190259489500,15.771489501953125,-0.002337499987334013,0.010999999940395355,0
1779996190285404700,15.79740478515625,-0.004812499973922968,-0.18205000460147858,-0.006049999967217445
1779996190302681600,15.814681640625,-0.004812499973922968,-0.1882375031709671,-0.002474999986588955
1779996190328596700,15.8405966796875,-0.002337499987334013,-0.008662499487400055,-0.002474999986588955
1779996190345873700,15.857873779296876,0.00013749999925494194,0.13557499647140503,0.002474999986588955
1779996190363150300,15.875150390625,0.002612499985843897,0.20157499611377716,0.0037124999798834324
1779996190389065500,15.9010654296875,0.00013749999925494194,0.08552499860525131,0.002474999986588955
1779996190406342400,15.91834228515625,-0.0035749999806284904,-0.06847500056028366,-0.002474999986588955
1779996190423619300,15.935619384765625,-0.0035749999806284904,-0.17971250414848328,-0.004812499973922968
1779996190440896000,15.95289599609375,-0.004812499973922968,-0.18328750133514404,-0.004812499973922968
1779996190458173000,15.9701728515625,-0.002337499987334013,-0.07699999958276749,-0.0012374999932944775
1779996190475449900,15.987449951171875,-0.0010999999940395355,0.07081250101327896,0.0012374999932944775
1779996190492726500,16.0047265625,-0.0010999999940395355,0.17833749949932098,0.0037124999798834324
1779996190510003500,16.02200341796875,-0.0010999999940395355,0.18081249296665192,0.0037124999798834324
1779996190527280400,16.0392802734375,-0.002337499987334013,0.08057499676942825,0.0012374999932944775
1779996190544557000,16.05655712890625,-0.002337499987334013,-0.0672374963760376,0.0012374999932944775
1779996190561834000,16.073833984375,-0.0034374999813735485,-0.17599999904632568,-0.002474999986588955
1779996190579110700,16.091110595703125,-0.0034374999813735485,-0.1845249980688095,-0.0012374999932944775
1779996190605026000,16.117026123046877,-0.002337499987334013,-0.01223750039935112,0.0012374999932944775
1779996190622302700,16.134302734375,-0.0010999999940395355,0.12581250071525574,0.0037124999798834324
1779996190639579600,16.15157958984375,0.00013749999925494194,0.18933749198913574,0.002474999986588955
1779996190665494800,16.177494873046875,0.00013749999925494194,0.08538749814033508,0.0037124999798834324
1779996190682771700,16.194771728515626,-0.0010999999940395355,-0.05871250107884407,-0.002474999986588955
1779996190700048400,16.21204833984375,-0.0034374999813735485,-0.16981250047683716,-0.0012374999932944775
1779996190717325300,16.2293251953125,-0.0034374999813735485,-0.18205000460147858,-0.004812499973922968
1779996190743240400,16.255240478515624,-0.002337499987334013,-0.01347499992698431,0.0012374999932944775
1779996190760517400,16.272517333984375,0.00013749999925494194,0.12457499653100967,0.0012374999932944775
1779996190777794000,16.2897939453125,0.00013749999925494194,0.18933749198913574,0.00494999997317791
1779996190795071000,16.307071044921877,-0.0010999999940395355,0.14409999549388885,0.002474999986588955
1779996190812348000,16.324347900390624,-0.002337499987334013,0.014574999921023846,0.002474999986588955
1779996190829624600,16.34162451171875,-0.004674999974668026,-0.12347500026226044,-0.0037124999798834324
1779996190846901200,16.3589013671875,-0.004674999974668026,-0.19071249663829803,-0.006049999967217445
1779996190864178200,16.37617822265625,-0.0034374999813735485,-0.14423750340938568,-0.002474999986588955
1779996190881455000,16.393455078125,-0.002337499987334013,-0.0147124994546175,-0.0012374999932944775
1779996190898731800,16.410731689453126,-0.0010999999940395355,0.12333749979734421,0.00494999997317791
1779996190916008700,16.4280087890625,-0.0010999999940395355,0.18809999525547028,0.002474999986588955
1779996190933285600,16.44528564453125,-0.0010999999940395355,0.1428624987602234,0.002474999986588955
1779996190950562300,16.462562255859375,-0.002337499987334013,0.018287500366568565,-0.002474999986588955
1779996190967839200,16.479839111328126,-0.004674999974668026,-0.11371249705553055,-0.0012374999932944775
1779996190985116000,16.497115966796876,-0.0034374999813735485,-0.18328750133514404,-0.002474999986588955
1779996191002392600,16.514392578125,-0.0034374999813735485,-0.14300000667572021,-0.0037124999798834324
1779996191028308000,16.540307861328124,-0.002337499987334013,0.047575000673532486,0.0012374999932944775
1779996191045584600,16.557584716796875,-0.0010999999940395355,0.15991249680519104,0.002474999986588955
1779996191062861600,16.574861572265625,0.00013749999925494194,0.17710000276565552,0.00494999997317791
1779996191088777000,16.60077685546875,-0.0010999999940395355,0.023099999874830246,-0.0012374999932944775
1779996191106053600,16.6180537109375,-0.0010999999940395355,-0.11247500032186508,-0.0037124999798834324
1779996191123330600,16.63533056640625,-0.0034374999813735485,-0.17971250414848328,-0.004812499973922968
1779996191149245700,16.66124560546875,-0.0034374999813735485,-0.08799999952316284,-0.002474999986588955
1779996191166522600,16.678522705078127,-0.002337499987334013,0.05004999786615372,0
1779996191183799600,16.695799560546874,-0.0010999999940395355,0.16238750517368317,0.0037124999798834324
1779996191201076200,16.713076171875,0.00013749999925494194,0.17957499623298645,0.00494999997317791
1779996191218353000,16.730352783203124,-0.0010999999940395355,0.08910000324249268,0.0037124999798834324
1779996191244268300,16.756268310546876,-0.004674999974668026,-0.11976250261068344,-0.0012374999932944775
1779996191261545000,16.773544921875,-0.007149999961256981,-0.18700000643730164,-0.0012374999932944775
1779996191278822000,16.79082177734375,-0.005912499967962503,-0.14423750340938568,-0.002474999986588955
1779996191304737000,16.816737060546874,-0.0010999999940395355,0.05128749832510948,0.0037124999798834324
1779996191322014000,16.834013916015625,0.00013749999925494194,0.15757499635219574,0.0037124999798834324
1779996191339290600,16.85129052734375,0.00013749999925494194,0.17338749766349792,0.00494999997317791
1779996191365206000,16.8772060546875,-0.002337499987334013,0.018287500366568565,-0.002474999986588955
1779996191382482700,16.894482666015627,-0.002337499987334013,-0.10876250267028809,-0.0037124999798834324
1779996191399759400,16.91175927734375,-0.0034374999813735485,-0.17352500557899475,-0.0037124999798834324
1779996191417036300,16.929036376953125,-0.002337499987334013,-0.13695000112056732,-0.0012374999932944775
1779996191434313000,16.94631298828125,-0.002337499987334013,-0.023237500339746475,0.0012374999932944775
1779996191451590000,16.96358984375,0.00013749999925494194,0.10628750175237656,0.002474999986588955
1779996191477505000,16.989505126953127,0.00013749999925494194,0.1685750037431717,0.0037124999798834324
1779996191503420400,17.01542041015625,-0.0010999999940395355,0.02186249941587448,0.0012374999932944775
1779996191520697000,17.032697021484374,-0.0034374999813735485,-0.10518749803304672,-0.0037124999798834324
1779996191537973800,17.049973876953125,-0.004674999974668026,-0.17352500557899475,-0.002474999986588955
1779996191555250700,17.067250732421876,-0.0035749999806284904,-0.13695000112056732,-0.002474999986588955
1779996191581165800,17.093165771484376,-0.0010999999940395355,0.04633750021457672,0.002474999986588955
1779996191598442800,17.11044287109375,-0.0010999999940395355,0.15015000104904175,0.0037124999798834324
1779996191615719700,17.1277197265625,-0.002337499987334013,0.16609999537467957,0.002474999986588955
1779996191632996400,17.144996337890625,-0.002337499987334013,0.08786249905824661,0.002474999986588955
1779996191650273300,17.162273193359376,-0.002337499987334013,-0.040424998849630356,0
1779996191667550000,17.179550048828126,-0.004812499973922968,-0.1467124968767166,-0.002474999986588955
1779996191684827000,17.196826904296874,-0.0035749999806284904,-0.1662375032901764,-0.004812499973922968
1779996191710742000,17.222741943359374,-0.002337499987334013,-0.02447500079870224,-0.0012374999932944775
1779996191728019000,17.24001904296875,-0.002337499987334013,0.10257499665021896,0.002474999986588955
1779996191745296000,17.2572958984375,-0.0010999999940395355,0.16981250047683716,0.0037124999798834324
1779996191771211000,17.2832109375,0.00013749999925494194,0.08786249905824661,0.0012374999932944775
1779996191788487700,17.30048779296875,-0.0010999999940395355,-0.042762499302625656,0
1779996191805764400,17.317764404296874,-0.002337499987334013,-0.15028749406337738,-0.0037124999798834324
1779996191823041300,17.335041259765624,-0.004812499973922968,-0.16981250047683716,-0.004812499973922968
1779996191840318200,17.352318115234375,-0.004812499973922968,-0.08799999952316284,-0.002474999986588955
1779996191857595000,17.369594970703126,-0.0010999999940395355,0.04633750021457672,0
1779996191874871800,17.386871826171873,0.002612499985843897,0.15633749961853027,0.002474999986588955
1779996191892148700,17.404148681640624,0.0013749999925494194,0.17104999721050262,0.002474999986588955
1779996191909425400,17.42142529296875,-0.002337499987334013,0.08428750187158585,0.0012374999932944775
1779996191926702000,17.4387021484375,-0.004812499973922968,-0.050187498331069946,-0.002474999986588955
1779996191943978800,17.455978759765625,-0.0035749999806284904,-0.1527625024318695,-0.0012374999932944775
1779996191961255700,17.473255615234375,-0.0035749999806284904,-0.1662375032901764,-0.0037124999798834324
1779996191978532600,17.49053271484375,-0.0035749999806284904,-0.08428750187158585,0.0012374999932944775
1779996192004447700,17.51644775390625,0.00013749999925494194,0.10381250083446503,0.002474999986588955
1779996192021724700,17.533724609375,0.00013749999925494194,0.1685750037431717,0.0037124999798834324
1779996192039001300,17.55100146484375,-0.0010999999940395355,0.13433749973773956,0.0037124999798834324
1779996192064916700,17.576916748046877,-0.002337499987334013,-0.04152499884366989,0
1779996192082193400,17.594193359375,-0.0035749999806284904,-0.14781250059604645,-0.0037124999798834324
1779996192099470300,17.61147021484375,-0.0035749999806284904,-0.1662375032901764,-0.0037124999798834324
1779996192125385500,17.637385498046875,-0.002337499987334013,-0.023237500339746475,-0.0012374999932944775
1779996192142662400,17.654662353515626,-0.0010999999940395355,0.1050499975681305,0.0012374999932944775
1779996192159939000,17.67193896484375,-0.0010999999940395355,0.17215000092983246,0.0037124999798834324
1779996192177215700,17.6892158203125,0.00013749999925494194,0.13928750157356262,0.0037124999798834324
1779996192203131000,17.715130859375,-0.0010999999940395355,-0.04399999976158142,-0.0012374999932944775
1779996192220407800,17.73240771484375,-0.0035749999806284904,-0.14781250059604645,-0.0037124999798834324
1779996192237684700,17.749684814453126,-0.004812499973922968,-0.1662375032901764,-0.002474999986588955
1779996192254961700,17.766961669921876,-0.004812499973922968,-0.08799999952316284,-0.0012374999932944775
1779996192272238300,17.78423828125,-0.0010999999940395355,0.04386249929666519,0
1779996192289515300,17.801515380859374,0.0013749999925494194,0.15015000104904175,0.0037124999798834324
1779996192306792000,17.8187919921875,0.00013749999925494194,0.16609999537467957,0.002474999986588955
1779996192324068600,17.836068603515624,-0.002337499987334013,0.08662500232458115,0.002474999986588955
1779996192341345500,17.853345458984375,-0.004812499973922968,-0.042762499302625656,-0.0012374999932944775
1779996192358622200,17.870622314453126,-0.0035749999806284904,-0.14547500014305115,-0.004812499973922968
1779996192384537600,17.89653759765625,-0.0035749999806284904,-0.13199999928474426,-0.002474999986588955
1779996192401814300,17.913814208984373,-0.0010999999940395355,-0.02447500079870224,0
1779996192419091200,17.93109130859375,-0.0010999999940395355,0.09886249899864197,0.0012374999932944775
1779996192445006300,17.95700634765625,0.00013749999925494194,0.16238750517368317,0.006049999967217445
1779996192462283000,17.974282958984375,-0.0010999999940395355,0.08662500232458115,0.0012374999932944775
1779996192479559700,17.9915595703125,-0.002337499987334013,-0.03918749839067459,0
1779996192505475000,18.01747509765625,-0.0035749999806284904,-0.16499999165534973,-0.004812499973922968
1779996192522751700,18.034751708984373,-0.002337499987334013,-0.13199999928474426,-0.002474999986588955
1779996192540028700,18.052028564453124,-0.002337499987334013,-0.023237500339746475,0
1779996192565944000,18.077944091796876,-0.0010999999940395355,0.14038750529289246,0.002474999986588955
1779996192583220700,18.095220703125,-0.0010999999940395355,0.16238750517368317,0.002474999986588955
1779996192600497700,18.11249755859375,-0.0010999999940395355,0.08662500232458115,0.0037124999798834324
1779996192617774300,18.1297744140625,-0.0010999999940395355,-0.037950001657009125,-0.002474999986588955
1779996192635051300,18.14705126953125,-0.004812499973922968,-0.14300000667572021,-0.0012374999932944775
1779996192652328000,18.164327880859375,-0.006049999967217445,-0.16376249492168427,-0.0037124999798834324
1779996192669604900,18.18160498046875,-0.002337499987334013,-0.08799999952316284,-0.0037124999798834324
1779996192686881800,18.1988818359375,0.00013749999925494194,0.042762499302625656,0.002474999986588955
1779996192704158500,18.216158447265624,-0.0010999999940395355,0.14162500202655792,0.00494999997317791
1779996192721435100,18.23343505859375,-0.0010999999940395355,0.15633749961853027,0.0037124999798834324
1779996192738712000,18.250712158203125,-0.002337499987334013,0.07933750003576279,0.0012374999932944775
1779996192764627200,18.276627197265626,-0.002337499987334013,-0.0929500013589859,-0.0012374999932944775
1779996192781904000,18.29390380859375,-0.004812499973922968,-0.15399999916553497,-0.0037124999798834324
1779996192799180800,18.311180908203124,-0.0035749999806284904,-0.1270499974489212,-0.0037124999798834324
1779996192825096200,18.33709619140625,-0.002337499987334013,0.035337500274181366,-0.0012374999932944775
1779996192842372900,18.354372802734375,0.0013749999925494194,0.1368124932050705,0.002474999986588955
1779996192859649500,18.3716494140625,0.00013749999925494194,0.15633749961853027,0.00494999997317791
1779996192885564700,18.397564697265626,-0.002337499987334013,0.02199999988079071,-0.0012374999932944775
1779996192902841600,18.414841552734377,-0.0035749999806284904,-0.09652499854564667,-0.0037124999798834324
1779996192920118300,18.4321181640625,-0.004812499973922968,-0.15523749589920044,-0.004812499973922968
1779996192937395200,18.449395263671875,-0.0035749999806284904,-0.12223749607801437,-0.002474999986588955
1779996192954671900,18.466671875,-0.0010999999940395355,-0.020762499421834946,-0.0012374999932944775
1779996192971948500,18.483948486328124,-0.0010999999940395355,0.09157499670982361,0.0037124999798834324
1779996192989225500,18.5012255859375,0.00013749999925494194,0.15138749778270721,0
1779996193015140600,18.527140625,-0.0010999999940395355,0.07809999585151672,0.00494999997317791
1779996193032417500,18.54441748046875,-0.0035749999806284904,-0.03671250119805336,-0.0037124999798834324
1779996193049694200,18.561694091796873,-0.002337499987334013,-0.12952500581741333,0
1779996193066971100,18.57897119140625,-0.002337499987334013,-0.14794999361038208,-0.006049999967217445
1779996193084247800,18.596247802734375,-0.002337499987334013,-0.07699999958276749,0
1779996193101524700,18.613524658203126,-0.0010999999940395355,0.035337500274181366,0.002474999986588955
1779996193118801400,18.630801513671877,0.00013749999925494194,0.1293874979019165,0.0012374999932944775
1779996193136078300,18.648078369140624,0.00013749999925494194,0.14409999549388885,0.00494999997317791
1779996193153355000,18.66535498046875,-0.0010999999940395355,0.07562500238418579,0
1779996193170631700,18.682631591796873,-0.0034374999813735485,-0.037950001657009125,-0.0012374999932944775
1779996193187908600,18.69990869140625,-0.0034374999813735485,-0.12828749418258667,-0.004812499973922968
1779996193205185300,18.717185302734375,-0.005912499967962503,-0.1405249983072281,-0.0037124999798834324
1779996193222462200,18.734462158203126,-0.0034374999813735485,-0.07095000147819519,-0.0012374999932944775
1779996193239739100,18.7517392578125,-0.0010999999940395355,0.04262499883770943,0.0012374999932944775
1779996193257015800,18.769015869140624,0.00013749999925494194,0.13062499463558197,0.006049999967217445
1779996193274292700,18.786292724609375,0.0013749999925494194,0.1391499936580658,0.002474999986588955
1779996193291569400,18.8035693359375,-0.002337499987334013,0.06462500244379044,0.0012374999932944775
1779996193308846000,18.82084619140625,-0.0034374999813735485,-0.04647500067949295,-0.0012374999932944775
1779996193326123000,18.838123046875,-0.0034374999813735485,-0.12594999372959137,-0.0037124999798834324
1779996193352038100,18.8640380859375,-0.002337499987334013,-0.10395000129938126,-0.0037124999798834324
1779996193369315000,18.881315185546875,-0.0010999999940395355,-0.010999999940395355,0.002474999986588955
1779996193386591700,18.898591796875,-0.0010999999940395355,0.08538749814033508,0.002474999986588955
1779996193403868700,18.91586865234375,0.00013749999925494194,0.13433749973773956,0.0012374999932944775
1779996193421145300,18.933145263671875,-0.0010999999940395355,0.1073874980211258,0.0012374999932944775
1779996193447060200,18.959060302734375,-0.0034374999813735485,-0.03423750028014183,0
1779996193464337200,18.976337158203126,-0.0034374999813735485,-0.11728750169277191,-0.002474999986588955
1779996193481614000,18.993614013671873,-0.002337499987334013,-0.12952500581741333,-0.002474999986588955
1779996193498890800,19.010890869140624,-0.002337499987334013,-0.06476250290870667,0
1779996193516167700,19.028167724609375,-0.002337499987334013,0.035337500274181366,0
1779996193533444600,19.045444580078126,-0.002337499987334013,0.11604999750852585,0.002474999986588955
1779996193550721300,19.06272119140625,-0.0010999999940395355,0.1270499974489212,0.002474999986588955
1779996193567998200,19.079998291015624,-0.0010999999940395355,0.06833750009536743,0.002474999986588955
1779996193593913000,19.1059130859375,-0.002337499987334013,-0.07947500050067902,-0.0037124999798834324
1779996193611190000,19.12318994140625,-0.002337499987334013,-0.13199999928474426,-0.002474999986588955
1779996193628466700,19.140466796875,-0.0034374999813735485,-0.10628750175237656,-0.002474999986588955
1779996193645743600,19.15774365234375,-0.002337499987334013,-0.018424998968839645,0
1779996193663020300,19.175020263671875,0.00013749999925494194,0.08428750187158585,0.0037124999798834324
1779996193680297200,19.192297119140626,0.00013749999925494194,0.13433749973773956,0.0037124999798834324
1779996193697574100,19.20957421875,0.00013749999925494194,0.10381250083446503,0.002474999986588955
1779996193714850800,19.226850830078124,-0.002337499987334013,0.014574999921023846,0
1779996193732127700,19.244127685546875,-0.0034374999813735485,-0.08071249723434448,-0.0012374999932944775
1779996193758043000,19.27004296875,-0.0034374999813735485,-0.1247124969959259,-0.0012374999932944775
1779996193775319800,19.28731982421875,-0.002337499987334013,-0.062424998730421066,0.0012374999932944775
1779996193792596500,19.304596435546873,0.00013749999925494194,0.032862499356269836,0.0012374999932944775
1779996193809873400,19.321873291015624,-0.0010999999940395355,0.1073874980211258,0.0037124999798834324
1779996193827150000,19.339150146484375,-0.0010999999940395355,0.11962500214576721,0.0012374999932944775
1779996193844426800,19.3564267578125,-0.002337499987334013,0.06462500244379044,0.0012374999932944775
1779996193861703400,19.373703369140625,-0.002337499987334013,-0.025712499395012856,0.0012374999932944775
1779996193878980400,19.39098046875,-0.002337499987334013,-0.10147500038146973,-0.0012374999932944775
1779996193896257300,19.40825732421875,-0.0034374999813735485,-0.11852499842643738,-0.0012374999932944775
1779996193913534000,19.425533935546873,-0.002337499987334013,-0.06847500056028366,0
1779996193930811000,19.442810791015624,-0.0010999999940395355,0.02186249941587448,0
1779996193948087600,19.460087646484375,-0.0010999999940395355,0.09886249899864197,0.002474999986588955
1779996193965364200,19.4773642578125,-0.002337499987334013,0.11838749796152115,0.002474999986588955
1779996193982641000,19.494640869140625,-0.002337499987334013,0.07081250101327896,0.0012374999932944775
1779996193999917800,19.511917724609376,-0.0010999999940395355,-0.018424998968839645,0.0012374999932944775
1779996194017194800,19.52919482421875,-0.0034374999813735485,-0.0989999994635582,-0.0012374999932944775
1779996194034471400,19.546471435546874,-0.004674999974668026,-0.12223749607801437,-0.002474999986588955
1779996194060386800,19.57238671875,-0.0035749999806284904,-0.025712499395012856,0.0012374999932944775
1779996194077663500,19.58966357421875,-0.0010999999940395355,0.06833750009536743,0.0012374999932944775
1779996194094940400,19.6069404296875,-0.0010999999940395355,0.12209999561309814,0.002474999986588955
1779996194120855300,19.632855224609376,0.00013749999925494194,0.07204999774694443,0.0012374999932944775
1779996194138132000,19.650132080078127,-0.002337499987334013,-0.020762499421834946,-0.0012374999932944775
1779996194155409000,19.667408935546874,-0.0035749999806284904,-0.10147500038146973,-0.0037124999798834324
1779996194172685800,19.684685791015625,-0.0035749999806284904,-0.12099999934434891,-0.0037124999798834324
1779996194189962500,19.70196240234375,-0.002337499987334013,-0.07095000147819519,0
1779996194207239400,19.719239501953126,-0.0010999999940395355,0.020762499421834946,0
1779996194224516000,19.73651611328125,-0.0010999999940395355,0.10009999573230743,0.0012374999932944775
1779996194241793000,19.75379296875,0.00013749999925494194,0.12209999561309814,0.0012374999932944775
1779996194259069700,19.771069580078127,-0.002337499987334013,0.07328750193119049,0
1779996194284984800,19.79698486328125,-0.002337499987334013,-0.062424998730421066,-0.0037124999798834324
1779996194302261500,19.814261474609374,-0.0035749999806284904,-0.11728750169277191,-0.0012374999932944775
1779996194319538400,19.831538330078125,-0.002337499987334013,-0.10518749803304672,-0.0012374999932944775
1779996194354092000,19.866092041015627,-0.002337499987334013,0.05857500061392784,0.0012374999932944775
1779996194371368700,19.88336865234375,-0.002337499987334013,0.11838749796152115,0.0037124999798834324
1779996194388645600,19.900645751953125,-0.0010999999940395355,0.10628750175237656,0.0037124999798834324
1779996194405922600,19.917922607421875,-0.0010999999940395355,0.030524998903274536,-0.0012374999932944775
1779996194423199200,19.93519921875,-0.002337499987334013,-0.062424998730421066,-0.0012374999932944775
1779996194440476000,19.952475830078125,-0.0035749999806284904,-0.11728750169277191,-0.0037124999798834324
1779996194457752600,19.969752685546876,-0.0035749999806284904,-0.10147500038146973,-0.0012374999932944775
1779996194475029500,19.987029541015627,-0.002337499987334013,-0.02694999985396862,-0.0012374999932944775
1779996194500944600,20.012944580078123,0.0013749999925494194,0.0976250022649765,0.0037124999798834324
1779996194518221600,20.0302216796875,0.0013749999925494194,0.12086249887943268,0.0012374999932944775
1779996194535498200,20.047498291015625,-0.0010999999940395355,0.0695749968290329,0.0037124999798834324
1779996194552775200,20.064775146484376,-0.002337499987334013,-0.01966249942779541,0
1779996194570051800,20.0820517578125,-0.0035749999806284904,-0.09776250272989273,-0.0012374999932944775
1779996194587328500,20.09932861328125,-0.0035749999806284904,-0.11728750169277191,0
1779996194604605400,20.11660546875,-0.002337499987334013,-0.06847500056028366,-0.002474999986588955
1779996194621882400,20.13388232421875,-0.0010999999940395355,0.01952499896287918,0.0037124999798834324
1779996194639159000,20.151158935546874,0.00013749999925494194,0.09033749997615814,0.0012374999932944775
1779996194665074200,20.17707421875,-0.002337499987334013,0.0976250022649765,0.0037124999798834324
1779996194682351000,20.19435107421875,-0.002337499987334013,0.030524998903274536,-0.0012374999932944775
1779996194699627800,20.211627685546876,-0.002337499987334013,-0.054999999701976776,-0.0012374999932944775
1779996194725543200,20.237543212890625,-0.004812499973922968,-0.11123749613761902,-0.002474999986588955
1779996194742819800,20.25481982421875,-0.004812499973922968,-0.06971249729394913,-0.002474999986588955
1779996194760096500,20.272096435546874,-0.002337499987334013,0.015812499448657036,0
1779996194777373400,20.28937353515625,-0.0010999999940395355,0.09281250089406967,0.0012374999932944775
1779996194794650000,20.306650146484376,-0.0010999999940395355,0.11233749985694885,0
1779996194811926800,20.3239267578125,-0.002337499987334013,0.06710000336170197,0.002474999986588955
1779996194829203700,20.34120361328125,-0.0035749999806284904,-0.015949999913573265,-0.0012374999932944775
1779996194846480400,20.35848046875,-0.0035749999806284904,-0.08799999952316284,0
1779996194863757300,20.37575732421875,-0.002337499987334013,-0.10628750175237656,-0.002474999986588955
1779996194881034000,20.393033935546875,-0.0010999999940395355,-0.06476250290870667,0
1779996194898311000,20.410310791015625,-0.0010999999940395355,0.01209999993443489,0.0037124999798834324
1779996194915587600,20.427587646484376,-0.002337499987334013,0.08181250095367432,0
1779996194932864300,20.4448642578125,-0.0010999999940395355,0.10628750175237656,0.002474999986588955
1779996194950141200,20.46214111328125,0.00013749999925494194,0.0695749968290329,0
1779996194967417900,20.47941796875,-0.0010999999940395355,-0.008662499487400055,0.0012374999932944775
1779996194984694800,20.49669482421875,-0.002337499987334013,-0.08318749815225601,-0.0012374999932944775
1779996195001971500,20.513971435546875,-0.0035749999806284904,-0.10876250267028809,-0.0037124999798834324
1779996195019248400,20.531248291015626,-0.0035749999806284904,-0.06971249729394913,0.0012374999932944775
1779996195036525000,20.548525146484376,-0.002337499987334013,0.00976249948143959,-0.0012374999932944775
1779996195053802000,20.565802001953124,-0.0010999999940395355,0.08181250095367432,0.002474999986588955
1779996195079717000,20.591717041015624,-0.002337499987334013,0.0952875018119812,0.0012374999932944775
1779996195096993800,20.608993896484375,-0.002337499987334013,0.032999999821186066,0.0012374999932944775
1779996195114270700,20.626270751953125,-0.002337499987334013,-0.04647500067949295,-0.0012374999932944775
1779996195140185600,20.652185546875,-0.002337499987334013,-0.10628750175237656,-0.0012374999932944775
1779996195157462500,20.669462646484376,-0.004812499973922968,-0.06971249729394913,-0.0012374999932944775
1779996195174739500,20.686739501953124,-0.002337499987334013,0.006049999967217445,-0.0012374999932944775
1779996195200654600,20.712654541015624,0.00013749999925494194,0.1013374999165535,0.002474999986588955
1779996195217931300,20.72993115234375,0.00013749999925494194,0.09886249899864197,0
1779996195235208000,20.7472080078125,-0.0010999999940395355,0.035337500274181366,0.002474999986588955
1779996195252484600,20.764484619140624,-0.0035749999806284904,-0.047712501138448715,0
1779996195269761500,20.781761474609375,-0.002337499987334013,-0.10023749619722366,-0.0012374999932944775
1779996195287038200,20.7990380859375,-0.0035749999806284904,-0.0929500013589859,0
1779996195304315100,20.816315185546873,-0.0010999999940395355,-0.03423750028014183,0
1779996195321591800,20.833591796875,-0.002337499987334013,0.04152499884366989,0.002474999986588955
1779996195338868700,20.85086865234375,-0.002337499987334013,0.09652499854564667,0.0012374999932944775
1779996195373422000,20.885422119140625,-0.0010999999940395355,0.04028749838471413,0
1779996195390698800,20.90269873046875,-0.002337499987334013,-0.040424998849630356,-0.0012374999932944775
1779996195407975700,20.9199755859375,-0.0010999999940395355,-0.09776250272989273,-0.0012374999932944775
1779996195425252600,20.937252685546873,-0.002337499987334013,-0.09776250272989273,-0.004812499973922968
1779996195442529300,20.954529296875,-0.0035749999806284904,-0.03918749839067459,0
1779996195459806200,20.97180615234375,-0.002337499987334013,0.042762499302625656,0.0012374999932944775
1779996195477083000,20.989082763671874,-0.0010999999940395355,0.0976250022649765,0.0012374999932944775
1779996195494359600,21.006359619140625,0.00013749999925494194,0.10009999573230743,0.0037124999798834324
1779996195511636500,21.023636474609376,0.00013749999925494194,0.04028749838471413,0.0012374999932944775
1779996195528913200,21.0409130859375,-0.0010999999940395355,-0.045237500220537186,-0.0012374999932944775
1779996195554828300,21.066828369140627,-0.0035749999806284904,-0.10628750175237656,-0.002474999986588955
1779996195572105200,21.084105224609374,-0.0035749999806284904,-0.07328750193119049,0.0012374999932944775
1779996195589382000,21.1013818359375,-0.0035749999806284904,0.0012374999932944775,-0.002474999986588955
1779996195606658800,21.118658935546875,-0.0010999999940395355,0.07933750003576279,0.002474999986588955
1779996195623935500,21.135935546875,0.0013749999925494194,0.11233749985694885,0.002474999986588955
1779996195641212200,21.153212158203125,0.00013749999925494194,0.07328750193119049,0.0012374999932944775
1779996195658489000,21.170489013671876,-0.002337499987334013,-0.007424999959766865,0
1779996195684404000,21.196404052734376,-0.004812499973922968,-0.10271249711513519,-0.002474999986588955
1779996195701681000,21.213680908203123,-0.0035749999806284904,-0.0952875018119812,-0.0012374999932944775
1779996195718957600,21.23095751953125,-0.0010999999940395355,-0.0317624993622303,-0.002474999986588955
1779996195736234500,21.248234375,0.00013749999925494194,0.05128749832510948,0.0037124999798834324
1779996195762149600,21.274149658203125,-0.0010999999940395355,0.1050499975681305,0.002474999986588955
1779996195779426600,21.291426513671876,-0.002337499987334013,0.06710000336170197,0.0012374999932944775
1779996195796703200,21.308703125,-0.0035749999806284904,-0.008662499487400055,0
1779996195813980200,21.325980224609374,-0.002337499987334013,-0.07947500050067902,0.0012374999932944775
1779996195831257000,21.343257080078125,-0.0035749999806284904,-0.10271249711513519,-0.0012374999932944775
1779996195848533800,21.36053369140625,-0.002337499987334013,-0.06599999964237213,-0.0012374999932944775
1779996195874448600,21.38644873046875,0.00013749999925494194,0.04152499884366989,0.0012374999932944775
1779996195891725600,21.4037255859375,0.00013749999925494194,0.0952875018119812,0.002474999986588955
1779996195909002200,21.421002197265626,-0.0010999999940395355,0.09157499670982361,0.002474999986588955
1779996195934917400,21.44691748046875,-0.0035749999806284904,-0.006187499966472387,0
1779996195952194000,21.464194091796877,-0.0035749999806284904,-0.07328750193119049,-0.002474999986588955
1779996195969470700,21.481470703125,-0.002337499987334013,-0.09418749809265137,-0.002474999986588955
1779996195986747600,21.49874755859375,-0.002337499987334013,-0.06476250290870667,0
1779996196004024600,21.516024658203126,-0.0010999999940395355,0.002337499987334013,-0.0012374999932944775
1779996196021301200,21.53330126953125,-0.0010999999940395355,0.07081250101327896,0.0012374999932944775
1779996196038578000,21.550577880859375,-0.002337499987334013,0.0952875018119812,-0.0012374999932944775
1779996196055854800,21.567854736328126,-0.0010999999940395355,0.06710000336170197,0.002474999986588955
1779996196073131500,21.585131591796873,-0.002337499987334013,-0.0012374999932944775,-0.0012374999932944775
1779996196090408400,21.602408447265624,-0.0034374999813735485,-0.0672374963760376,0
1779996196107685400,21.619685302734375,-0.002337499987334013,-0.09652499854564667,-0.0037124999798834324
1779996196124962000,21.636962158203126,-0.002337499987334013,-0.0672374963760376,-0.0037124999798834324
1779996196142238700,21.65423876953125,-0.002337499987334013,0.002337499987334013,0.0012374999932944775
1779996196159515600,21.671515625,-0.002337499987334013,0.06710000336170197,0
1779996196176792300,21.688792236328126,-0.0010999999940395355,0.0952875018119812,0.0012374999932944775
1779996196202707500,21.71470751953125,0.00013749999925494194,0.03657500073313713,0
1779996196219984100,21.731984130859374,-0.0010999999940395355,-0.03671250119805336,-0.0012374999932944775
1779996196237261000,21.749260986328125,-0.0034374999813735485,-0.08799999952316284,-0.0012374999932944775
1779996196263176200,21.77517626953125,-0.0034374999813735485,-0.0672374963760376,-0.0012374999932944775
1779996196280453000,21.792453125,-0.002337499987334013,0.002337499987334013,0.0012374999932944775
1779996196297729500,21.8097294921875,0.00013749999925494194,0.06833750009536743,0.002474999986588955
1779996196315006500,21.82700634765625,-0.0010999999940395355,0.09404999762773514,0.002474999986588955
1779996196332283100,21.844283203125,-0.002337499987334013,0.0635249987244606,0.0012374999932944775
1779996196349560000,21.86156005859375,-0.0034374999813735485,-0.002474999986588955,-0.002474999986588955
1779996196366836700,21.878836669921874,-0.0034374999813735485,-0.062424998730421066,0
1779996196384113700,21.89611376953125,-0.002337499987334013,-0.08552499860525131,-0.002474999986588955
1779996196410028500,21.922028564453125,-0.002337499987334013,-0.035475000739097595,-0.0012374999932944775
1779996196427305500,21.939305419921876,-0.002337499987334013,0.02928750030696392,0.0012374999932944775
1779996196444582100,21.95658203125,-0.0010999999940395355,0.07686249911785126,0.002474999986588955
1779996196461858800,21.97385888671875,-0.0010999999940395355,0.08181250095367432,0.0012374999932944775
1779996196487774200,21.999774169921874,-0.002337499987334013,0.002337499987334013,0.002474999986588955
1779996196505051000,22.01705078125,-0.002337499987334013,-0.059950001537799835,0
1779996196522327600,22.03432763671875,-0.002337499987334013,-0.08799999952316284,-0.0012374999932944775
1779996196539604500,22.0516044921875,-0.002337499987334013,-0.06366249918937683,-0.0012374999932944775
1779996196556881200,22.068881103515626,-0.002337499987334013,-0.0037124999798834324,0.002474999986588955
1779996196582796300,22.09479638671875,-0.002337499987334013,0.07686249911785126,0
1779996196600073000,22.112072998046877,-0.0010999999940395355,0.08304999768733978,0.002474999986588955
1779996196617350000,22.129349853515624,-0.0010999999940395355,0.04152499884366989,-0.0012374999932944775
1779996196643265000,22.15526513671875,-0.002337499987334013,-0.05623750016093254,0
1779996196660542000,22.1725419921875,-0.004674999974668026,-0.08799999952316284,-0.004812499973922968
1779996196677818600,22.189818603515626,-0.004674999974668026,-0.06599999964237213,-0.0012374999932944775
1779996196695095600,22.207095458984377,-0.0035749999806284904,-0.0037124999798834324,-0.0012374999932944775
1779996196712372000,22.2243720703125,0.00013749999925494194,0.06228749826550484,0.0012374999932944775
1779996196729649000,22.24164892578125,0.00013749999925494194,0.09281250089406967,0.0012374999932944775
1779996196746925600,22.258925537109373,0.00013749999925494194,0.0658624991774559,0.0037124999798834324
1779996196772840700,22.2848408203125,-0.002337499987334013,-0.03671250119805336,-0.0012374999932944775
1779996196790117600,22.30211767578125,-0.002337499987334013,-0.08318749815225601,0
1779996196807394300,22.319394287109375,-0.002337499987334013,-0.08071249723434448,0
1779996196824671200,22.336671142578126,-0.0035749999806284904,-0.032999999821186066,0
1779996196841948000,22.353947998046873,-0.002337499987334013,0.032862499356269836,0.002474999986588955
1779996196859224600,22.371224609375,-0.0010999999940395355,0.08057499676942825,-0.0012374999932944775
1779996196876501200,22.388501220703127,-0.002337499987334013,0.08181250095367432,0.0037124999798834324
1779996196893778000,22.40577783203125,-0.002337499987334013,0.0340999998152256,0.0012374999932944775
1779996196911054800,22.423054931640625,-0.002337499987334013,-0.0317624993622303,-0.0012374999932944775
1779996196928331800,22.440331787109375,-0.002337499987334013,-0.07823749631643295,0
1779996196954247000,22.466246826171876,-0.002337499987334013,-0.0611874982714653,0
1779996196971523800,22.48352392578125,-0.002337499987334013,-0.002474999986588955,0.002474999986588955
1779996196988800300,22.50080029296875,-0.0010999999940395355,0.05857500061392784,-0.0012374999932944775
1779996197023353900,22.535353759765623,-0.0035749999806284904,0.06104999780654907,-0.002474999986588955
1779996197040630500,22.552630615234374,-0.002337499987334013,0.0035749999806284904,0.0012374999932944775
