time,seconds_elapsed,z,y,x
1779996174712963300,0.22496337890625,345.16876220703125,-103.80000305175781,28.80000114440918
1779996174733121500,0.24512158203125,345.2062683105469,-103.81875610351562,28.818750381469727
1779996174753100300,0.265100341796875,345.1500244140625,-103.81875610351562,28.80000114440918
1779996174773053200,0.28505322265625,345.0187683105469,-103.80000305175781,28.80000114440918
1779996174793017600,0.305017578125,344.8500061035156,-103.78125762939453,28.781251907348633
1779996174813000000,0.325,344.8500061035156,-103.78125762939453,28.781251907348633
1779996174833247000,0.3452470703125,344.88751220703125,-103.78125762939453,28.781251907348633
1779996174853309700,0.365309814453125,344.88751220703125,-103.78125762939453,28.781251907348633
1779996174873123800,0.385123779296875,344.88751220703125,-103.76250457763672,28.781251907348633
1779996174893297700,0.405297607421875,344.8500061035156,-103.7437515258789,28.762500762939453
1779996174913621000,0.42562109375,344.79376220703125,-103.72500610351562,28.762500762939453
1779996174933292300,0.445292236328125,344.90625,-103.72500610351562,28.743751525878906
1779996174953077000,0.465076904296875,344.8125,-103.68750762939453,28.743751525878906
1779996174973322000,0.485322021484375,344.88751220703125,-103.66875457763672,28.743751525878906
1779996175054603500,0.566603515625,344.8687744140625,-103.6500015258789,28.725000381469727
1779996175105199000,0.61719921875,344.8500061035156,-103.63125610351562,28.70625114440918
1779996175196625200,0.708625244140625,344.8125,-103.59375762939453,28.650001525878906
1779996175288041000,0.800041015625,345.0375061035156,-103.5562515258789,28.668750762939453
1779996175379410400,0.891410400390625,345.0187683105469,-103.5562515258789,28.668750762939453
1779996175425057000,0.93705712890625,345.09375,-103.53750610351562,28.668750762939453
1779996175470661000,0.9826611328125,345.2062683105469,-103.51875305175781,28.650001525878906
1779996175516204800,1.028204833984375,345.1875,-103.51875305175781,28.631250381469727
1779996175561667000,1.0736669921875,345.35626220703125,-103.51875305175781,28.61250114440918
1779996175607021300,1.119021240234375,345.2250061035156,-103.51875305175781,28.575000762939453
1779996175652236500,1.164236572265625,345.26251220703125,-103.53750610351562,28.537500381469727
1779996175697277000,1.20927685546875,345.2250061035156,-103.5562515258789,28.537500381469727
1779996175742100500,1.2541005859375,345.3000183105469,-103.5562515258789,28.537500381469727
1779996175786660000,1.29866015625,345.3937683105469,-103.57500457763672,28.556251525878906
1779996175830901500,1.342901611328125,345.4125061035156,-103.57500457763672,28.537500381469727
1779996175874765600,1.386765625,345.4125061035156,-103.57500457763672,28.51875114440918
1779996175918187300,1.430187255859375,345.3937683105469,-103.57500457763672,28.500001907348633
1779996175961096000,1.473095947265625,345.375,-103.59375762939453,28.481250762939453
1779996176003415300,1.515415283203125,345.3375244140625,-103.59375762939453,28.462501525878906
1779996176045064200,1.557064208984375,345.3000183105469,-103.5562515258789,28.443750381469727
1779996176085959200,1.597959228515625,345.2437744140625,-103.5562515258789,28.406251907348633
1779996176126006500,1.638006591796875,345.2250061035156,-103.57500457763672,28.406251907348633
1779996176165116700,1.67711669921875,345.3937683105469,-103.5562515258789,28.406251907348633
1779996176203195600,1.715195556640625,345.3375244140625,-103.5562515258789,28.42500114440918
1779996176240150500,1.752150634765625,345.3000183105469,-103.5562515258789,28.443750381469727
1779996176275891000,1.787890869140625,345.35626220703125,-103.5562515258789,28.462501525878906
1779996176310321700,1.82232177734375,345.2250061035156,-103.51875305175781,28.462501525878906
1779996176343359200,1.855359130859375,345.1312561035156,-103.51875305175781,28.462501525878906
1779996176374922000,1.886921875,344.9625244140625,-103.51875305175781,28.462501525878906
1779996176404929000,1.916928955078125,344.98126220703125,-103.53750610351562,28.462501525878906
1779996176433326000,1.945326171875,345.0375061035156,-103.53750610351562,28.481250762939453
1779996176460051700,1.9720517578125,345.2437744140625,-103.5562515258789,28.462501525878906
1779996176485053200,1.99705322265625,345.2250061035156,-103.5562515258789,28.481250762939453
1779996176508304600,2.0203046875,345.16876220703125,-103.5562515258789,28.481250762939453
1779996176530819800,2.04281982421875,345.2062683105469,-103.59375762939453,28.500001907348633
1779996176552511200,2.06451123046875,345.1312561035156,-103.63125610351562,28.556251525878906
1779996176589847800,2.101847900390625,344.7562561035156,-103.68750762939453,28.631250381469727
1779996176605443000,2.117443115234375,333.1500244140625,-100.25625610351562,27.693750381469727
1779996176630744600,2.14274462890625,321.6187744140625,-96.75000762939453,26.756250381469727
1779996176640510200,2.15251025390625,321.6750183105469,-96.75000762939453,26.812501907348633
1779996176655794000,2.1677939453125,321.6750183105469,-96.76875305175781,26.868751525878906
1779996176666016500,2.1780166015625,321.5812683105469,-96.8062515258789,26.92500114440918
1779996176678132500,2.190132568359375,344.8687744140625,-103.70625305175781,28.875001907348633
1779996176690086100,2.202086181640625,344.70001220703125,-103.68750762939453,28.912500381469727
1779996176710445600,2.222445556640625,344.3812561035156,-103.59375762939453,29.025001525878906
1779996176721736000,2.23373583984375,344.5500183105469,-103.61250305175781,29.043750762939453
1779996176734984700,2.246984619140625,344.4375,-103.61250305175781,29.100000381469727
1779996176752584000,2.264583984375,344.4000244140625,-103.59375762939453,29.08125114440918
1779996176765376000,2.2773759765625,344.34375,-103.59375762939453,29.08125114440918
1779996176790959600,2.302959716796875,344.04376220703125,-103.61250305175781,29.118751525878906
1779996176803751000,2.3157509765625,332.51251220703125,-100.14375305175781,28.14375114440918
1779996176842107600,2.354107666015625,321.0562744140625,-96.6187515258789,27.168750762939453
1779996176854885000,2.366885009765625,321.1312561035156,-96.63750457763672,27.150001525878906
1779996176867658800,2.37965869140625,321.0187683105469,-96.67500305175781,27.131250381469727
1779996176880428800,2.3924287109375,320.79376220703125,-96.65625762939453,27.150001525878906
1779996176893196500,2.405196533203125,320.6437683105469,-96.63750457763672,27.168750762939453
1779996176905964000,2.417964111328125,320.5687561035156,-96.6187515258789,27.168750762939453
1779996176918734800,2.43073486328125,320.4750061035156,-96.6187515258789,27.168750762939453
1779996176931525600,2.443525634765625,320.5875244140625,-96.63750457763672,27.150001525878906
1779996176945115400,2.457115478515625,320.79376220703125,-96.65625762939453,27.11250114440918
1779996176963353900,2.475353759765625,320.9625244140625,-96.63750457763672,27.075000762939453
1779996176986726700,2.4987265625,321.16876220703125,-96.63750457763672,27.056251525878906
1779996177010365200,2.522365234375,321.35626220703125,-96.63750457763672,27.037500381469727
1779996177032560400,2.544560302734375,332.70001220703125,-100.0875015258789,27.993751525878906
1779996177053548500,2.565548583984375,344.15625,-103.53750610351562,28.968751907348633
1779996177073805000,2.58580517578125,344.1187744140625,-103.59375762939453,28.950000762939453
1779996177094057700,2.6060576171875,344.0625,-103.6500015258789,28.950000762939453
1779996177114150000,2.62614990234375,343.96875,-103.6500015258789,28.950000762939453
1779996177134120000,2.646119873046875,343.8937683105469,-103.66875457763672,28.98750114440918
1779996177153779500,2.665779541015625,343.8000183105469,-103.68750762939453,29.025001525878906
1779996177173479400,2.6854794921875,343.6875,-103.70625305175781,29.006250381469727
1779996177193104400,2.7051044921875,343.57501220703125,-103.70625305175781,29.025001525878906
1779996177212928000,2.724927978515625,343.5375061035156,-103.70625305175781,29.006250381469727
1779996177233228500,2.745228515625,343.4625244140625,-103.72500610351562,29.006250381469727
1779996177253229600,2.7652294921875,343.3687744140625,-103.70625305175781,29.043750762939453
1779996177273062700,2.785062744140625,343.2375183105469,-103.70625305175781,29.08125114440918
1779996177293242400,2.805242431640625,343.1437683105469,-103.72500610351562,29.100000381469727
1779996177313098800,2.8250986328125,342.9937744140625,-103.72500610351562,29.118751525878906
1779996177333008600,2.845008544921875,343.0875244140625,-103.70625305175781,29.137500762939453
1779996177353232000,2.86523193359375,343.1437683105469,-103.72500610351562,29.118751525878906
1779996177373109200,2.885109130859375,343.2562561035156,-103.7437515258789,29.118751525878906
1779996177393023500,2.9050234375,343.2375183105469,-103.7437515258789,29.137500762939453
1779996177413266400,2.925266357421875,343.1812744140625,-103.72500610351562,29.137500762939453
1779996177433128000,2.9451279296875,343.2562561035156,-103.66875457763672,29.118751525878906
1779996177453030700,2.96503076171875,343.3312683105469,-103.66875457763672,29.100000381469727
1779996177473024800,2.985024658203125,343.2375183105469,-103.66875457763672,29.100000381469727
1779996177492989700,3.00498974609375,343.3125,-103.6500015258789,29.08125114440918
1779996177512976400,3.024976318359375,343.40625,-103.66875457763672,29.062501907348633
1779996177532967700,3.0449677734375,343.5187683105469,-103.6500015258789,29.08125114440918
1779996177552971000,3.064970947265625,343.6312561035156,-103.63125610351562,29.100000381469727
1779996177572977200,3.08497705078125,343.6875,-103.63125610351562,29.118751525878906
1779996177592986600,3.104986572265625,343.6125183105469,-103.61250305175781,29.137500762939453
1779996177613372700,3.12537255859375,343.5,-103.59375762939453,29.137500762939453
1779996177633383400,3.145383544921875,343.59375,-103.61250305175781,29.100000381469727
1779996177653166300,3.165166259765625,343.6125183105469,-103.61250305175781,29.100000381469727
1779996177673028400,3.1850283203125,343.5562744140625,-103.61250305175781,29.118751525878906
1779996177693207000,3.20520703125,343.5,-103.61250305175781,29.118751525878906
1779996177713067800,3.22506787109375,343.3687744140625,-103.61250305175781,29.137500762939453
1779996177732994300,3.244994384765625,343.20001220703125,-103.6500015258789,29.156251907348633
1779996177753072600,3.26507275390625,343.3125,-103.6500015258789,29.156251907348633
1779996177773217800,3.2852177734375,343.5,-103.66875457763672,29.156251907348633
1779996177793088300,3.305088134765625,343.6312561035156,-103.68750762939453,29.17500114440918
1779996177813015000,3.32501513671875,343.6312561035156,-103.68750762939453,29.212501525878906
1779996177833440500,3.3454404296875,343.6125183105469,-103.70625305175781,29.231250762939453
1779996177853203000,3.365202880859375,343.5,-103.72500610351562,29.250001907348633
1779996177873063200,3.385063232421875,343.5187683105469,-103.72500610351562,29.231250762939453
1779996177893257200,3.40525732421875,343.6500244140625,-103.72500610351562,29.231250762939453
1779996177913433000,3.42543310546875,343.9312744140625,-103.7437515258789,29.212501525878906
1779996177933198300,3.4451982421875,344.0250244140625,-103.70625305175781,29.231250762939453
1779996177953044700,3.465044677734375,344.0625,-103.72500610351562,29.231250762939453
1779996177972970000,3.484969970703125,344.0250244140625,-103.7437515258789,29.231250762939453
1779996177993367800,3.505367919921875,343.9312744140625,-103.7437515258789,29.26875114440918
1779996178013382400,3.52538232421875,343.875,-103.72500610351562,29.287500381469727
1779996178033158100,3.545158203125,344.0250244140625,-103.72500610351562,29.287500381469727
1779996178053284400,3.565284423828125,344.13751220703125,-103.72500610351562,29.26875114440918
1779996178073097200,3.58509716796875,344.2125244140625,-103.70625305175781,29.250001907348633
1779996178093004500,3.605004638671875,344.3062744140625,-103.70625305175781,29.250001907348633
1779996178113221600,3.6252216796875,344.2875061035156,-103.72500610351562,29.250001907348633
1779996178133142000,3.64514208984375,344.2125244140625,-103.70625305175781,29.231250762939453
1779996178153184500,3.6651845703125,344.23126220703125,-103.70625305175781,29.231250762939453
1779996178173063400,3.6850634765625,344.2687683105469,-103.70625305175781,29.212501525878906
1779996178192996900,3.704996826171875,344.2875061035156,-103.70625305175781,29.193750381469727
1779996178212970000,3.724969970703125,344.2875061035156,-103.70625305175781,29.17500114440918
1779996178233221600,3.7452216796875,344.1750183105469,-103.70625305175781,29.17500114440918
1779996178253695500,3.765695556640625,344.0625,-103.70625305175781,29.193750381469727
1779996178273336600,3.785336669921875,343.95001220703125,-103.72500610351562,29.193750381469727
1779996178293115600,3.80511572265625,344.0812683105469,-103.70625305175781,29.193750381469727
1779996178312999400,3.82499951171875,344.1750183105469,-103.70625305175781,29.193750381469727
1779996178333287200,3.845287109375,344.34375,-103.72500610351562,29.17500114440918
1779996178353263000,3.86526318359375,344.4375,-103.72500610351562,29.156251907348633
1779996178373302300,3.88530224609375,344.3812561035156,-103.72500610351562,29.193750381469727
1779996178393102000,3.90510205078125,344.25,-103.72500610351562,29.193750381469727
1779996178412993300,3.9249931640625,344.2875061035156,-103.70625305175781,29.17500114440918
1779996178432951800,3.944951904296875,344.25,-103.70625305175781,29.156251907348633
1779996178452937700,3.964937744140625,344.2875061035156,-103.68750762939453,29.137500762939453
1779996178472955600,3.98495556640625,344.41876220703125,-103.68750762939453,29.118751525878906
1779996178492967000,4.004966796875,344.41876220703125,-103.66875457763672,29.100000381469727
1779996178512978200,4.024978271484375,344.3812561035156,-103.66875457763672,29.100000381469727
1779996178532978400,4.044978515625,344.3812561035156,-103.68750762939453,29.100000381469727
1779996178552950500,4.064950439453125,344.41876220703125,-103.66875457763672,29.100000381469727
1779996178572970500,4.084970458984375,344.53125,-103.63125610351562,29.100000381469727
1779996178593239300,4.1052392578125,344.53125,-103.61250305175781,29.062501907348633
1779996178613130500,4.125130615234375,344.70001220703125,-103.61250305175781,29.043750762939453
1779996178633050600,4.145050537109375,344.88751220703125,-103.59375762939453,29.025001525878906
1779996178653360000,4.165360107421875,344.8125,-103.59375762939453,29.025001525878906
1779996178673197000,4.185197021484375,344.6812744140625,-103.57500457763672,29.025001525878906
1779996178693065500,4.2050654296875,344.6812744140625,-103.5562515258789,29.025001525878906
1779996178712995800,4.224995849609375,344.70001220703125,-103.5562515258789,29.043750762939453
1779996178732959500,4.24495947265625,344.8125,-103.53750610351562,29.025001525878906
1779996178752951300,4.264951416015625,344.90625,-103.53750610351562,29.043750762939453
1779996178772959700,4.284959716796875,344.8312683105469,-103.5562515258789,29.025001525878906
1779996178792971000,4.304970947265625,344.8125,-103.57500457763672,29.043750762939453
1779996178812983800,4.32498388671875,344.7750244140625,-103.57500457763672,29.043750762939453
1779996178832984800,4.34498486328125,344.79376220703125,-103.57500457763672,29.062501907348633
1779996178852987000,4.36498681640625,344.8125,-103.5562515258789,29.062501907348633
1779996178873255200,4.385255126953125,344.71875,-103.57500457763672,29.043750762939453
1779996178893233200,4.405233154296875,344.71875,-103.61250305175781,29.043750762939453
1779996178913098200,4.42509814453125,344.60626220703125,-103.61250305175781,29.043750762939453
1779996178933020000,4.44502001953125,344.25,-103.61250305175781,29.043750762939453
1779996178953176600,4.465176513671875,344.0812683105469,-103.61250305175781,29.062501907348633
1779996178973071000,4.485071044921875,344.0062561035156,-103.57500457763672,29.062501907348633
1779996178993268000,4.50526806640625,343.95001220703125,-103.57500457763672,29.062501907348633
1779996179013113900,4.52511376953125,343.9125061035156,-103.57500457763672,29.043750762939453
1779996179033031700,4.54503173828125,343.78125,-103.61250305175781,29.006250381469727
1779996179052982300,4.564982177734375,343.7062683105469,-103.61250305175781,28.98750114440918
1779996179073167600,4.585167724609375,343.6500244140625,-103.59375762939453,29.006250381469727
1779996179093068500,4.605068603515625,343.7250061035156,-103.59375762939453,29.025001525878906
1779996179113003500,4.62500341796875,343.6500244140625,-103.57500457763672,29.025001525878906
1779996179133254700,4.645254638671875,343.4437561035156,-103.57500457763672,29.043750762939453
1779996179153109200,4.665109130859375,343.3500061035156,-103.57500457763672,29.006250381469727
1779996179173014500,4.6850146484375,343.4437561035156,-103.57500457763672,29.006250381469727
1779996179193234000,4.70523388671875,343.4437561035156,-103.53750610351562,29.006250381469727
1779996179274580500,4.78658056640625,343.40625,-103.53750610351562,28.98750114440918
1779996179320726300,4.832726318359375,343.3687744140625,-103.50000762939453,28.98750114440918
1779996179409039600,4.92103955078125,343.5,-103.50000762939453,28.950000762939453
1779996179453194000,4.965194091796875,343.4625244140625,-103.48125457763672,28.931251525878906
1779996179497342700,5.0093427734375,343.4250183105469,-103.4625015258789,28.912500381469727
1779996179585602600,5.0976025390625,331.85626220703125,-99.9937515258789,27.95625114440918
1779996179629696300,5.1416962890625,331.8187561035156,-99.9937515258789,27.975000381469727
1779996179673749800,5.185749755859375,331.7437744140625,-99.9937515258789,27.975000381469727
1779996179717746700,5.22974658203125,331.7250061035156,-99.9937515258789,27.95625114440918
1779996179761666600,5.27366650390625,332.0812683105469,-100.01250457763672,27.918750762939453
1779996179805485000,5.317485107421875,332.25,-99.9937515258789,27.900001525878906
1779996179849172500,5.36117236328125,332.34375,-99.9937515258789,27.86250114440918
1779996179892694800,5.40469482421875,332.4375,-99.9937515258789,27.86250114440918
1779996179936013300,5.448013427734375,332.4562683105469,-99.97500610351562,27.881250381469727
1779996179979082200,5.491082275390625,332.4375,-99.9937515258789,27.881250381469727
1779996180021852200,5.53385205078125,332.4937744140625,-100.03125762939453,27.900001525878906
1779996180064268300,5.576268310546875,332.60626220703125,-100.05000305175781,27.918750762939453
1779996180106267100,5.61826708984375,332.7375183105469,-100.06875610351562,27.918750762939453
1779996180147783000,5.659782958984375,332.8500061035156,-100.0875015258789,27.918750762939453
1779996180188746200,5.700746337890625,344.4562683105469,-103.5562515258789,28.912500381469727
1779996180229077000,5.741076904296875,344.3812561035156,-103.53750610351562,28.931251525878906
1779996180268696300,5.7806962890625,344.3812561035156,-103.53750610351562,28.931251525878906
1779996180307520000,5.81952001953125,344.4562683105469,-103.5562515258789,28.931251525878906
1779996180345462000,5.8574619140625,344.53125,-103.5562515258789,28.931251525878906
1779996180382434000,5.89443408203125,344.4562683105469,-103.53750610351562,28.931251525878906
1779996180418347800,5.93034765625,344.4937744140625,-103.5562515258789,28.968751907348633
1779996180453115400,5.965115478515625,344.2875061035156,-103.5562515258789,28.98750114440918
1779996180486652200,5.998652099609375,344.23126220703125,-103.5562515258789,28.98750114440918
1779996180518875600,6.030875732421875,344.1750183105469,-103.57500457763672,28.98750114440918
1779996180549718300,6.06171826171875,344.13751220703125,-103.57500457763672,29.006250381469727
1779996180579093200,6.09109326171875,344.0250244140625,-103.5562515258789,29.006250381469727
1779996180606947300,6.118947265625,343.96875,-103.57500457763672,28.968751907348633
1779996180633239600,6.145239501953125,343.9875183105469,-103.5562515258789,28.98750114440918
1779996180657914000,6.1699140625,343.9125061035156,-103.5562515258789,28.98750114440918
1779996180680934700,6.1929345703125,343.875,-103.5562515258789,28.98750114440918
1779996180702292200,6.214292236328125,343.875,-103.53750610351562,28.968751907348633
1779996180721984300,6.233984375,343.9312744140625,-103.53750610351562,28.950000762939453
1779996180740015900,6.252015869140625,343.8187561035156,-103.51875305175781,28.931251525878906
1779996180756419300,6.26841943359375,343.8937683105469,-103.51875305175781,28.912500381469727
1779996180771230000,6.28322998046875,343.875,-103.51875305175781,28.950000762939453
1779996180784488400,6.296488525390625,343.66876220703125,-103.51875305175781,28.968751907348633
1779996180796231700,6.308231689453125,343.6500244140625,-103.53750610351562,29.006250381469727
1779996180806548700,6.318548828125,343.57501220703125,-103.53750610351562,29.025001525878906
1779996180823236400,6.335236328125,343.85626220703125,-103.51875305175781,29.100000381469727
1779996180835248400,6.347248291015625,343.7250061035156,-103.5562515258789,29.156251907348633
1779996180846274000,6.358274169921875,343.5562744140625,-103.5562515258789,29.212501525878906
1779996180856531500,6.368531494140625,343.8375244140625,-103.50000762939453,29.08125114440918
1779996180866319400,6.3783193359375,344.41876220703125,-103.51875305175781,29.100000381469727
1779996180876994300,6.388994384765625,344.70001220703125,-103.50000762939453,29.118751525878906
1779996180891715800,6.4037158203125,344.98126220703125,-103.48125457763672,29.156251907348633
1779996180903829200,6.415829345703125,345.0187683105469,-103.48125457763672,29.17500114440918
1779996180917793300,6.429793212890625,345.0562744140625,-103.4625015258789,29.212501525878906
1779996180933600300,6.445600341796875,345,-103.44375610351562,29.193750381469727
1779996180951174100,6.463174072265625,344.6812744140625,-103.4625015258789,29.193750381469727
1779996180970498300,6.482498291015625,344.3625183105469,-103.50000762939453,29.212501525878906
1779996180980783400,6.492783447265625,344.2687683105469,-103.51875305175781,29.212501525878906
1779996180993040400,6.505040283203125,344.2875061035156,-103.51875305175781,29.231250762939453
1779996181040310800,6.552310791015625,344.0812683105469,-103.53750610351562,29.212501525878906
1779996181067682800,6.579682861328125,344.0250244140625,-103.51875305175781,29.231250762939453
1779996181167815200,6.679815185546875,320.98126220703125,-96.5250015258789,27.318750381469727
1779996181192842200,6.70484228515625,320.9437561035156,-96.50625610351562,27.337501525878906
1779996181217863200,6.72986328125,320.8687744140625,-96.50625610351562,27.337501525878906
1779996181242874600,6.75487451171875,320.8312683105469,-96.50625610351562,27.356250762939453
1779996181267873300,6.779873291015625,321.0187683105469,-96.48750305175781,27.39375114440918
1779996181292853500,6.804853515625,321.07501220703125,-96.48750305175781,27.375001907348633
1779996181317810200,6.82981005859375,321.09375,-96.48750305175781,27.375001907348633
1779996181342736100,6.854736083984375,321.07501220703125,-96.46875762939453,27.375001907348633
1779996181367623700,6.879623779296875,321.0187683105469,-96.46875762939453,27.356250762939453
1779996181392463400,6.90446337890625,321.1312561035156,-96.46875762939453,27.356250762939453
1779996181417245400,6.929245361328125,321.2250061035156,-96.48750305175781,27.356250762939453
1779996181441958100,6.953958251953125,321.2437744140625,-96.50625610351562,27.356250762939453
1779996181466588000,6.978587890625,344.13751220703125,-103.40625762939453,29.325000762939453
1779996181491123000,7.003123046875,344.0812683105469,-103.44375610351562,29.325000762939453
1779996181515546000,7.027546142578125,344.04376220703125,-103.4625015258789,29.287500381469727
1779996181539841000,7.051841064453125,344.1187744140625,-103.48125457763672,29.287500381469727
1779996181563989000,7.075989013671875,344.13751220703125,-103.48125457763672,29.287500381469727
1779996181587973000,7.09997314453125,344.1937561035156,-103.48125457763672,29.306251525878906
1779996181611773400,7.1237734375,344.2125244140625,-103.48125457763672,29.325000762939453
1779996181635370500,7.14737060546875,344.1187744140625,-103.48125457763672,29.325000762939453
1779996181658745900,7.170745849609375,344.0250244140625,-103.50000762939453,29.325000762939453
1779996181681875500,7.19387548828125,344.1000061035156,-103.48125457763672,29.343751907348633
1779996181704744000,7.216743896484375,344.23126220703125,-103.48125457763672,29.325000762939453
1779996181727325700,7.23932568359375,344.2687683105469,-103.4625015258789,29.325000762939453
1779996181749604400,7.261604248046875,344.2687683105469,-103.4625015258789,29.325000762939453
1779996181771562200,7.283562255859375,344.1187744140625,-103.4625015258789,29.325000762939453
1779996181793188600,7.305188720703125,344.0625,-103.44375610351562,29.325000762939453
1779996181814465300,7.32646533203125,344.1750183105469,-103.4625015258789,29.325000762939453
1779996181835371000,7.34737109375,344.4000244140625,-103.4625015258789,29.325000762939453
1779996181855902700,7.36790283203125,344.4000244140625,-103.4625015258789,29.325000762939453
1779996181876066300,7.38806640625,344.53125,-103.48125457763672,29.343751907348633
1779996181895838000,7.407837890625,344.5875244140625,-103.50000762939453,29.343751907348633
1779996181915216100,7.427216064453125,344.5875244140625,-103.48125457763672,29.325000762939453
1779996181934209300,7.446209228515625,344.71875,-103.50000762939453,29.325000762939453
1779996181952832800,7.464832763671875,344.8500061035156,-103.50000762939453,29.325000762939453
1779996181971073800,7.48307373046875,344.98126220703125,-103.48125457763672,29.325000762939453
1779996181988953600,7.50095361328125,345.0187683105469,-103.50000762939453,29.306251525878906
1779996182006501400,7.51850146484375,345.0187683105469,-103.51875305175781,29.287500381469727
1779996182023703300,7.535703369140625,345.1125183105469,-103.57500457763672,29.306251525878906
1779996182040593400,7.552593505859375,344.98126220703125,-103.59375762939453,29.287500381469727
1779996182057203000,7.569202880859375,344.98126220703125,-103.61250305175781,29.306251525878906
1779996182073532700,7.58553271484375,345.0562744140625,-103.61250305175781,29.287500381469727
1779996182089617700,7.60161767578125,345.1125183105469,-103.61250305175781,29.287500381469727
1779996182105493000,7.617492919921875,344.9625244140625,-103.61250305175781,29.26875114440918
1779996182121163800,7.633163818359375,345.0562744140625,-103.63125610351562,29.250001907348633
1779996182136662000,7.648662109375,345.0375061035156,-103.63125610351562,29.26875114440918
1779996182152015400,7.664015380859375,345.0375061035156,-103.63125610351562,29.26875114440918
1779996182167257000,7.679257080078125,345,-103.63125610351562,29.250001907348633
1779996182182393900,7.694393798828125,344.6437683105469,-103.61250305175781,29.26875114440918
1779996182197472500,7.709472412109375,344.53125,-103.63125610351562,29.231250762939453
1779996182212485400,7.7244853515625,344.5687561035156,-103.6500015258789,29.212501525878906
1779996182227467300,7.73946728515625,344.4562683105469,-103.6500015258789,29.231250762939453
1779996182242460400,7.75446044921875,344.3062744140625,-103.6500015258789,29.26875114440918
1779996182257457700,7.769457763671875,344.23126220703125,-103.63125610351562,29.287500381469727
1779996182272459300,7.784459228515625,344.3812561035156,-103.63125610351562,29.306251525878906
1779996182287500000,7.7995,344.4000244140625,-103.63125610351562,29.306251525878906
1779996182302620000,7.814619873046875,344.4375,-103.6500015258789,29.287500381469727
1779996182317790500,7.82979052734375,344.4562683105469,-103.66875457763672,29.287500381469727
1779996182333056800,7.845056884765625,344.41876220703125,-103.66875457763672,29.325000762939453
1779996182348390100,7.86039013671875,344.25,-103.66875457763672,29.343751907348633
1779996182363799300,7.87579931640625,344.15625,-103.6500015258789,29.343751907348633
1779996182379309300,7.891309326171875,344.0250244140625,-103.66875457763672,29.36250114440918
1779996182394924500,7.906924560546875,343.9875183105469,-103.68750762939453,29.381250381469727
1779996182410674000,7.922673828125,344.1750183105469,-103.68750762939453,29.381250381469727
1779996182426538200,7.938538330078125,344.13751220703125,-103.66875457763672,29.400001525878906
1779996182442495700,7.954495849609375,344.13751220703125,-103.68750762939453,29.400001525878906
1779996182458573600,7.970573486328125,344.4375,-103.66875457763672,29.400001525878906
1779996182474789400,7.986789306640625,344.4937744140625,-103.6500015258789,29.381250381469727
1779996182491111000,8.00311083984375,344.3812561035156,-103.63125610351562,29.381250381469727
1779996182507556900,8.019556884765626,344.2875061035156,-103.63125610351562,29.36250114440918
1779996182524125400,8.03612548828125,344.4375,-103.63125610351562,29.36250114440918
1779996182540817000,8.05281689453125,344.3625183105469,-103.61250305175781,29.36250114440918
1779996182557630000,8.0696298828125,344.15625,-103.63125610351562,29.36250114440918
1779996182574564400,8.086564453125,344.15625,-103.63125610351562,29.325000762939453
1779996182591618300,8.103618408203126,344.23126220703125,-103.63125610351562,29.325000762939453
1779996182608790500,8.12079052734375,344.25,-103.63125610351562,29.343751907348633
1779996182626078000,8.138077880859376,344.1750183105469,-103.63125610351562,29.306251525878906
1779996182643480000,8.15547998046875,344.34375,-103.61250305175781,29.325000762939453
1779996182660994600,8.17299462890625,344.4562683105469,-103.61250305175781,29.325000762939453
1779996182678636500,8.190636474609375,344.51251220703125,-103.61250305175781,29.306251525878906
1779996182696367900,8.208367919921875,344.4562683105469,-103.59375762939453,29.306251525878906
1779996182714222300,8.226222412109376,344.2687683105469,-103.61250305175781,29.287500381469727
1779996182732274200,8.244274169921875,344.1750183105469,-103.63125610351562,29.287500381469727
1779996182751343400,8.26334326171875,344.2875061035156,-103.6500015258789,29.26875114440918
1779996182771895000,8.28389501953125,344.3062744140625,-103.6500015258789,29.26875114440918
1779996182792499700,8.304499755859375,344.25,-103.6500015258789,29.250001907348633
1779996182813225000,8.325224853515625,344.25,-103.6500015258789,29.250001907348633
1779996182833749500,8.34574951171875,344.25,-103.63125610351562,29.250001907348633
1779996182853634300,8.36563427734375,344.41876220703125,-103.63125610351562,29.250001907348633
1779996182873755100,8.385755126953125,344.41876220703125,-103.63125610351562,29.250001907348633
1779996182893379600,8.405379638671874,344.4937744140625,-103.63125610351562,29.231250762939453
1779996182913381000,8.425381103515624,344.6437683105469,-103.6500015258789,29.231250762939453
1779996182933371600,8.44537158203125,344.51251220703125,-103.66875457763672,29.212501525878906
1779996182953471000,8.465470947265626,344.53125,-103.66875457763672,29.17500114440918
1779996182973168600,8.485168701171874,344.60626220703125,-103.6500015258789,29.193750381469727
1779996182993004300,8.50500439453125,344.5875244140625,-103.6500015258789,29.212501525878906
1779996183013254400,8.52525439453125,344.5875244140625,-103.6500015258789,29.250001907348633
1779996183033373700,8.545373779296876,344.6812744140625,-103.6500015258789,29.231250762939453
1779996183053144000,8.56514404296875,344.6437683105469,-103.66875457763672,29.231250762939453
1779996183073030400,8.585030517578126,344.60626220703125,-103.68750762939453,29.250001907348633
1779996183092968700,8.60496875,344.625,-103.66875457763672,29.26875114440918
1779996183112943400,8.624943359375,344.625,-103.68750762939453,29.287500381469727
1779996183133332500,8.64533251953125,344.70001220703125,-103.68750762939453,29.325000762939453
1779996183153338000,8.665338134765625,344.4937744140625,-103.70625305175781,29.325000762939453
1779996183173132800,8.6851328125,344.4375,-103.72500610351562,29.306251525878906
1779996183193014000,8.705013916015625,344.32501220703125,-103.72500610351562,29.287500381469727
1779996183213216300,8.72521630859375,344.41876220703125,-103.72500610351562,29.26875114440918
1779996183233077200,8.7450771484375,344.4937744140625,-103.72500610351562,29.26875114440918
1779996183253004300,8.76500439453125,344.3062744140625,-103.72500610351562,29.306251525878906
1779996183272989000,8.784989013671876,344.0250244140625,-103.72500610351562,29.306251525878906
1779996183292969200,8.80496923828125,343.9875183105469,-103.7437515258789,29.287500381469727
1779996183312970500,8.824970458984374,344.0625,-103.70625305175781,29.287500381469727
1779996183332970000,8.844969970703126,344.13751220703125,-103.70625305175781,29.287500381469727
1779996183352976000,8.864975830078125,344.13751220703125,-103.66875457763672,29.287500381469727
1779996183372984300,8.884984375,344.13751220703125,-103.68750762939453,29.26875114440918
1779996183393335600,8.90533544921875,344.1187744140625,-103.66875457763672,29.26875114440918
1779996183413180700,8.9251806640625,344.1750183105469,-103.66875457763672,29.287500381469727
1779996183433073400,8.945073486328125,344.2687683105469,-103.66875457763672,29.26875114440918
1779996183453041200,8.965041259765625,344.32501220703125,-103.66875457763672,29.250001907348633
1779996183473064400,8.985064453125,344.4562683105469,-103.63125610351562,29.250001907348633
1779996183493009700,9.005009765625,344.4750061035156,-103.6500015258789,29.26875114440918
1779996183512984600,9.024984619140625,344.4000244140625,-103.61250305175781,29.26875114440918
1779996183533179000,9.045178955078125,344.32501220703125,-103.61250305175781,29.250001907348633
1779996183553073700,9.06507373046875,344.3062744140625,-103.61250305175781,29.212501525878906
1779996183573275000,9.08527490234375,344.4750061035156,-103.63125610351562,29.212501525878906
1779996183593132000,9.105132080078125,344.4562683105469,-103.6500015258789,29.212501525878906
1779996183613032700,9.12503271484375,344.23126220703125,-103.6500015258789,29.212501525878906
1779996183632982300,9.144982177734375,344.13751220703125,-103.6500015258789,29.212501525878906
1779996183653014000,9.165013916015624,344.13751220703125,-103.63125610351562,29.231250762939453
1779996183672983600,9.184983642578125,344.3062744140625,-103.63125610351562,29.250001907348633
1779996183693236000,9.205236083984374,344.3812561035156,-103.6500015258789,29.250001907348633
1779996183713122000,9.2251220703125,344.34375,-103.6500015258789,29.231250762939453
1779996183733045200,9.245045166015625,344.2125244140625,-103.6500015258789,29.17500114440918
1779996183752993000,9.264992919921875,344.32501220703125,-103.6500015258789,29.17500114440918
1779996183772973300,9.284973388671874,344.32501220703125,-103.66875457763672,29.17500114440918
1779996183792970000,9.304969970703125,344.2687683105469,-103.6500015258789,29.17500114440918
1779996183812978000,9.32497802734375,344.3062744140625,-103.66875457763672,29.17500114440918
1779996183832978200,9.344978271484376,344.32501220703125,-103.68750762939453,29.193750381469727
1779996183852981200,9.364981201171876,344.4562683105469,-103.68750762939453,29.17500114440918
1779996183872988700,9.38498876953125,344.5687561035156,-103.66875457763672,29.193750381469727
1779996183892985000,9.404985107421876,344.60626220703125,-103.63125610351562,29.193750381469727
1779996183912984000,9.424984130859375,344.6812744140625,-103.66875457763672,29.17500114440918
1779996183933190100,9.445190185546876,344.7750244140625,-103.68750762939453,29.17500114440918
1779996183953084200,9.465084228515625,344.6437683105469,-103.68750762939453,29.156251907348633
1779996183973017600,9.485017578125,344.3812561035156,-103.66875457763672,29.156251907348633
1779996183993248300,9.505248291015626,344.23126220703125,-103.66875457763672,29.137500762939453
1779996184013106000,9.52510595703125,344.23126220703125,-103.68750762939453,29.118751525878906
1779996184033186000,9.54518603515625,344.3062744140625,-103.68750762939453,29.137500762939453
1779996184114541600,9.62654150390625,344.15625,-103.70625305175781,29.156251907348633
1779996184204829200,9.7168291015625,344.04376220703125,-103.72500610351562,29.17500114440918
1779996184293111800,9.80511181640625,343.9125061035156,-103.72500610351562,29.17500114440918
1779996184337246700,9.849246826171875,343.85626220703125,-103.72500610351562,29.17500114440918
1779996184381371100,9.89337109375,343.8187561035156,-103.7437515258789,29.156251907348633
1779996184425478100,9.93747802734375,343.9875183105469,-103.78125762939453,29.156251907348633
1779996184469557800,9.981557861328126,344.0625,-103.7437515258789,29.17500114440918
1779996184513597400,10.025597412109375,343.9312744140625,-103.7437515258789,29.156251907348633
1779996184557580500,10.06958056640625,344.0250244140625,-103.78125762939453,29.156251907348633
1779996184601486300,10.113486328125,344.0812683105469,-103.80000305175781,29.156251907348633
1779996184645290800,10.157290771484375,344.13751220703125,-103.80000305175781,29.17500114440918
1779996184688964000,10.200964111328124,344.1000061035156,-103.80000305175781,29.193750381469727
1779996184732472800,10.244472900390624,344.2125244140625,-103.80000305175781,29.193750381469727
1779996184775777000,10.287777099609375,344.2687683105469,-103.76250457763672,29.17500114440918
1779996184818832600,10.33083251953125,344.3062744140625,-103.7437515258789,29.17500114440918
1779996184861590000,10.373590087890625,344.4000244140625,-103.72500610351562,29.193750381469727
1779996184903991800,10.41599169921875,344.4562683105469,-103.72500610351562,29.212501525878906
1779996184945977600,10.4579775390625,344.4562683105469,-103.72500610351562,29.231250762939453
1779996184987483000,10.49948291015625,344.4750061035156,-103.70625305175781,29.231250762939453
1779996185028432100,10.54043212890625,344.51251220703125,-103.70625305175781,29.231250762939453
1779996185068750800,10.580750732421874,344.4000244140625,-103.66875457763672,29.212501525878906
1779996185108358400,10.6203583984375,344.4375,-103.68750762939453,29.212501525878906
1779996185147171000,10.659171142578124,344.4562683105469,-103.66875457763672,29.212501525878906
1779996185185102300,10.697102294921875,344.53125,-103.63125610351562,29.231250762939453
1779996185222064400,10.734064453125,344.51251220703125,-103.61250305175781,29.212501525878906
1779996185257969000,10.769968994140624,344.4375,-103.59375762939453,29.193750381469727
1779996185292727800,10.804727783203125,344.41876220703125,-103.59375762939453,29.193750381469727
1779996185326256000,10.838256103515626,344.1750183105469,-103.59375762939453,29.193750381469727
1779996185358473000,10.870472900390626,344.1187744140625,-103.61250305175781,29.193750381469727
1779996185389300200,10.90130029296875,344.1000061035156,-103.61250305175781,29.17500114440918
1779996185418669300,10.93066943359375,344.1187744140625,-103.63125610351562,29.156251907348633
1779996185446518300,10.958518310546875,344.1000061035156,-103.63125610351562,29.137500762939453
1779996185472794600,10.984794677734374,344.0812683105469,-103.63125610351562,29.118751525878906
1779996185497456600,11.00945654296875,344.13751220703125,-103.63125610351562,29.118751525878906
1779996185520474400,11.032474365234375,343.96875,-103.61250305175781,29.137500762939453
1779996185541830700,11.05383056640625,343.8187561035156,-103.61250305175781,29.156251907348633
1779996185561527600,11.073527587890625,343.7062683105469,-103.63125610351562,29.17500114440918
1779996185579559400,11.091559326171875,343.76251220703125,-103.63125610351562,29.17500114440918
1779996185595955700,11.107955810546875,343.7062683105469,-103.6500015258789,29.17500114440918
1779996185610751200,11.122751220703124,343.8937683105469,-103.66875457763672,29.17500114440918
1779996185623993000,11.1359931640625,343.9125061035156,-103.66875457763672,29.17500114440918
1779996185635740400,11.147740478515624,343.96875,-103.68750762939453,29.193750381469727
1779996185646083800,11.158083740234375,344.0062561035156,-103.66875457763672,29.212501525878906
1779996185662778600,11.174778564453124,344.1187744140625,-103.6500015258789,29.212501525878906
1779996185674807000,11.18680712890625,343.96875,-103.6500015258789,29.212501525878906
1779996185685870300,11.197870361328125,343.85626220703125,-103.63125610351562,29.212501525878906
1779996185696274700,11.208274658203125,344.2875061035156,-103.6500015258789,29.306251525878906
1779996185706089000,11.2180888671875,344.4750061035156,-103.72500610351562,29.306251525878906
1779996185716798500,11.228798583984375,344.23126220703125,-103.68750762939453,29.325000762939453
1779996185731544300,11.24354443359375,344.2875061035156,-103.63125610351562,29.287500381469727
1779996185743695600,11.255695556640624,344.1937561035156,-103.63125610351562,29.287500381469727
1779996185757695200,11.2696953125,344.0812683105469,-103.6500015258789,29.306251525878906
1779996185773501000,11.2855009765625,344.1187744140625,-103.66875457763672,29.26875114440918
1779996185791090700,11.303090576171876,344.2125244140625,-103.66875457763672,29.231250762939453
1779996185810413000,11.3224130859375,344.2687683105469,-103.66875457763672,29.17500114440918
1779996185820705300,11.332705322265625,344.32501220703125,-103.68750762939453,29.17500114440918
1779996185831408000,11.343408203125,344.32501220703125,-103.68750762939453,29.17500114440918
1779996185842537200,11.354537109375,344.25,-103.68750762939453,29.17500114440918
1779996185854034200,11.3660341796875,344.13751220703125,-103.70625305175781,29.156251907348633
1779996185865916400,11.37791650390625,344.15625,-103.72500610351562,29.156251907348633
1779996185878174700,11.3901748046875,344.15625,-103.72500610351562,29.137500762939453
1779996185890840000,11.402840087890626,344.34375,-103.72500610351562,29.137500762939453
1779996185905345800,11.417345703125,344.4562683105469,-103.7437515258789,29.137500762939453
1779996185925568800,11.43756884765625,344.3625183105469,-103.72500610351562,29.156251907348633
1779996185949029000,11.461029052734375,344.3062744140625,-103.70625305175781,29.137500762939453
1779996185971413800,11.483413818359375,344.2125244140625,-103.70625305175781,29.137500762939453
1779996185992777200,11.504777099609376,344.1187744140625,-103.72500610351562,29.137500762939453
1779996186013382700,11.525382568359374,344.13751220703125,-103.70625305175781,29.137500762939453
1779996186033528300,11.5455283203125,344.25,-103.70625305175781,29.137500762939453
1779996186053550300,11.56555029296875,344.1000061035156,-103.68750762939453,29.137500762939453
1779996186073346600,11.5853466796875,344.04376220703125,-103.70625305175781,29.137500762939453
1779996186093184000,11.60518408203125,344.15625,-103.72500610351562,29.137500762939453
1779996186113530600,11.625530517578126,344.2687683105469,-103.7437515258789,29.137500762939453
1779996186133456400,11.645456298828124,344.25,-103.72500610351562,29.156251907348633
1779996186153176000,11.665176025390625,344.15625,-103.70625305175781,29.17500114440918
1779996186173010700,11.6850107421875,344.25,-103.68750762939453,29.17500114440918
1779996186192938800,11.704938720703124,344.13751220703125,-103.68750762939453,29.17500114440918
1779996186212925400,11.724925537109375,344.15625,-103.66875457763672,29.17500114440918
1779996186233193000,11.74519287109375,344.2687683105469,-103.66875457763672,29.17500114440918
1779996186253378000,11.7653779296875,344.25,-103.66875457763672,29.212501525878906
1779996186273592600,11.785592529296874,344.23126220703125,-103.6500015258789,29.26875114440918
1779996186293523000,11.80552294921875,344.25,-103.63125610351562,29.325000762939453
1779996186313695200,11.8256953125,344.32501220703125,-103.6500015258789,29.36250114440918
1779996186333798100,11.845798095703126,344.32501220703125,-103.66875457763672,29.381250381469727
1779996186353323000,11.865322998046874,344.4562683105469,-103.6500015258789,29.418750762939453
1779996186373256000,11.885255859375,344.5500183105469,-103.63125610351562,29.418750762939453
1779996186393023500,11.9050234375,344.7375183105469,-103.63125610351562,29.437501907348633
1779996186412922000,11.924922119140625,344.7375183105469,-103.61250305175781,29.45625114440918
1779996186433104000,11.945103759765624,344.88751220703125,-103.63125610351562,29.45625114440918
1779996186453010700,11.9650107421875,344.9625244140625,-103.63125610351562,29.45625114440918
1779996186472978200,11.984978271484374,344.7562561035156,-103.63125610351562,29.475000381469727
1779996186493429800,12.0054296875,344.79376220703125,-103.6500015258789,29.475000381469727
1779996186513205200,12.025205322265625,344.6437683105469,-103.66875457763672,29.45625114440918
1779996186533059800,12.045059814453126,344.4937744140625,-103.66875457763672,29.418750762939453
1779996186553249300,12.065249267578125,344.4562683105469,-103.66875457763672,29.36250114440918
1779996186573106000,12.08510595703125,344.71875,-103.70625305175781,29.306251525878906
1779996186593022700,12.105022705078126,344.625,-103.70625305175781,29.26875114440918
1779996186613238800,12.12523876953125,344.4937744140625,-103.68750762939453,29.231250762939453
1779996186633107500,12.145107421875,344.4562683105469,-103.68750762939453,29.212501525878906
1779996186653027600,12.165027587890625,344.41876220703125,-103.68750762939453,29.193750381469727
1779996186673012500,12.185012451171875,344.3625183105469,-103.70625305175781,29.17500114440918
1779996186693299200,12.20529931640625,344.23126220703125,-103.68750762939453,29.17500114440918
1779996186713150500,12.225150390625,344.25,-103.68750762939453,29.137500762939453
1779996186733052700,12.245052734375,344.1750183105469,-103.68750762939453,29.137500762939453
1779996186752996400,12.264996337890626,344.15625,-103.68750762939453,29.137500762939453
1779996186772970500,12.284970458984375,344.25,-103.70625305175781,29.118751525878906
1779996186792966100,12.304966064453126,344.2875061035156,-103.68750762939453,29.100000381469727
1779996186813176600,12.325176513671876,344.41876220703125,-103.68750762939453,29.118751525878906
1779996186833076500,12.345076416015624,344.51251220703125,-103.66875457763672,29.118751525878906
1779996186853014800,12.365014892578126,344.7375183105469,-103.66875457763672,29.156251907348633
1779996186873020400,12.3850205078125,344.5500183105469,-103.6500015258789,29.156251907348633
1779996186892987000,12.40498681640625,344.7562561035156,-103.6500015258789,29.17500114440918
1779996186912974000,12.42497412109375,344.79376220703125,-103.66875457763672,29.17500114440918
1779996186932975000,12.44497509765625,344.7375183105469,-103.6500015258789,29.17500114440918
1779996186952972300,12.46497216796875,344.7750244140625,-103.68750762939453,29.137500762939453
1779996186972986000,12.484986083984374,344.8500061035156,-103.66875457763672,29.137500762939453
1779996186992988200,12.50498828125,344.8500061035156,-103.66875457763672,29.137500762939453
1779996187012989700,12.52498974609375,344.71875,-103.68750762939453,29.118751525878906
1779996187032994600,12.54499462890625,344.60626220703125,-103.70625305175781,29.118751525878906
1779996187052990700,12.56499072265625,344.7750244140625,-103.66875457763672,29.118751525878906
1779996187072989700,12.58498974609375,344.8500061035156,-103.66875457763672,29.118751525878906
1779996187093290200,12.605290283203125,344.7562561035156,-103.66875457763672,29.156251907348633
1779996187113481000,12.62548095703125,344.6437683105469,-103.66875457763672,29.137500762939453
1779996187133276700,12.645276611328125,344.6625061035156,-103.66875457763672,29.17500114440918
1779996187153184300,12.665184326171875,344.6437683105469,-103.6500015258789,29.17500114440918
1779996187173039000,12.6850390625,344.60626220703125,-103.66875457763672,29.17500114440918
1779996187192968000,12.704968017578125,344.4562683105469,-103.66875457763672,29.193750381469727
1779996187212947700,12.72494775390625,344.4750061035156,-103.6500015258789,29.193750381469727
1779996187232942600,12.744942626953126,344.5875244140625,-103.66875457763672,29.193750381469727
1779996187252962800,12.764962890625,344.6437683105469,-103.6500015258789,29.231250762939453
1779996187273514800,12.7855146484375,344.6437683105469,-103.63125610351562,29.250001907348633
1779996187293259800,12.805259765625,344.5875244140625,-103.6500015258789,29.26875114440918
1779996187313099000,12.82509912109375,344.625,-103.6500015258789,29.26875114440918
1779996187333048600,12.845048583984376,344.7750244140625,-103.6500015258789,29.287500381469727
1779996187352983600,12.864983642578125,344.7750244140625,-103.66875457763672,29.26875114440918
1779996187373226000,12.88522607421875,344.7562561035156,-103.66875457763672,29.26875114440918
1779996187393101600,12.9051015625,344.79376220703125,-103.66875457763672,29.287500381469727
1779996187413023200,12.925023193359374,344.8500061035156,-103.66875457763672,29.287500381469727
1779996187432986400,12.944986328125,344.8687744140625,-103.66875457763672,29.26875114440918
1779996187452965600,12.964965576171876,344.7375183105469,-103.68750762939453,29.26875114440918
1779996187472973600,12.9849736328125,344.7750244140625,-103.68750762939453,29.26875114440918
1779996187492975900,13.004975830078125,344.8500061035156,-103.66875457763672,29.26875114440918
1779996187512972800,13.024972900390624,344.7750244140625,-103.66875457763672,29.231250762939453
1779996187532974000,13.04497412109375,344.71875,-103.66875457763672,29.250001907348633
1779996187552980500,13.06498046875,344.5875244140625,-103.66875457763672,29.212501525878906
1779996187572985000,13.084985107421875,344.5500183105469,-103.68750762939453,29.212501525878906
1779996187592991500,13.104991455078125,344.4750061035156,-103.66875457763672,29.193750381469727
1779996187613190400,13.1251904296875,344.51251220703125,-103.66875457763672,29.212501525878906
1779996187633088300,13.145088134765626,344.3812561035156,-103.70625305175781,29.193750381469727
1779996187652997000,13.1649970703125,344.2875061035156,-103.70625305175781,29.193750381469727
1779996187672968700,13.18496875,344.1937561035156,-103.68750762939453,29.212501525878906
1779996187692962600,13.204962646484375,344.0812683105469,-103.66875457763672,29.212501525878906
1779996187713183500,13.22518359375,343.96875,-103.68750762939453,29.212501525878906
1779996187733086000,13.2450859375,343.95001220703125,-103.66875457763672,29.231250762939453
1779996187753021200,13.265021240234375,343.9312744140625,-103.6500015258789,29.212501525878906
1779996187772989200,13.2849892578125,344.0062561035156,-103.6500015258789,29.212501525878906
1779996187792969000,13.304968994140625,344.0062561035156,-103.66875457763672,29.231250762939453
1779996187812975000,13.32497509765625,343.9875183105469,-103.66875457763672,29.250001907348633
1779996187833384200,13.34538427734375,343.9125061035156,-103.66875457763672,29.250001907348633
1779996187853210000,13.365210205078125,343.9312744140625,-103.66875457763672,29.26875114440918
1779996187873454300,13.385454345703126,343.9125061035156,-103.66875457763672,29.26875114440918
1779996187893521200,13.405521240234375,344.1000061035156,-103.6500015258789,29.26875114440918
1779996187913220000,13.42522021484375,344.15625,-103.6500015258789,29.26875114440918
1779996187933044200,13.445044189453125,344.2125244140625,-103.63125610351562,29.287500381469727
1779996187953157000,13.4651572265625,344.0812683105469,-103.63125610351562,29.287500381469727
1779996187973027300,13.48502734375,344.15625,-103.61250305175781,29.287500381469727
1779996187992968000,13.504968017578125,344.32501220703125,-103.63125610351562,29.26875114440918
1779996188012960000,13.5249599609375,344.4562683105469,-103.61250305175781,29.26875114440918
1779996188032962800,13.544962890625,344.4750061035156,-103.61250305175781,29.250001907348633
1779996188052965400,13.56496533203125,344.71875,-103.6500015258789,29.250001907348633
1779996188072973000,13.58497314453125,344.60626220703125,-103.63125610351562,29.250001907348633
1779996188092983800,13.60498388671875,344.51251220703125,-103.63125610351562,29.212501525878906
1779996188112983600,13.624983642578124,344.6625061035156,-103.63125610351562,29.231250762939453
1779996188132970200,13.64497021484375,344.8500061035156,-103.61250305175781,29.250001907348633
1779996188153256000,13.665255859375,344.8125,-103.61250305175781,29.250001907348633
1779996188173653500,13.685653564453125,344.70001220703125,-103.63125610351562,29.231250762939453
1779996188193580800,13.705580810546875,344.5687561035156,-103.63125610351562,29.231250762939453
1779996188213457200,13.72545703125,344.53125,-103.6500015258789,29.212501525878906
1779996188233160700,13.74516064453125,344.51251220703125,-103.66875457763672,29.193750381469727
1779996188253003800,13.765003662109375,344.4937744140625,-103.66875457763672,29.212501525878906
1779996188273301000,13.785301025390625,344.3812561035156,-103.68750762939453,29.231250762939453
1779996188293103000,13.80510302734375,344.23126220703125,-103.68750762939453,29.231250762939453
1779996188313005800,13.825005859375,344.13751220703125,-103.68750762939453,29.231250762939453
1779996188333159400,13.845159423828125,344.0812683105469,-103.68750762939453,29.26875114440918
1779996188353047000,13.865047119140625,343.9312744140625,-103.66875457763672,29.250001907348633
1779996188372991000,13.884990966796876,343.96875,-103.68750762939453,29.26875114440918
1779996188393428500,13.905428466796875,343.8937683105469,-103.70625305175781,29.287500381469727
1779996188413207300,13.925207275390624,343.78125,-103.70625305175781,29.26875114440918
1779996188433065700,13.945065673828125,343.78125,-103.70625305175781,29.287500381469727
1779996188453247200,13.965247314453125,343.8000183105469,-103.70625305175781,29.26875114440918
1779996188473109500,13.985109619140625,343.78125,-103.68750762939453,29.287500381469727
1779996188493019100,14.00501904296875,343.9125061035156,-103.68750762939453,29.306251525878906
1779996188512987600,14.024987548828125,344.0250244140625,-103.66875457763672,29.325000762939453
1779996188532962300,14.04496240234375,344.04376220703125,-103.66875457763672,29.343751907348633
1779996188552960300,14.064960205078124,344.15625,-103.66875457763672,29.343751907348633
1779996188572967200,14.08496728515625,344.23126220703125,-103.66875457763672,29.325000762939453
1779996188592979500,14.1049794921875,344.32501220703125,-103.66875457763672,29.325000762939453
1779996188612980500,14.12498046875,344.4937744140625,-103.68750762939453,29.287500381469727
1779996188632983300,14.1449833984375,344.60626220703125,-103.70625305175781,29.250001907348633
1779996188653191400,14.16519140625,344.6437683105469,-103.70625305175781,29.26875114440918
1779996188673086000,14.1850859375,344.6812744140625,-103.70625305175781,29.250001907348633
1779996188693030000,14.20502978515625,344.7750244140625,-103.70625305175781,29.250001907348633
1779996188713027000,14.225027099609376,344.9250183105469,-103.68750762939453,29.26875114440918
1779996188732987400,14.2449873046875,344.9250183105469,-103.6500015258789,29.231250762939453
1779996188752971300,14.26497119140625,344.8687744140625,-103.6500015258789,29.231250762939453
1779996188772970800,14.284970703125,344.9625244140625,-103.66875457763672,29.212501525878906
1779996188792976100,14.30497607421875,344.90625,-103.6500015258789,29.212501525878906
1779996188813080300,14.325080322265626,344.79376220703125,-103.6500015258789,29.212501525878906
1779996188833037800,14.345037841796875,344.79376220703125,-103.63125610351562,29.193750381469727
1779996188853009000,14.3650087890625,344.79376220703125,-103.63125610351562,29.17500114440918
1779996188873248500,14.38524853515625,344.79376220703125,-103.59375762939453,29.17500114440918
1779996188893123800,14.405123779296876,344.7750244140625,-103.63125610351562,29.17500114440918
1779996188913041200,14.425041259765624,344.6437683105469,-103.61250305175781,29.17500114440918
1779996188932996900,14.444996826171876,344.5500183105469,-103.57500457763672,29.193750381469727
1779996188952971500,14.464971435546875,344.4937744140625,-103.57500457763672,29.193750381469727
1779996188973003300,14.485003173828124,344.4375,-103.5562515258789,29.193750381469727
1779996188992991500,14.504991455078125,344.53125,-103.57500457763672,29.193750381469727
1779996189012987400,14.5249873046875,344.4750061035156,-103.57500457763672,29.17500114440918
1779996189033181700,14.545181640625,344.3625183105469,-103.61250305175781,29.193750381469727
1779996189053081000,14.5650810546875,344.3812561035156,-103.63125610351562,29.17500114440918
1779996189073018400,14.585018310546875,344.2875061035156,-103.63125610351562,29.17500114440918
1779996189092990200,14.604990234375,344.1937561035156,-103.63125610351562,29.17500114440918
1779996189112972000,14.624971923828125,344.2125244140625,-103.6500015258789,29.193750381469727
1779996189132969700,14.6449697265625,344.2125244140625,-103.6500015258789,29.193750381469727
1779996189153240300,14.665240234375,344.25,-103.66875457763672,29.231250762939453
1779996189173267700,14.685267822265626,344.15625,-103.68750762939453,29.231250762939453
1779996189193261300,14.70526123046875,344.1750183105469,-103.6500015258789,29.231250762939453
1779996189213110000,14.725110107421875,344.23126220703125,-103.6500015258789,29.231250762939453
1779996189233020700,14.745020751953126,344.23126220703125,-103.66875457763672,29.250001907348633
1779996189252981500,14.7649814453125,344.15625,-103.70625305175781,29.231250762939453
1779996189272962800,14.784962890625,344.13751220703125,-103.70625305175781,29.231250762939453
1779996189293326600,14.80532666015625,343.9875183105469,-103.72500610351562,29.212501525878906
1779996189313677300,14.82567724609375,343.9312744140625,-103.68750762939453,29.231250762939453
1779996189333332200,14.845332275390625,343.9125061035156,-103.66875457763672,29.231250762939453
1779996189353108000,14.86510791015625,343.95001220703125,-103.68750762939453,29.231250762939453
1779996189373433300,14.885433349609375,343.9125061035156,-103.68750762939453,29.250001907348633
1779996189393339600,14.905339599609375,344.0062561035156,-103.68750762939453,29.250001907348633
1779996189413110500,14.925110595703124,344.04376220703125,-103.68750762939453,29.231250762939453
1779996189432990700,14.94499072265625,344.1187744140625,-103.6500015258789,29.231250762939453
1779996189452936700,14.964936767578125,344.0250244140625,-103.61250305175781,29.212501525878906
1779996189472927200,14.98492724609375,344.1937561035156,-103.61250305175781,29.212501525878906
1779996189492941300,15.00494140625,344.2125244140625,-103.6500015258789,29.231250762939453
1779996189512960500,15.02496044921875,344.1937561035156,-103.6500015258789,29.231250762939453
1779996189533214000,15.0452138671875,344.13751220703125,-103.66875457763672,29.212501525878906
1779996189553100500,15.0651005859375,344.25,-103.6500015258789,29.212501525878906
1779996189573028900,15.08502880859375,344.3062744140625,-103.61250305175781,29.231250762939453
1779996189593257200,15.10525732421875,344.25,-103.61250305175781,29.250001907348633
1779996189613314000,15.12531396484375,344.25,-103.6500015258789,29.231250762939453
1779996189633129000,15.14512890625,344.2125244140625,-103.66875457763672,29.212501525878906
1779996189653287200,15.165287109375,344.1750183105469,-103.6500015258789,29.231250762939453
1779996189673316000,15.185316162109375,344.2687683105469,-103.6500015258789,29.231250762939453
1779996189693113300,15.20511328125,344.13751220703125,-103.6500015258789,29.193750381469727
1779996189713003800,15.225003662109375,344.15625,-103.6500015258789,29.193750381469727
1779996189732949000,15.244948974609375,344.1187744140625,-103.66875457763672,29.212501525878906
1779996189753052400,15.265052490234375,344.04376220703125,-103.68750762939453,29.212501525878906
1779996189773006000,15.285006103515625,343.875,-103.70625305175781,29.212501525878906
1779996189792983300,15.3049833984375,343.7250061035156,-103.70625305175781,29.212501525878906
1779996189812968200,15.32496826171875,343.8187561035156,-103.68750762939453,29.231250762939453
1779996189832968400,15.344968505859375,344.04376220703125,-103.66875457763672,29.250001907348633
1779996189852974000,15.36497412109375,344.1750183105469,-103.66875457763672,29.250001907348633
1779996189873297200,15.385297119140626,344.1000061035156,-103.66875457763672,29.231250762939453
1779996189893140000,15.405139892578125,344.15625,-103.66875457763672,29.231250762939453
1779996189913038300,15.425038330078126,344.1750183105469,-103.66875457763672,29.231250762939453
1779996189933067300,15.4450673828125,344.1000061035156,-103.66875457763672,29.231250762939453
1779996189953000200,15.465000244140626,344.13751220703125,-103.66875457763672,29.212501525878906
1779996189973245200,15.4852451171875,344.1750183105469,-103.68750762939453,29.212501525878906
1779996189993595100,15.50559521484375,344.2875061035156,-103.68750762939453,29.250001907348633
1779996190013783600,15.525783447265624,344.2125244140625,-103.68750762939453,29.26875114440918
1779996190033341200,15.545341064453124,344.1937561035156,-103.70625305175781,29.287500381469727
1779996190053371100,15.56537109375,344.25,-103.7437515258789,29.306251525878906
1779996190073121500,15.58512158203125,344.4375,-103.7437515258789,29.306251525878906
1779996190092978700,15.604978759765626,344.4750061035156,-103.72500610351562,29.343751907348633
1779996190113047300,15.62504736328125,344.34375,-103.7437515258789,29.343751907348633
1779996190133390000,15.64539013671875,344.0812683105469,-103.7437515258789,29.36250114440918
1779996190153341200,15.665341064453125,343.85626220703125,-103.7437515258789,29.381250381469727
1779996190173325600,15.68532568359375,343.8187561035156,-103.76250457763672,29.418750762939453
1779996190193103000,15.70510302734375,343.8187561035156,-103.7437515258789,29.437501907348633
1779996190212987600,15.724987548828125,343.7250061035156,-103.7437515258789,29.475000381469727
1779996190232945200,15.744945068359375,343.875,-103.7437515258789,29.475000381469727
1779996190252942600,15.764942626953125,344.0062561035156,-103.7437515258789,29.475000381469727
1779996190272948700,15.78494873046875,344.0062561035156,-103.70625305175781,29.475000381469727
1779996190292962300,15.80496240234375,343.8937683105469,-103.70625305175781,29.475000381469727
1779996190312978200,15.824978271484374,343.76251220703125,-103.72500610351562,29.45625114440918
1779996190333414400,15.845414306640626,343.59375,-103.72500610351562,29.437501907348633
1779996190353216000,15.865216064453126,343.5562744140625,-103.68750762939453,29.418750762939453
1779996190373082000,15.88508203125,343.40625,-103.68750762939453,29.381250381469727
1779996190392999200,15.904999267578125,343.4437561035156,-103.66875457763672,29.381250381469727
1779996190412963600,15.924963623046875,343.6312561035156,-103.66875457763672,29.343751907348633
1779996190432958500,15.94495849609375,343.9125061035156,-103.66875457763672,29.325000762939453
1779996190452957200,15.964957275390624,343.96875,-103.70625305175781,29.306251525878906
1779996190472964400,15.98496435546875,344.15625,-103.70625305175781,29.26875114440918
1779996190493177900,16.005177734375,344.1750183105469,-103.72500610351562,29.231250762939453
1779996190513085200,16.025085205078124,344.2125244140625,-103.72500610351562,29.193750381469727
1779996190533017000,16.04501708984375,344.34375,-103.72500610351562,29.212501525878906
1779996190553009200,16.065009033203125,344.41876220703125,-103.72500610351562,29.212501525878906
1779996190572985000,16.084985107421875,344.4750061035156,-103.7437515258789,29.212501525878906
1779996190592980200,16.104980224609374,344.4750061035156,-103.70625305175781,29.193750381469727
1779996190613018400,16.125018310546874,344.5875244140625,-103.70625305175781,29.212501525878906
1779996190632998000,16.144997802734373,344.88751220703125,-103.70625305175781,29.212501525878906
1779996190652991200,16.1649912109375,344.9625244140625,-103.70625305175781,29.212501525878906
1779996190673244700,16.18524462890625,345.0187683105469,-103.70625305175781,29.212501525878906
1779996190693126400,16.20512646484375,345.07501220703125,-103.70625305175781,29.193750381469727
1779996190713047300,16.22504736328125,345.0375061035156,-103.72500610351562,29.193750381469727
1779996190733002500,16.24500244140625,344.9437561035156,-103.70625305175781,29.212501525878906
1779996190753517800,16.265517822265625,344.9625244140625,-103.66875457763672,29.231250762939453
1779996190773260500,16.285260498046874,344.8312683105469,-103.6500015258789,29.250001907348633
1779996190793090600,16.305090576171875,344.8125,-103.63125610351562,29.250001907348633
1779996190813017300,16.325017333984373,344.8312683105469,-103.63125610351562,29.250001907348633
1779996190833040000,16.345039794921874,344.71875,-103.61250305175781,29.26875114440918
1779996190853070600,16.365070556640624,344.4750061035156,-103.63125610351562,29.250001907348633
1779996190873012500,16.385012451171875,344.3812561035156,-103.61250305175781,29.212501525878906
1779996190892977200,16.40497705078125,344.51251220703125,-103.63125610351562,29.212501525878906
1779996190913160700,16.42516064453125,344.51251220703125,-103.61250305175781,29.193750381469727
1779996190933069000,16.445069091796874,344.3625183105469,-103.61250305175781,29.17500114440918
1779996190953004300,16.46500439453125,344.2875061035156,-103.61250305175781,29.156251907348633
1779996190973178400,16.485178466796874,344.25,-103.61250305175781,29.17500114440918
1779996190993070000,16.505070068359377,344.1750183105469,-103.61250305175781,29.17500114440918
1779996191013007400,16.52500732421875,344.1000061035156,-103.61250305175781,29.193750381469727
1779996191033099800,16.545099853515627,343.96875,-103.61250305175781,29.17500114440918
1779996191053034500,16.565034423828124,343.9125061035156,-103.63125610351562,29.17500114440918
1779996191072997000,16.5849970703125,343.9312744140625,-103.63125610351562,29.156251907348633
1779996191092984000,16.604984130859375,343.875,-103.6500015258789,29.17500114440918
1779996191112974000,16.62497412109375,343.8187561035156,-103.63125610351562,29.156251907348633
1779996191133348900,16.645348876953125,343.6875,-103.63125610351562,29.17500114440918
1779996191153463000,16.665463134765623,343.57501220703125,-103.63125610351562,29.212501525878906
1779996191173520000,16.685519775390624,343.48126220703125,-103.6500015258789,29.231250762939453
1779996191193435600,16.705435546875,343.38751220703125,-103.63125610351562,29.250001907348633
1779996191213160700,16.72516064453125,343.3500061035156,-103.61250305175781,29.26875114440918
1779996191233009400,16.745009521484373,343.4437561035156,-103.61250305175781,29.287500381469727
1779996191253200100,16.7652001953125,343.48126220703125,-103.61250305175781,29.306251525878906
1779996191273055500,16.785055419921875,343.6125183105469,-103.63125610351562,29.306251525878906
1779996191292981800,16.804981689453125,343.78125,-103.6500015258789,29.306251525878906
1779996191312958500,16.82495849609375,343.85626220703125,-103.6500015258789,29.325000762939453
1779996191332951000,16.844950927734374,343.8375244140625,-103.66875457763672,29.306251525878906
1779996191352958200,16.864958251953126,343.875,-103.6500015258789,29.306251525878906
1779996191373235700,16.885235595703126,343.875,-103.6500015258789,29.306251525878906
1779996191429994200,16.941994140625,343.9312744140625,-103.6500015258789,29.306251525878906
1779996191488637200,17.00063720703125,344.04376220703125,-103.66875457763672,29.306251525878906
1779996191665308000,17.177307861328124,345.0562744140625,-103.68750762939453,29.26875114440918
1779996191753607400,17.265607421875,345.1875,-103.6500015258789,29.287500381469727
1779996191797728800,17.309728759765626,345.35626220703125,-103.6500015258789,29.287500381469727
1779996191841816600,17.353816650390623,345.28125,-103.63125610351562,29.306251525878906
1779996191885856500,17.3978564453125,345.07501220703125,-103.61250305175781,29.306251525878906
1779996191929830000,17.441829833984375,345,-103.61250305175781,29.26875114440918
1779996191973714400,17.48571435546875,345.07501220703125,-103.59375762939453,29.287500381469727
1779996192017483800,17.52948388671875,345.1312561035156,-103.61250305175781,29.26875114440918
1779996192061105700,17.573105712890627,345.26251220703125,-103.61250305175781,29.26875114440918
1779996192104543200,17.616543212890626,345.35626220703125,-103.61250305175781,29.26875114440918
1779996192147754800,17.659754638671874,345.3187561035156,-103.63125610351562,29.250001907348633
1779996192190692600,17.702692626953127,345.2437744140625,-103.63125610351562,29.250001907348633
1779996192233304000,17.745303955078125,345.16876220703125,-103.59375762939453,29.250001907348633
1779996192275531000,17.787531005859375,344.98126220703125,-103.61250305175781,29.231250762939453
1779996192317308400,17.829308349609374,344.7562561035156,-103.63125610351562,29.212501525878906
1779996192358569000,17.87056884765625,344.6625061035156,-103.6500015258789,29.193750381469727
1779996192399235600,17.911235595703126,344.625,-103.68750762939453,29.17500114440918
1779996192439231200,17.951231201171876,344.4000244140625,-103.68750762939453,29.17500114440918
1779996192478473700,17.9904736328125,344.3625183105469,-103.70625305175781,29.17500114440918
1779996192516877300,18.028877197265626,344.4937744140625,-103.70625305175781,29.17500114440918
1779996192554354700,18.066354736328126,344.5500183105469,-103.72500610351562,29.17500114440918
1779996192590817500,18.102817626953126,344.4750061035156,-103.72500610351562,29.156251907348633
1779996192626180900,18.138180908203125,344.4750061035156,-103.72500610351562,29.156251907348633
1779996192660351700,18.172351806640624,344.4562683105469,-103.72500610351562,29.17500114440918
1779996192693249000,18.2052490234375,344.4000244140625,-103.72500610351562,29.17500114440918
1779996192724803000,18.236802978515627,344.4562683105469,-103.70625305175781,29.17500114440918
1779996192754922200,18.266922119140624,344.4375,-103.68750762939453,29.17500114440918
1779996192783549400,18.295549560546874,344.3812561035156,-103.68750762939453,29.17500114440918
1779996192810633000,18.322633056640626,344.4375,-103.68750762939453,29.193750381469727
1779996192836114700,18.34811474609375,344.53125,-103.68750762939453,29.193750381469727
1779996192859963600,18.371963623046874,344.4750061035156,-103.66875457763672,29.193750381469727
1779996192882163500,18.39416357421875,344.4375,-103.6500015258789,29.212501525878906
1779996192902698800,18.41469873046875,344.4375,-103.66875457763672,29.212501525878906
1779996192921558300,18.433558349609374,344.41876220703125,-103.66875457763672,29.212501525878906
1779996192938767600,18.450767578125,344.32501220703125,-103.66875457763672,29.193750381469727
1779996192954374400,18.46637451171875,344.3625183105469,-103.66875457763672,29.193750381469727
1779996192968381700,18.480381591796874,344.4375,-103.6500015258789,29.212501525878906
1779996192980862500,18.492862548828125,344.32501220703125,-103.63125610351562,29.212501525878906
1779996192991880000,18.5038798828125,344.1937561035156,-103.61250305175781,29.231250762939453
1779996193001508900,18.5135087890625,344.15625,-103.61250305175781,29.250001907348633
1779996193016951800,18.528951904296875,344.1187744140625,-103.63125610351562,29.250001907348633
1779996193027908000,18.539908203125,344.0250244140625,-103.63125610351562,29.250001907348633
1779996193037725000,18.549724853515624,344.2687683105469,-103.59375762939453,29.287500381469727
1779996193047285500,18.559285400390625,345.09375,-103.6500015258789,29.250001907348633
1779996193057935000,18.56993505859375,344.8125,-103.6500015258789,29.250001907348633
1779996193069232000,18.581232177734375,344.7562561035156,-103.6500015258789,29.193750381469727
1779996193079038700,18.591038818359376,344.8312683105469,-103.6500015258789,29.193750381469727
1779996193090691300,18.60269140625,344.4937744140625,-103.6500015258789,29.193750381469727
1779996193104199700,18.61619970703125,344.4000244140625,-103.6500015258789,29.193750381469727
1779996193119525400,18.631525390625,344.32501220703125,-103.66875457763672,29.212501525878906
1779996193136664300,18.648664306640626,344.5500183105469,-103.68750762939453,29.231250762939453
1779996193155549000,18.667548828125,344.5875244140625,-103.66875457763672,29.231250762939453
1779996193165638400,18.677638427734376,344.5500183105469,-103.6500015258789,29.26875114440918
1779996193176142000,18.68814208984375,344.34375,-103.6500015258789,29.26875114440918
1779996193187057000,18.699056884765625,344.3625183105469,-103.6500015258789,29.26875114440918
1779996193198362000,18.710362060546874,344.2687683105469,-103.6500015258789,29.26875114440918
1779996193210041000,18.722041015625,344.32501220703125,-103.63125610351562,29.26875114440918
1779996193222101200,18.734101318359375,344.3812561035156,-103.61250305175781,29.26875114440918
1779996193234560300,18.746560302734373,344.2687683105469,-103.61250305175781,29.26875114440918
1779996193257794600,18.769794677734374,344.15625,-103.61250305175781,29.287500381469727
1779996193344517600,18.856517578125,343.8375244140625,-103.59375762939453,29.26875114440918
1779996193418131700,18.930131591796876,343.6500244140625,-103.57500457763672,29.26875114440918
1779996193454937600,18.9669375,343.4437561035156,-103.57500457763672,29.26875114440918
1779996193528539400,19.040539306640625,343.125,-103.5562515258789,29.250001907348633
1779996193565328400,19.077328369140623,343.20001220703125,-103.59375762939453,29.212501525878906
1779996193602102300,19.114102294921874,343.3687744140625,-103.57500457763672,29.193750381469727
1779996193638852900,19.150852783203124,343.3125,-103.57500457763672,29.193750381469727
1779996193675570400,19.1875703125,343.3687744140625,-103.59375762939453,29.193750381469727
1779996193712242000,19.224241943359374,343.2750244140625,-103.61250305175781,29.193750381469727
1779996193748852000,19.26085205078125,343.20001220703125,-103.63125610351562,29.156251907348633
1779996193785382100,19.297382080078126,343.29376220703125,-103.63125610351562,29.156251907348633
1779996193821810000,19.333809814453126,343.38751220703125,-103.6500015258789,29.137500762939453
1779996193858110200,19.370110107421876,343.5562744140625,-103.66875457763672,29.118751525878906
1779996193894253600,19.406253662109375,343.6125183105469,-103.66875457763672,29.118751525878906
1779996193930207500,19.44220751953125,343.6875,-103.68750762939453,29.118751525878906
1779996193965934800,19.477934814453125,343.8187561035156,-103.68750762939453,29.118751525878906
1779996194001395200,19.513395263671875,343.875,-103.70625305175781,29.137500762939453
1779996194036544300,19.548544189453125,343.9875183105469,-103.72500610351562,29.156251907348633
1779996194071335000,19.5833349609375,344.0625,-103.70625305175781,29.156251907348633
1779996194105713400,19.61771337890625,344.0250244140625,-103.68750762939453,29.156251907348633
1779996194139626200,19.651626220703125,344.0625,-103.70625305175781,29.17500114440918
1779996194173016000,19.68501611328125,344.0812683105469,-103.70625305175781,29.17500114440918
1779996194205824300,19.71782421875,343.96875,-103.70625305175781,29.193750381469727
1779996194237989400,19.7499892578125,343.96875,-103.68750762939453,29.212501525878906
1779996194269450200,19.7814501953125,343.875,-103.68750762939453,29.231250762939453
1779996194300148000,19.81214794921875,343.85626220703125,-103.66875457763672,29.231250762939453
1779996194330017300,19.842017333984376,343.78125,-103.6500015258789,29.250001907348633
1779996194359003000,19.8710029296875,343.8187561035156,-103.66875457763672,29.231250762939453
1779996194387049000,19.899049072265626,343.8000183105469,-103.68750762939453,29.250001907348633
1779996194414105000,19.92610498046875,343.7250061035156,-103.68750762939453,29.26875114440918
1779996194440125200,19.952125244140625,343.8000183105469,-103.68750762939453,29.287500381469727
1779996194465075700,19.97707568359375,343.76251220703125,-103.68750762939453,29.287500381469727
1779996194488911400,20.000911376953123,344.0062561035156,-103.68750762939453,29.287500381469727
1779996194511612700,20.02361279296875,344.0062561035156,-103.68750762939453,29.287500381469727
1779996194533169200,20.045169189453127,344.1187744140625,-103.68750762939453,29.26875114440918
1779996194553561900,20.065561767578124,344.1187744140625,-103.68750762939453,29.250001907348633
1779996194572797200,20.084797119140624,344.1187744140625,-103.68750762939453,29.231250762939453
1779996194590894300,20.102894287109375,344.0812683105469,-103.6500015258789,29.250001907348633
1779996194607856600,20.119856689453126,344.0062561035156,-103.6500015258789,29.212501525878906
1779996194623720200,20.13572021484375,344.1750183105469,-103.6500015258789,29.212501525878906
1779996194638534100,20.1505341796875,344.25,-103.68750762939453,29.193750381469727
1779996194652337400,20.16433740234375,344.32501220703125,-103.68750762939453,29.212501525878906
1779996194665168600,20.177168701171876,344.2687683105469,-103.68750762939453,29.212501525878906
1779996194677081300,20.189081298828125,344.41876220703125,-103.68750762939453,29.193750381469727
1779996194688149200,20.200149169921875,344.5687561035156,-103.66875457763672,29.156251907348633
1779996194698439000,20.21043896484375,344.53125,-103.66875457763672,29.118751525878906
1779996194708019000,20.22001904296875,344.625,-103.66875457763672,29.100000381469727
1779996194725336300,20.23733642578125,344.5500183105469,-103.68750762939453,29.100000381469727
1779996194740677400,20.252677490234376,344.8125,-103.66875457763672,29.137500762939453
1779996194754638000,20.26663818359375,344.90625,-103.72500610351562,29.137500762939453
1779996194767671600,20.279671630859376,344.98126220703125,-103.72500610351562,29.137500762939453
1779996194780335400,20.29233544921875,344.8687744140625,-103.70625305175781,29.118751525878906
1779996194792941000,20.304941162109376,344.8125,-103.68750762939453,29.156251907348633
1779996194805888000,20.317887939453126,345,-103.70625305175781,29.17500114440918
1779996194819460000,20.331460205078123,345,-103.70625305175781,29.231250762939453
1779996194833878800,20.345878662109374,344.70001220703125,-103.72500610351562,29.193750381469727
1779996194849289000,20.3612890625,344.4000244140625,-103.72500610351562,29.193750381469727
1779996194865828400,20.377828369140627,344.5875244140625,-103.72500610351562,29.17500114440918
1779996194883579400,20.395579345703126,344.625,-103.72500610351562,29.212501525878906
1779996194902591000,20.414591064453123,344.9250183105469,-103.72500610351562,29.212501525878906
1779996194912578000,20.424578125,344.8500061035156,-103.7437515258789,29.193750381469727
1779996194922887400,20.434887451171875,344.6437683105469,-103.7437515258789,29.193750381469727
1779996194933517800,20.445517822265625,344.51251220703125,-103.7437515258789,29.193750381469727
1779996194944468500,20.456468505859377,344.4750061035156,-103.72500610351562,29.193750381469727
1779996194955738000,20.467738037109374,344.5875244140625,-103.72500610351562,29.17500114440918
1779996194967323000,20.479322998046875,344.5500183105469,-103.72500610351562,29.193750381469727
1779996194979219700,20.4912197265625,344.6812744140625,-103.72500610351562,29.17500114440918
1779996194991424800,20.5034248046875,344.8125,-103.72500610351562,29.193750381469727
1779996195003932700,20.5159326171875,344.8312683105469,-103.70625305175781,29.231250762939453
1779996195016739300,20.5287392578125,344.8500061035156,-103.68750762939453,29.250001907348633
1779996195029839600,20.541839599609375,345.0187683105469,-103.70625305175781,29.26875114440918
1779996195043252500,20.55525244140625,344.88751220703125,-103.66875457763672,29.26875114440918
1779996195056922600,20.568922607421875,344.8312683105469,-103.6500015258789,29.250001907348633
1779996195070868700,20.58286865234375,344.7562561035156,-103.66875457763672,29.231250762939453
1779996195085085400,20.59708544921875,344.70001220703125,-103.66875457763672,29.231250762939453
1779996195099584800,20.611584716796877,344.7375183105469,-103.66875457763672,29.231250762939453
1779996195114343200,20.62634326171875,344.6812744140625,-103.66875457763672,29.212501525878906
1779996195129583600,20.64158349609375,344.70001220703125,-103.6500015258789,29.231250762939453
1779996195147728000,20.659727783203124,344.6625061035156,-103.66875457763672,29.231250762939453
1779996195168996900,20.680996826171874,344.53125,-103.66875457763672,29.231250762939453
1779996195190930000,20.702929931640625,344.60626220703125,-103.6500015258789,29.231250762939453
1779996195212232000,20.72423193359375,344.6625061035156,-103.6500015258789,29.250001907348633
1779996195232975400,20.744975341796874,344.625,-103.6500015258789,29.231250762939453
1779996195253353700,20.765353759765624,344.5687561035156,-103.66875457763672,29.193750381469727
1779996195273365800,20.78536572265625,344.4937744140625,-103.68750762939453,29.156251907348633
1779996195293276000,20.80527587890625,344.34375,-103.68750762939453,29.137500762939453
1779996195313373700,20.825373779296875,344.5687561035156,-103.72500610351562,29.137500762939453
1779996195333179000,20.845178955078126,344.5687561035156,-103.72500610351562,29.137500762939453
1779996195353054000,20.865053955078125,344.5687561035156,-103.70625305175781,29.156251907348633
1779996195373254700,20.885254638671874,344.41876220703125,-103.68750762939453,29.156251907348633
1779996195393402400,20.90540234375,344.3625183105469,-103.68750762939453,29.156251907348633
1779996195413155800,20.92515576171875,344.53125,-103.66875457763672,29.17500114440918
1779996195433023700,20.945023681640624,344.51251220703125,-103.6500015258789,29.156251907348633
1779996195453028600,20.965028564453124,344.625,-103.63125610351562,29.156251907348633
1779996195472983800,20.98498388671875,344.625,-103.6500015258789,29.17500114440918
1779996195493226800,21.005226806640625,344.6625061035156,-103.66875457763672,29.156251907348633
1779996195513101300,21.025101318359376,344.60626220703125,-103.6500015258789,29.156251907348633
1779996195533021400,21.045021484375,344.5687561035156,-103.66875457763672,29.156251907348633
1779996195573172000,21.085171875,344.5500183105469,-103.6500015258789,29.193750381469727
1779996195593074000,21.105073974609375,344.5500183105469,-103.66875457763672,29.193750381469727
1779996195613007600,21.125007568359376,344.4375,-103.6500015258789,29.212501525878906
1779996195633179100,21.14517919921875,344.4937744140625,-103.6500015258789,29.193750381469727
1779996195653071000,21.165071044921874,344.53125,-103.66875457763672,29.212501525878906
1779996195673001000,21.1850009765625,344.625,-103.66875457763672,29.231250762939453
1779996195693436000,21.205435791015624,344.7375183105469,-103.70625305175781,29.250001907348633
1779996195713424000,21.225423828125,344.6625061035156,-103.70625305175781,29.250001907348633
1779996195733166300,21.245166259765625,344.71875,-103.70625305175781,29.250001907348633
1779996195753017600,21.265017578125,344.6625061035156,-103.70625305175781,29.250001907348633
1779996195772953000,21.284953125,344.6812744140625,-103.70625305175781,29.26875114440918
1779996195792937700,21.304937744140624,344.53125,-103.70625305175781,29.250001907348633
1779996195813212000,21.3252119140625,344.41876220703125,-103.68750762939453,29.26875114440918
1779996195833105700,21.345105712890625,344.4937744140625,-103.68750762939453,29.250001907348633
1779996195853033200,21.365033203125,344.6437683105469,-103.72500610351562,29.231250762939453
1779996195873339400,21.38533935546875,344.6625061035156,-103.72500610351562,29.250001907348633
1779996195893165600,21.40516552734375,344.625,-103.72500610351562,29.231250762939453
1779996195913051400,21.425051513671875,344.70001220703125,-103.70625305175781,29.212501525878906
1779996195932992500,21.444992431640625,344.5875244140625,-103.70625305175781,29.231250762939453
1779996195953164300,21.465164306640624,344.3625183105469,-103.72500610351562,29.212501525878906
1779996195973068000,21.485068115234377,344.3062744140625,-103.72500610351562,29.193750381469727
1779996195993005000,21.505005126953126,344.2875061035156,-103.72500610351562,29.17500114440918
1779996196013320000,21.52531982421875,344.1937561035156,-103.72500610351562,29.17500114440918
1779996196033313000,21.54531298828125,344.1000061035156,-103.7437515258789,29.17500114440918
1779996196053120000,21.5651201171875,344.0812683105469,-103.7437515258789,29.156251907348633
1779996196073274600,21.585274658203126,344.0812683105469,-103.70625305175781,29.137500762939453
1779996196093114400,21.6051142578125,344.1750183105469,-103.70625305175781,29.137500762939453
1779996196113012000,21.625011962890625,344.2875061035156,-103.70625305175781,29.137500762939453
1779996196133431800,21.645431884765625,344.41876220703125,-103.70625305175781,29.17500114440918
1779996196153205200,21.665205322265624,344.4375,-103.68750762939453,29.193750381469727
1779996196173053700,21.6850537109375,344.41876220703125,-103.68750762939453,29.17500114440918
1779996196193241000,21.705240966796875,344.3812561035156,-103.68750762939453,29.17500114440918
1779996196213224200,21.72522412109375,344.3062744140625,-103.68750762939453,29.17500114440918
1779996196233078500,21.74507861328125,344.2687683105469,-103.66875457763672,29.17500114440918
1779996196253002500,21.76500244140625,344.3812561035156,-103.6500015258789,29.193750381469727
1779996196273462300,21.785462158203124,344.41876220703125,-103.6500015258789,29.193750381469727
1779996196293711600,21.805711669921877,344.4562683105469,-103.63125610351562,29.193750381469727
1779996196313360100,21.825360107421876,344.70001220703125,-103.63125610351562,29.212501525878906
1779996196333103400,21.845103271484376,344.8312683105469,-103.6500015258789,29.193750381469727
1779996196352974600,21.864974609375,344.90625,-103.63125610351562,29.212501525878906
1779996196372929000,21.884928955078124,344.9437561035156,-103.63125610351562,29.212501525878906
1779996196392919800,21.904919921875,344.98126220703125,-103.63125610351562,29.231250762939453
1779996196413197300,21.925197265625,344.9625244140625,-103.6500015258789,29.212501525878906
1779996196433295400,21.94529541015625,344.7562561035156,-103.63125610351562,29.193750381469727
1779996196453125400,21.96512548828125,344.6812744140625,-103.63125610351562,29.17500114440918
1779996196473033500,21.985033447265625,344.53125,-103.6500015258789,29.17500114440918
1779996196493255700,22.005255615234375,344.4937744140625,-103.63125610351562,29.193750381469727
1779996196513561300,22.025561279296873,344.5687561035156,-103.6500015258789,29.212501525878906
1779996196533264000,22.045263916015625,344.6625061035156,-103.68750762939453,29.193750381469727
1779996196553069600,22.065069580078124,344.6625061035156,-103.68750762939453,29.212501525878906
1779996196573236000,22.085236083984373,344.60626220703125,-103.68750762939453,29.231250762939453
1779996196593088800,22.1050888671875,344.53125,-103.68750762939453,29.250001907348633
1779996196613000000,22.125,344.3812561035156,-103.66875457763672,29.250001907348633
1779996196632961500,22.14496142578125,344.3812561035156,-103.68750762939453,29.250001907348633
1779996196652956200,22.1649560546875,344.2125244140625,-103.70625305175781,29.250001907348633
1779996196672955600,22.18495556640625,344.23126220703125,-103.72500610351562,29.250001907348633
1779996196692963600,22.204963623046876,344.1187744140625,-103.72500610351562,29.231250762939453
1779996196713205500,22.22520556640625,344.1000061035156,-103.7437515258789,29.212501525878906
1779996196733165800,22.245165771484373,344.1000061035156,-103.7437515258789,29.212501525878906
1779996196753057800,22.265057861328124,344.25,-103.7437515258789,29.212501525878906
1779996196773206300,22.285206298828125,344.4000244140625,-103.72500610351562,29.231250762939453
1779996196793090000,22.305090087890626,344.5875244140625,-103.7437515258789,29.231250762939453
1779996196813022000,22.32502197265625,344.5687561035156,-103.72500610351562,29.250001907348633
1779996196833183700,22.345183837890627,344.60626220703125,-103.68750762939453,29.26875114440918
1779996196853068300,22.365068359375,344.6437683105469,-103.66875457763672,29.231250762939453
1779996196873005600,22.385005615234373,344.7562561035156,-103.66875457763672,29.212501525878906
1779996196892970500,22.404970458984376,344.79376220703125,-103.6500015258789,29.212501525878906
1779996196912961000,22.4249609375,344.71875,-103.6500015258789,29.212501525878906
1779996196932966400,22.44496630859375,344.6625061035156,-103.6500015258789,29.212501525878906
1779996196953232000,22.46523193359375,344.7562561035156,-103.68750762939453,29.212501525878906
1779996196973121800,22.485121826171873,344.4937744140625,-103.68750762939453,29.212501525878906
1779996196993046500,22.505046630859376,344.53125,-103.68750762939453,29.231250762939453
1779996197013266400,22.525266357421874,344.4750061035156,-103.66875457763672,29.231250762939453
1779996197033133600,22.545133544921875,344.4750061035156,-103.68750762939453,29.250001907348633
1779996197053038800,22.565038818359376,344.4562683105469,-103.68750762939453,29.250001907348633
1779996197073298000,22.5852978515625,344.3625183105469,-103.68750762939453,29.250001907348633
1779996197093146000,22.60514599609375,344.25,-103.66875457763672,29.231250762939453
1779996197113039600,22.62503955078125,344.1750183105469,-103.68750762939453,29.212501525878906
1779996197132984800,22.64498486328125,344.1000061035156,-103.70625305175781,29.193750381469727
1779996197153411000,22.6654111328125,344.0625,-103.7437515258789,29.212501525878906
1779996197173414100,22.6854140625,343.9312744140625,-103.76250457763672,29.231250762939453
1779996197193166000,22.705166015625,344.0062561035156,-103.7437515258789,29.212501525878906
1779996197213024800,22.725024658203125,344.13751220703125,-103.76250457763672,29.212501525878906
1779996197233248800,22.745248779296876,344.0812683105469,-103.7437515258789,29.193750381469727
1779996197253091300,22.76509130859375,344.04376220703125,-103.70625305175781,29.193750381469727
1779996197272997400,22.784997314453125,344.32501220703125,-103.70625305175781,29.193750381469727
1779996197292959000,22.804958984375,344.41876220703125,-103.66875457763672,29.193750381469727
1779996197312955000,22.824954833984375,344.4937744140625,-103.66875457763672,29.193750381469727
1779996197332956700,22.844956787109375,344.5875244140625,-103.6500015258789,29.193750381469727
1779996197353160200,22.86516015625,344.5687561035156,-103.6500015258789,29.193750381469727
1779996197373075700,22.88507568359375,344.6625061035156,-103.6500015258789,29.193750381469727
1779996197393278500,22.905278564453123,344.6812744140625,-103.6500015258789,29.17500114440918
1779996197413131000,22.925131103515625,344.7562561035156,-103.6500015258789,29.17500114440918
1779996197433038800,22.945038818359375,345.0562744140625,-103.6500015258789,29.212501525878906
1779996197452982800,22.964982666015626,345.0562744140625,-103.63125610351562,29.193750381469727
1779996197473163800,22.985163818359375,345.1125183105469,-103.6500015258789,29.193750381469727
1779996197493063000,23.00506298828125,344.9437561035156,-103.66875457763672,29.193750381469727
1779996197513007400,23.02500732421875,344.8500061035156,-103.68750762939453,29.193750381469727
1779996197533226500,23.0452265625,344.79376220703125,-103.66875457763672,29.212501525878906
1779996197553090800,23.0650908203125,344.88751220703125,-103.66875457763672,29.212501525878906
1779996197573012000,23.085011962890626,344.7750244140625,-103.66875457763672,29.231250762939453
1779996197593444400,23.1054443359375,344.79376220703125,-103.70625305175781,29.231250762939453
1779996197613211400,23.12521142578125,344.71875,-103.72500610351562,29.231250762939453
1779996197633062000,23.145061767578124,344.7375183105469,-103.72500610351562,29.231250762939453
1779996197653250600,23.16525048828125,344.7750244140625,-103.70625305175781,29.250001907348633
1779996197673099800,23.185099853515624,344.79376220703125,-103.70625305175781,29.26875114440918
1779996197693010200,23.20501025390625,344.6625061035156,-103.7437515258789,29.287500381469727
1779996197713235500,23.2252353515625,344.6437683105469,-103.72500610351562,29.306251525878906
1779996197733304000,23.245303955078125,344.4375,-103.7437515258789,29.287500381469727
1779996197753119700,23.26511962890625,344.53125,-103.72500610351562,29.26875114440918
1779996197773014800,23.285014892578126,344.41876220703125,-103.68750762939453,29.250001907348633
1779996197792967700,23.3049677734375,344.51251220703125,-103.68750762939453,29.26875114440918
1779996197812957700,23.324957763671875,344.53125,-103.68750762939453,29.306251525878906
1779996197832956700,23.344956787109375,344.4562683105469,-103.66875457763672,29.306251525878906
1779996197853167000,23.3651669921875,344.2875061035156,-103.6500015258789,29.306251525878906
1779996197873078300,23.385078369140626,344.2125244140625,-103.6500015258789,29.306251525878906
1779996197893014500,23.4050146484375,344.1187744140625,-103.66875457763672,29.287500381469727
1779996197913246200,23.42524609375,344.15625,-103.66875457763672,29.26875114440918
1779996197933312800,23.445312744140626,344.1937561035156,-103.6500015258789,29.26875114440918
1779996197953126400,23.46512646484375,344.23126220703125,-103.6500015258789,29.287500381469727
1779996197973016600,23.4850166015625,344.1750183105469,-103.66875457763672,29.287500381469727
1779996197993170200,23.505170166015624,344.23126220703125,-103.66875457763672,29.26875114440918
1779996198013056000,23.525055908203125,344.1187744140625,-103.6500015258789,29.250001907348633
1779996198032998000,23.544997802734375,344.1000061035156,-103.6500015258789,29.250001907348633
1779996198053083400,23.56508349609375,343.9125061035156,-103.66875457763672,29.26875114440918
1779996198073019000,23.585018798828123,344.0250244140625,-103.66875457763672,29.26875114440918
1779996198093253600,23.605253662109376,343.96875,-103.6500015258789,29.26875114440918
1779996198113618400,23.625618408203124,343.9875183105469,-103.6500015258789,29.26875114440918
1779996198133291800,23.645291748046876,343.96875,-103.6500015258789,29.26875114440918
1779996198153111800,23.66511181640625,344.0625,-103.66875457763672,29.26875114440918
1779996198172990700,23.68499072265625,344.13751220703125,-103.66875457763672,29.26875114440918
1779996198192964400,23.70496435546875,344.0625,-103.6500015258789,29.26875114440918
1779996198212949500,23.724949462890624,344.0625,-103.66875457763672,29.26875114440918
1779996198232946400,23.744946533203127,343.95001220703125,-103.66875457763672,29.26875114440918
1779996198252965600,23.764965576171875,343.875,-103.66875457763672,29.26875114440918
1779996198273168600,23.785168701171877,343.875,-103.6500015258789,29.231250762939453
1779996198293080300,23.805080322265624,343.95001220703125,-103.6500015258789,29.231250762939453
1779996198313014800,23.825014892578125,344.0250244140625,-103.6500015258789,29.231250762939453
1779996198333190700,23.845190673828125,344.04376220703125,-103.6500015258789,29.231250762939453
1779996198353076700,23.86507666015625,344.1000061035156,-103.6500015258789,29.212501525878906
1779996198373012000,23.885011962890626,344.15625,-103.6500015258789,29.193750381469727
1779996198393069300,23.9050693359375,344.23126220703125,-103.66875457763672,29.193750381469727
1779996198413015600,23.925015625,344.3062744140625,-103.68750762939453,29.193750381469727
1779996198432990000,23.944989990234376,344.3625183105469,-103.68750762939453,29.193750381469727
1779996198453245400,23.965245361328126,344.2687683105469,-103.6500015258789,29.17500114440918
1779996198473113600,23.985113525390624,344.2687683105469,-103.6500015258789,29.193750381469727
1779996198493036800,24.005036865234374,344.3625183105469,-103.66875457763672,29.193750381469727
1779996198513198000,24.025197998046874,344.3812561035156,-103.6500015258789,29.212501525878906
1779996198533072000,24.04507177734375,344.41876220703125,-103.63125610351562,29.17500114440918
1779996198553029600,24.065029541015626,344.4750061035156,-103.6500015258789,29.156251907348633
1779996198572978200,24.084978271484374,344.53125,-103.63125610351562,29.193750381469727
1779996198592969700,24.1049697265625,344.5500183105469,-103.61250305175781,29.212501525878906
1779996198613364000,24.125364013671874,344.3625183105469,-103.63125610351562,29.193750381469727
1779996198633181000,24.145180908203123,344.41876220703125,-103.6500015258789,29.17500114440918
1779996198653062100,24.165062255859375,344.41876220703125,-103.6500015258789,29.193750381469727
1779996198673192700,24.185192626953125,344.3625183105469,-103.6500015258789,29.231250762939453
1779996198693063000,24.20506298828125,344.41876220703125,-103.66875457763672,29.231250762939453
1779996198712993800,24.224993896484374,344.34375,-103.6500015258789,29.193750381469727
1779996198732967000,24.244966796875,344.3812561035156,-103.63125610351562,29.193750381469727
1779996198752954600,24.26495458984375,344.4750061035156,-103.6500015258789,29.212501525878906
1779996198772960000,24.2849599609375,344.4937744140625,-103.66875457763672,29.212501525878906
1779996198792962000,24.304962158203125,344.4375,-103.66875457763672,29.212501525878906
1779996198812979000,24.32497900390625,344.34375,-103.66875457763672,29.193750381469727
1779996198832982500,24.344982421875,344.2875061035156,-103.66875457763672,29.212501525878906
1779996198852987600,24.364987548828125,344.34375,-103.66875457763672,29.212501525878906
1779996198872992500,24.384992431640626,344.2687683105469,-103.66875457763672,29.193750381469727
1779996198892987400,24.4049873046875,344.15625,-103.68750762939453,29.17500114440918
1779996198912985900,24.42498583984375,344.2687683105469,-103.66875457763672,29.193750381469727
1779996198932988700,24.44498876953125,344.0625,-103.6500015258789,29.193750381469727
1779996198952983000,24.464983154296874,344.1750183105469,-103.66875457763672,29.193750381469727
1779996198973089300,24.48508935546875,344.0812683105469,-103.6500015258789,29.17500114440918
1779996198993471500,24.505471435546873,343.875,-103.63125610351562,29.156251907348633
1779996199013228800,24.525228759765625,343.9312744140625,-103.63125610351562,29.156251907348633
1779996199033081300,24.545081298828126,344.1187744140625,-103.6500015258789,29.137500762939453
1779996199053196800,24.56519677734375,344.1750183105469,-103.63125610351562,29.137500762939453
1779996199073059800,24.585059814453125,344.2875061035156,-103.6500015258789,29.137500762939453
1779996199092991500,24.604991455078125,344.41876220703125,-103.6500015258789,29.137500762939453
1779996199113221400,24.625221435546877,344.625,-103.6500015258789,29.156251907348633
1779996199133155300,24.6451552734375,344.625,-103.66875457763672,29.17500114440918
1779996199153054000,24.665053955078125,344.5500183105469,-103.66875457763672,29.137500762939453
1779996199173254700,24.685254638671875,344.5687561035156,-103.66875457763672,29.137500762939453
1779996199193111800,24.70511181640625,344.625,-103.66875457763672,29.118751525878906
1779996199213026000,24.725026123046874,344.79376220703125,-103.68750762939453,29.08125114440918
1779996199232984600,24.744984619140624,344.9250183105469,-103.66875457763672,29.08125114440918
1779996199253573000,24.765572998046874,344.9437561035156,-103.66875457763672,29.062501907348633
1779996199273291300,24.785291259765625,345.1312561035156,-103.66875457763672,29.043750762939453
1779996199293103900,24.805103759765625,345.3937683105469,-103.66875457763672,29.006250381469727
1779996199313087500,24.82508740234375,345.4312744140625,-103.68750762939453,29.006250381469727
1779996199333126000,24.8451259765625,345.5250244140625,-103.70625305175781,28.968751907348633
1779996199353026800,24.86502685546875,345.5250244140625,-103.72500610351562,28.931251525878906
1779996199373245000,24.885244873046876,345.4125061035156,-103.70625305175781,28.89375114440918
1779996199393106200,24.905106201171876,345.35626220703125,-103.68750762939453,28.837501525878906
1779996199413021000,24.92502099609375,345.3000183105469,-103.68750762939453,28.818750381469727
1779996199433184000,24.94518408203125,345.35626220703125,-103.70625305175781,28.781251907348633
1779996199453062000,24.965061767578124,345.4875183105469,-103.70625305175781,28.762500762939453
1779996199473005600,24.985005615234375,345.5250244140625,-103.68750762939453,28.743751525878906
1779996199493339100,25.005339111328126,345.6187744140625,-103.68750762939453,28.725000381469727
1779996199513244200,25.025244140625,345.54376220703125,-103.70625305175781,28.725000381469727
1779996199533087200,25.045087158203124,345.6750183105469,-103.72500610351562,28.725000381469727
1779996199553265700,25.065265625,345.7875061035156,-103.72500610351562,28.70625114440918
1779996199573112800,25.08511279296875,345.8062744140625,-103.72500610351562,28.668750762939453
1779996199593024500,25.1050244140625,345.75,-103.7437515258789,28.668750762939453
1779996199674447600,25.186447509765625,345.6937561035156,-103.7437515258789,28.650001525878906
1779996199720618500,25.232618408203123,345.5625,-103.7437515258789,28.668750762939453
1779996199941286100,25.4532861328125,334.7062683105469,-100.21875762939453,27.806251525878906
1779996199985389800,25.497389892578123,334.7062683105469,-100.21875762939453,27.76875114440918
1779996200029466000,25.541466064453125,334.8937683105469,-100.21875762939453,27.76875114440918
1779996200073502500,25.58550244140625,334.96875,-100.21875762939453,27.76875114440918
1779996200117482000,25.62948193359375,335.0625,-100.20000457763672,27.787500381469727
1779996200161384700,25.673384765625,335.0625,-100.21875762939453,27.76875114440918
1779996200205185800,25.717185791015623,334.9312744140625,-100.20000457763672,27.787500381469727
1779996200248856600,25.760856689453124,334.96875,-100.21875762939453,27.806251525878906
1779996200292362000,25.804362060546875,334.8937683105469,-100.21875762939453,27.806251525878906
1779996200335663400,25.847663330078124,334.8000183105469,-100.20000457763672,27.787500381469727
1779996200378716400,25.89071630859375,334.6500244140625,-100.21875762939453,27.76875114440918
1779996200421470200,25.93347021484375,334.5562744140625,-100.20000457763672,27.76875114440918
1779996200463869200,25.975869140625,334.7250061035156,-100.21875762939453,27.750001907348633
1779996200505852400,26.017852294921877,334.78125,-100.23750305175781,27.731250762939453
1779996200547353000,26.05935302734375,334.8187561035156,-100.25625610351562,27.712501525878906
1779996200588299800,26.1002998046875,346.29376220703125,-103.72500610351562,28.650001525878906
1779996200628615700,26.14061572265625,346.10626220703125,-103.7437515258789,28.650001525878906
1779996200668223000,26.180222900390625,346.0500183105469,-103.72500610351562,28.650001525878906
1779996200707033900,26.219033935546875,346.01251220703125,-103.70625305175781,28.650001525878906
1779996200744963300,26.25696337890625,346.03125,-103.72500610351562,28.631250381469727
1779996200781930800,26.2939306640625,345.9000244140625,-103.70625305175781,28.61250114440918
1779996200817837000,26.329837158203127,345.9375,-103.70625305175781,28.631250381469727
1779996200852595200,26.36459521484375,345.91876220703125,-103.68750762939453,28.631250381469727
1779996200886123000,26.398123046875,346.03125,-103.70625305175781,28.650001525878906
1779996200918340000,26.430340087890624,346.2562561035156,-103.70625305175781,28.650001525878906
1779996200949173500,26.461173583984376,346.4625244140625,-103.68750762939453,28.668750762939453
1779996200978543000,26.490543212890625,346.5562744140625,-103.68750762939453,28.668750762939453
1779996201006392600,26.518392578125,346.29376220703125,-103.68750762939453,28.687501907348633
1779996201032675800,26.54467578125,346.1437683105469,-103.68750762939453,28.70625114440918
1779996201057339100,26.569339111328127,346.03125,-103.68750762939453,28.725000381469727
1779996201080358400,26.5923583984375,346.0687561035156,-103.68750762939453,28.743751525878906
1779996201101730800,26.613730712890625,346.21875,-103.68750762939453,28.762500762939453
1779996201121422800,26.6334228515625,346.10626220703125,-103.70625305175781,28.762500762939453
1779996201139457000,26.65145703125,346.10626220703125,-103.68750762939453,28.762500762939453
1779996201155858000,26.66785791015625,346.125,-103.68750762939453,28.781251907348633
1779996201170659800,26.682659912109376,346.2750244140625,-103.68750762939453,28.762500762939453
1779996201183904300,26.695904296875,346.2750244140625,-103.68750762939453,28.743751525878906
1779996201195654400,26.707654296875,346.29376220703125,-103.66875457763672,28.743751525878906
1779996201205979400,26.7179794921875,346.1625061035156,-103.6500015258789,28.743751525878906
1779996201222691000,26.734691162109375,345.8625183105469,-103.6500015258789,28.80000114440918
1779996201234765300,26.746765380859376,345.6750183105469,-103.6500015258789,28.89375114440918
1779996201245837600,26.757837646484376,345.5062561035156,-103.6500015258789,28.931251525878906
1779996201256290000,26.7682900390625,344.5875244140625,-103.66875457763672,29.212501525878906
1779996201266123300,26.778123291015625,344.41876220703125,-103.68750762939453,29.26875114440918
1779996201276836400,26.78883642578125,344.71875,-103.68750762939453,29.26875114440918
1779996201291631900,26.8036318359375,344.8687744140625,-103.6500015258789,29.287500381469727
1779996201303806500,26.815806396484376,345.0187683105469,-103.6500015258789,29.287500381469727
1779996201317785300,26.829785400390627,345.1500244140625,-103.6500015258789,29.26875114440918
1779996201333641500,26.845641357421876,345.0562744140625,-103.63125610351562,29.26875114440918
1779996201351226600,26.8632265625,345,-103.61250305175781,29.250001907348633
1779996201370568700,26.882568603515626,345,-103.61250305175781,29.231250762939453
1779996201380857600,26.892857666015626,345.0562744140625,-103.59375762939453,29.231250762939453
1779996201391563000,26.90356298828125,344.90625,-103.59375762939453,29.231250762939453
1779996201402664400,26.91466455078125,344.7750244140625,-103.59375762939453,29.26875114440918
1779996201414175700,26.92617578125,344.4562683105469,-103.61250305175781,29.287500381469727
1779996201426054400,26.938054443359373,344.4000244140625,-103.6500015258789,29.306251525878906
1779996201438309000,26.95030908203125,344.34375,-103.66875457763672,29.26875114440918
1779996201450900000,26.96289990234375,344.4000244140625,-103.66875457763672,29.26875114440918
1779996201464405000,26.976405029296874,344.4375,-103.66875457763672,29.250001907348633
1779996201482830800,26.994830810546876,344.34375,-103.66875457763672,29.250001907348633
1779996201506534000,27.018533935546873,344.1750183105469,-103.70625305175781,29.26875114440918
1779996201530572300,27.042572265625,344.13751220703125,-103.72500610351562,29.287500381469727
1779996201552751400,27.06475146484375,344.13751220703125,-103.72500610351562,29.287500381469727
1779996201573689900,27.08568994140625,344.0812683105469,-103.72500610351562,29.306251525878906
1779996201593894400,27.105894287109376,344.13751220703125,-103.70625305175781,29.306251525878906
1779996201613740300,27.125740234375,344.04376220703125,-103.70625305175781,29.26875114440918
1779996201633488100,27.145488037109374,343.8375244140625,-103.72500610351562,29.26875114440918
1779996201653264100,27.16526416015625,343.9125061035156,-103.72500610351562,29.287500381469727
1779996201673098500,27.185098388671875,343.8000183105469,-103.70625305175781,29.287500381469727
1779996201693004300,27.20500439453125,343.9125061035156,-103.68750762939453,29.287500381469727
1779996201774438400,27.2864384765625,343.9312744140625,-103.68750762939453,29.287500381469727
1779996201864752000,27.376752197265624,343.8187561035156,-103.68750762939453,29.325000762939453
1779996201953026600,27.465026611328124,343.4437561035156,-103.66875457763672,29.36250114440918
1779996202041278000,27.55327783203125,343.2750244140625,-103.6500015258789,29.36250114440918
1779996202085381000,27.597381103515627,343.3500061035156,-103.68750762939453,29.343751907348633
1779996202129457000,27.641456787109377,343.3500061035156,-103.68750762939453,29.306251525878906
1779996202173492500,27.685492431640625,343.4250183105469,-103.70625305175781,29.287500381469727
1779996202217471500,27.729471435546873,343.4625244140625,-103.70625305175781,29.306251525878906
1779996202261373700,27.773373779296875,343.4625244140625,-103.68750762939453,29.306251525878906
1779996202305174000,27.817174072265626,343.3125,-103.66875457763672,29.325000762939453
1779996202348844000,27.860843994140627,343.1812744140625,-103.66875457763672,29.325000762939453
1779996202392349000,27.904348876953126,343.1437683105469,-103.68750762939453,29.287500381469727
1779996202435649500,27.9476494140625,343.1812744140625,-103.66875457763672,29.287500381469727
1779996202478702300,27.990702392578125,343.2750244140625,-103.6500015258789,29.26875114440918
1779996202521455400,28.033455322265624,343.40625,-103.6500015258789,29.250001907348633
1779996202563853800,28.075853759765625,343.5,-103.66875457763672,29.250001907348633
1779996202605837600,28.117837646484375,343.5375061035156,-103.6500015258789,29.231250762939453
1779996202647337700,28.159337646484374,343.6125183105469,-103.66875457763672,29.231250762939453
1779996202688284000,28.200283935546874,343.7250061035156,-103.66875457763672,29.250001907348633
1779996202728603100,28.24060302734375,343.78125,-103.6500015258789,29.26875114440918
1779996202768210200,28.280210205078124,343.8375244140625,-103.63125610351562,29.26875114440918
1779996202807020500,28.3190205078125,343.7062683105469,-103.61250305175781,29.287500381469727
1779996202844950000,28.356949951171874,343.66876220703125,-103.61250305175781,29.325000762939453
1779996202881912800,28.393912841796876,343.66876220703125,-103.63125610351562,29.343751907348633
1779996202917815800,28.42981591796875,343.9875183105469,-103.63125610351562,29.325000762939453
1779996202952573400,28.464573486328124,344.2687683105469,-103.6500015258789,29.325000762939453
1779996202986712300,28.49871240234375,344.4375,-103.61250305175781,29.325000762939453
1779996203051975700,28.5639755859375,344.4375,-103.61250305175781,29.306251525878906
1779996203082300700,28.59430078125,344.4000244140625,-103.59375762939453,29.287500381469727
1779996203185801200,28.69780126953125,344.9437561035156,-103.59375762939453,29.193750381469727
1779996203207261200,28.71926123046875,344.88751220703125,-103.57500457763672,29.156251907348633
1779996203227040500,28.73904052734375,344.9625244140625,-103.57500457763672,29.17500114440918
1779996203245147600,28.757147705078125,345.16876220703125,-103.57500457763672,29.17500114440918
1779996203261604400,28.773604248046876,345.07501220703125,-103.57500457763672,29.17500114440918
1779996203276445700,28.78844580078125,345.0562744140625,-103.57500457763672,29.156251907348633
1779996203289729300,28.801729248046875,345.0187683105469,-103.57500457763672,29.156251907348633
1779996203301505300,28.81350537109375,344.9250183105469,-103.5562515258789,29.118751525878906
1779996203311834600,28.823834716796874,344.7562561035156,-103.5562515258789,29.100000381469727
1779996203328511700,28.84051171875,344.53125,-103.59375762939453,29.118751525878906
1779996203340459800,28.852459716796876,344.23126220703125,-103.61250305175781,29.137500762939453
1779996203351319000,28.863319091796875,344.1000061035156,-103.63125610351562,29.156251907348633
1779996203361363000,28.873363037109375,344.5875244140625,-103.66875457763672,29.193750381469727
1779996203372415200,28.884415283203126,344.8687744140625,-103.66875457763672,29.17500114440918
1779996203384094000,28.896093994140625,344.8125,-103.6500015258789,29.212501525878906
1779996203394132500,28.906132568359375,344.60626220703125,-103.66875457763672,29.193750381469727
1779996203406031600,28.918031494140624,344.53125,-103.63125610351562,29.193750381469727
1779996203419806500,28.931806396484376,344.6625061035156,-103.63125610351562,29.212501525878906
1779996203435399200,28.947399169921876,344.3062744140625,-103.66875457763672,29.212501525878906
1779996203452810500,28.964810546875,344.1937561035156,-103.70625305175781,29.212501525878906
1779996203471978000,28.98397802734375,344.15625,-103.68750762939453,29.17500114440918
1779996203482177300,28.99417724609375,344.0625,-103.66875457763672,29.17500114440918
1779996203492789000,29.0047890625,343.9125061035156,-103.70625305175781,29.17500114440918
1779996203503805700,29.0158056640625,343.78125,-103.70625305175781,29.17500114440918
1779996203515218400,29.027218505859373,343.8187561035156,-103.72500610351562,29.156251907348633
1779996203527018800,29.039018798828124,344.04376220703125,-103.72500610351562,29.17500114440918
1779996203539200000,29.051199951171874,344.15625,-103.72500610351562,29.156251907348633
1779996203551730000,29.06372998046875,344.0812683105469,-103.72500610351562,29.137500762939453
1779996203565116700,29.07711669921875,343.9125061035156,-103.72500610351562,29.118751525878906
1779996203583336400,29.09533642578125,343.6500244140625,-103.72500610351562,29.118751525878906
1779996203606651600,29.118651611328126,343.59375,-103.70625305175781,29.137500762939453
1779996203630295800,29.1422958984375,343.6125183105469,-103.6500015258789,29.137500762939453
1779996203652771800,29.164771728515625,343.6500244140625,-103.66875457763672,29.137500762939453
1779996203673665300,29.185665283203125,343.5375061035156,-103.6500015258789,29.100000381469727
1779996203693854000,29.20585400390625,343.5187683105469,-103.66875457763672,29.08125114440918
1779996203714097200,29.22609716796875,343.6500244140625,-103.66875457763672,29.100000381469727
1779996203733717800,29.2457177734375,343.76251220703125,-103.68750762939453,29.100000381469727
1779996203753355500,29.26535546875,343.9125061035156,-103.66875457763672,29.100000381469727
1779996203773120800,29.285120849609374,343.95001220703125,-103.68750762939453,29.100000381469727
1779996203792994600,29.30499462890625,343.875,-103.68750762939453,29.137500762939453
1779996203812946700,29.32494677734375,343.8187561035156,-103.68750762939453,29.118751525878906
1779996203832940300,29.344940185546875,343.8000183105469,-103.68750762939453,29.118751525878906
1779996203920932900,29.432932861328126,343.76251220703125,-103.68750762939453,29.137500762939453
1779996204064577000,29.576576904296875,343.875,-103.68750762939453,29.17500114440918
1779996204158536700,29.67053662109375,321.07501220703125,-96.75000762939453,27.225000381469727
1779996204252448000,29.764447998046876,321.16876220703125,-96.75000762939453,27.262500762939453
1779996204299363600,29.811363525390625,320.8687744140625,-96.76875305175781,27.262500762939453
1779996204346234000,29.858234130859376,320.70001220703125,-96.76875305175781,27.262500762939453
1779996204393041400,29.90504150390625,320.4937744140625,-96.76875305175781,27.281251907348633
1779996204439762700,29.9517626953125,320.4000244140625,-96.76875305175781,27.262500762939453
1779996204486370600,29.99837060546875,320.4750061035156,-96.76875305175781,27.243751525878906
1779996204532832500,30.04483251953125,320.625,-96.75000762939453,27.243751525878906
1779996204579110700,30.091110595703125,320.5500183105469,-96.76875305175781,27.262500762939453
1779996204625161200,30.1371611328125,320.4375,-96.75000762939453,27.262500762939453
1779996204670933000,30.18293310546875,320.4375,-96.75000762939453,27.262500762939453
1779996204716370700,30.22837060546875,320.3625183105469,-96.75000762939453,27.243751525878906
1779996204761414400,30.273414306640625,320.3812561035156,-96.78750610351562,27.243751525878906
1779996204805991200,30.3179912109375,343.3687744140625,-103.70625305175781,29.17500114440918
1779996204850029000,30.362029052734375,343.38751220703125,-103.76250457763672,29.17500114440918
1779996204893448000,30.405447998046874,343.21875,-103.76250457763672,29.193750381469727
1779996204936162300,30.448162353515624,343.2750244140625,-103.76250457763672,29.193750381469727
1779996204978082000,30.49008203125,343.5187683105469,-103.72500610351562,29.193750381469727
1779996205019114000,30.531114013671875,343.6500244140625,-103.7437515258789,29.193750381469727
1779996205059160800,30.571160888671876,343.78125,-103.7437515258789,29.17500114440918
1779996205098125000,30.610125,343.9125061035156,-103.7437515258789,29.17500114440918
1779996205135911200,30.6479111328125,343.875,-103.76250457763672,29.156251907348633
1779996205172418000,30.68441796875,343.8000183105469,-103.78125762939453,29.137500762939453
1779996205207546000,30.719546142578125,343.95001220703125,-103.78125762939453,29.118751525878906
1779996205241207800,30.753207763671874,344.1000061035156,-103.78125762939453,29.118751525878906
1779996205273324000,30.785323974609376,344.2125244140625,-103.76250457763672,29.118751525878906
1779996205303807000,30.815806884765625,344.3062744140625,-103.7437515258789,29.118751525878906
1779996205332588800,30.8445888671875,344.2687683105469,-103.72500610351562,29.118751525878906
1779996205359619300,30.871619384765626,344.2687683105469,-103.70625305175781,29.100000381469727
1779996205384840200,30.896840087890624,344.34375,-103.70625305175781,29.118751525878906
1779996205408223700,30.9202236328125,344.51251220703125,-103.68750762939453,29.100000381469727
1779996205429759700,30.941759765625,344.5687561035156,-103.68750762939453,29.118751525878906
1779996205449424000,30.961423828125,344.5875244140625,-103.66875457763672,29.100000381469727
1779996205467235300,30.9792353515625,344.53125,-103.63125610351562,29.100000381469727
1779996205483220200,30.99522021484375,344.60626220703125,-103.63125610351562,29.08125114440918
1779996205497414100,31.0094140625,344.5500183105469,-103.61250305175781,29.08125114440918
1779996205509882000,31.021882080078125,344.60626220703125,-103.59375762939453,29.100000381469727
1779996205520688000,31.032688232421876,344.51251220703125,-103.57500457763672,29.100000381469727
1779996205537582600,31.04958251953125,344.41876220703125,-103.57500457763672,29.137500762939453
1779996205548840700,31.0608408203125,344.7562561035156,-103.59375762939453,29.118751525878906
1779996205561598000,31.073597900390624,344.32501220703125,-103.68750762939453,29.325000762939453
1779996205572524300,31.084524169921874,344.3812561035156,-103.68750762939453,29.306251525878906
1779996205585499000,31.097498779296874,344.4937744140625,-103.66875457763672,29.26875114440918
1779996205600449000,31.112448974609375,344.4750061035156,-103.63125610351562,29.231250762939453
1779996205617334300,31.129334228515624,344.4375,-103.6500015258789,29.212501525878906
1779996205636089300,31.14808935546875,344.2875061035156,-103.68750762939453,29.193750381469727
1779996205646144800,31.158144775390625,344.3062744140625,-103.68750762939453,29.17500114440918
1779996205656640000,31.168639892578124,344.23126220703125,-103.68750762939453,29.156251907348633
1779996205667583000,31.1795830078125,344.2687683105469,-103.70625305175781,29.17500114440918
1779996205678927600,31.190927734375,344.13751220703125,-103.70625305175781,29.193750381469727
1779996205690727200,31.20272705078125,344.0812683105469,-103.70625305175781,29.212501525878906
1779996205704721700,31.2167216796875,343.96875,-103.70625305175781,29.193750381469727
1779996205724652000,31.236652099609376,343.96875,-103.68750762939453,29.17500114440918
1779996205747991800,31.25999169921875,344.1187744140625,-103.70625305175781,29.156251907348633
1779996205771134000,31.283134033203126,344.0812683105469,-103.68750762939453,29.156251907348633
1779996205792727800,31.304727783203123,343.96875,-103.66875457763672,29.17500114440918
1779996205813440800,31.325440673828126,344.0250244140625,-103.66875457763672,29.193750381469727
1779996205833606100,31.345606201171876,344.04376220703125,-103.6500015258789,29.212501525878906
1779996205853515800,31.365515869140626,344.13751220703125,-103.66875457763672,29.212501525878906
