time,seconds_elapsed,z,y,x
1779996174702891800,0.214891845703125,18.375,30.075000762939453,10.65000057220459
1779996174723094800,0.2350947265625,18.9375,29.981250762939453,10.856250762939453
1779996174743123200,0.255123291015625,18.975000381469727,29.981250762939453,10.856250762939453
1779996174763074800,0.27507470703125,18.825000762939453,29.981250762939453,10.856250762939453
1779996174783038000,0.295037841796875,18.712501525878906,30.000001907348633,10.818750381469727
1779996174803005400,0.31500537109375,18.600000381469727,30.000001907348633,10.818750381469727
1779996174823105500,0.33510546875,18.618751525878906,30.01875114440918,10.83750057220459
1779996174843173000,0.355173095703125,18.65625,30.01875114440918,10.83750057220459
1779996174863188700,0.375188720703125,18.637500762939453,30.01875114440918,10.818750381469727
1779996174883065000,0.395065185546875,18.65625,30.037500381469727,10.818750381469727
1779996174903506700,0.415506591796875,18.5625,30.037500381469727,10.818750381469727
1779996174923439600,0.435439697265625,18.618751525878906,30.075000762939453,10.800000190734863
1779996174943167500,0.45516748046875,18.618751525878906,30.075000762939453,10.800000190734863
1779996174963016000,0.475015869140625,18.618751525878906,30.11250114440918,10.800000190734863
1779996175020083700,0.532083740234375,18.65625,30.131250381469727,10.78125
1779996175128055800,0.640055908203125,18.58125114440918,30.168750762939453,10.725000381469727
1779996175173769000,0.68576904296875,18.525001525878906,30.187501907348633,10.706250190734863
1779996175265189400,0.777189453125,18.712501525878906,30.225000381469727,10.725000381469727
1779996175356575700,0.86857568359375,18.806251525878906,30.225000381469727,10.706250190734863
1779996175402238200,0.91423828125,18.806251525878906,30.262500762939453,10.706250190734863
1779996175447865600,0.959865478515625,18.9375,30.262500762939453,10.706250190734863
1779996175493441800,1.00544189453125,18.9375,30.281251907348633,10.6875
1779996175538947600,1.050947509765625,19.012500762939453,30.281251907348633,10.668750762939453
1779996175584359400,1.096359375,19.106250762939453,30.262500762939453,10.65000057220459
1779996175629648400,1.1416484375,18.975000381469727,30.262500762939453,10.59375
1779996175674781400,1.186781494140625,19.012500762939453,30.243751525878906,10.575000762939453
1779996175719718400,1.231718505859375,18.993751525878906,30.243751525878906,10.575000762939453
1779996175764416300,1.276416259765625,19.125,30.225000381469727,10.59375
1779996175808824300,1.32082421875,19.14375114440918,30.225000381469727,10.59375
1779996175852884700,1.364884765625,19.14375114440918,30.20625114440918,10.575000762939453
1779996175896536000,1.4085361328125,19.181251525878906,30.20625114440918,10.55625057220459
1779996175939710500,1.45171044921875,19.14375114440918,30.20625114440918,10.537500381469727
1779996175982334200,1.494334228515625,19.125,30.187501907348633,10.518750190734863
1779996176024328700,1.53632861328125,19.087501525878906,30.225000381469727,10.5
1779996176065610800,1.57761083984375,18.993751525878906,30.225000381469727,10.46250057220459
1779996176106094000,1.618093994140625,18.975000381469727,30.225000381469727,10.443750381469727
1779996176145684500,1.6576845703125,19.087501525878906,30.225000381469727,10.46250057220459
1779996176184291000,1.696291015625,19.14375114440918,30.243751525878906,10.46250057220459
1779996176221819100,1.733819091796875,19.03125,30.243751525878906,10.481250762939453
1779996176258179800,1.770179931640625,19.14375114440918,30.243751525878906,10.518750190734863
1779996176293273600,1.805273681640625,19.03125,30.262500762939453,10.518750190734863
1779996176327019500,1.83901953125,18.975000381469727,30.262500762939453,10.518750190734863
1779996176359330000,1.871330078125,18.76875114440918,30.262500762939453,10.518750190734863
1779996176390121200,1.902121337890625,18.75,30.262500762939453,10.518750190734863
1779996176419332600,1.93133251953125,18.76875114440918,30.243751525878906,10.518750190734863
1779996176446902000,1.958902099609375,18.881250381469727,30.243751525878906,10.518750190734863
1779996176472766700,1.9847666015625,19.03125,30.243751525878906,10.518750190734863
1779996176496902100,2.008902099609375,18.95625114440918,30.243751525878906,10.518750190734863
1779996176519264000,2.031263916015625,18.9375,30.243751525878906,10.537500381469727
1779996176541867800,2.05386767578125,18.95625114440918,30.187501907348633,10.575000762939453
1779996176581309400,2.093309326171875,18.58125114440918,30.131250381469727,10.668750762939453
1779996176597849900,2.109849853515625,18.450000762939453,30.075000762939453,10.706250190734863
1779996176625148200,2.137148193359375,-4.612500190734863,37.03125,8.793750762939453
1779996176644852500,2.1568525390625,-4.612500190734863,37.03125,8.86875057220459
1779996176658798800,2.170798828125,-4.59375,37.01250076293945,8.925000190734863
1779996176670901800,2.18290185546875,-4.743750095367432,36.95625305175781,9.018750190734863
1779996176687300900,2.19930078125,18.48750114440918,30.093751907348633,10.950000762939453
1779996176713083000,2.225082763671875,18.11250114440918,30.187501907348633,11.081250190734863
1779996176724865800,2.23686572265625,18.262500762939453,30.168750762939453,11.11875057220459
1779996176738599000,2.250598876953125,18.20625114440918,30.187501907348633,11.15625
1779996176758979800,2.270979736328125,18.131250381469727,30.187501907348633,11.137500762939453
1779996176771772000,2.28377197265625,18.037500381469727,30.187501907348633,11.15625
1779996176797355300,2.309355224609375,17.73750114440918,30.187501907348633,11.175000190734863
1779996176848497000,2.360496826171875,-5.137500286102295,37.16250228881836,9.206250190734863
1779996176861272600,2.3732724609375,-5.175000190734863,37.125,9.1875
1779996176874044200,2.386044189453125,-5.325000286102295,37.125,9.168750762939453
1779996176886813000,2.39881298828125,-5.550000190734863,37.14375305175781,9.206250190734863
1779996176899580200,2.411580078125,-5.643750190734863,37.181251525878906,9.225000381469727
1779996176912349000,2.424348876953125,-5.737500190734863,37.181251525878906,9.225000381469727
1779996176925122000,2.4371220703125,-5.700000286102295,37.16250228881836,9.206250190734863
1779996176938061000,2.45006103515625,-5.568750381469727,37.14375305175781,9.168750762939453
1779996176953387300,2.46538720703125,-5.362500190734863,37.14375305175781,9.15000057220459
1779996176974728000,2.48672802734375,-5.15625,37.16250228881836,9.112500190734863
1779996176998708500,2.51070849609375,-4.987500190734863,37.16250228881836,9.09375
1779996177021640000,2.533639892578125,-4.893750190734863,37.16250228881836,9.075000762939453
1779996177043171800,2.555171875,17.887500762939453,30.262500762939453,11.02500057220459
1779996177063746600,2.57574658203125,17.943750381469727,30.243751525878906,11.006250381469727
1779996177083780000,2.595780029296875,17.8125,30.150001525878906,11.006250381469727
1779996177104127500,2.61612744140625,17.775001525878906,30.131250381469727,10.987500190734863
1779996177124192000,2.63619189453125,17.700000762939453,30.131250381469727,11.006250381469727
1779996177143792000,2.655792236328125,17.625,30.11250114440918,11.0625
1779996177163758300,2.67575830078125,17.475000381469727,30.093751907348633,11.0625
1779996177183267600,2.695267578125,17.418750762939453,30.075000762939453,11.0625
1779996177202994700,2.71499462890625,17.25,30.075000762939453,11.0625
1779996177223158500,2.735158447265625,17.287500381469727,30.075000762939453,11.0625
1779996177243356700,2.755356689453125,17.193750381469727,30.075000762939453,11.0625
1779996177263132400,2.77513232421875,17.08125114440918,30.075000762939453,11.100000381469727
1779996177283016700,2.7950166015625,16.912500381469727,30.075000762939453,11.137500762939453
1779996177303160300,2.815160400390625,16.856250762939453,30.075000762939453,11.15625
1779996177323044400,2.83504443359375,16.78125,30.075000762939453,11.175000190734863
1779996177342988000,2.854988037109375,16.837501525878906,30.075000762939453,11.175000190734863
1779996177363162400,2.875162353515625,17.025001525878906,30.056251525878906,11.175000190734863
1779996177383058400,2.895058349609375,16.96875,30.056251525878906,11.175000190734863
1779996177403001900,2.915001953125,16.96875,30.056251525878906,11.175000190734863
1779996177423189200,2.935189208984375,16.98750114440918,30.11250114440918,11.193750381469727
1779996177443071000,2.955071044921875,17.0625,30.131250381469727,11.15625
1779996177463005400,2.97500537109375,17.043750762939453,30.131250381469727,11.137500762939453
1779996177483002000,2.995002197265625,17.006250381469727,30.131250381469727,11.137500762939453
1779996177502985700,3.01498583984375,17.15625,30.131250381469727,11.11875057220459
1779996177522974700,3.034974609375,17.212501525878906,30.131250381469727,11.11875057220459
1779996177542966800,3.054966796875,17.34375,30.150001525878906,11.137500762939453
1779996177562978600,3.074978515625,17.418750762939453,30.168750762939453,11.15625
1779996177582980000,3.09497998046875,17.418750762939453,30.187501907348633,11.175000190734863
1779996177603247600,3.11524755859375,17.306251525878906,30.187501907348633,11.193750381469727
1779996177623531300,3.13553125,17.306251525878906,30.187501907348633,11.15625
1779996177643261400,3.155261474609375,17.381250381469727,30.168750762939453,11.137500762939453
1779996177663084800,3.175084716796875,17.36250114440918,30.187501907348633,11.175000190734863
1779996177683311000,3.19531103515625,17.306251525878906,30.187501907348633,11.175000190734863
1779996177703126300,3.215126220703125,17.17500114440918,30.187501907348633,11.175000190734863
1779996177723028200,3.2350283203125,17.0625,30.150001525878906,11.193750381469727
1779996177743003000,3.2550029296875,16.950000762939453,30.150001525878906,11.193750381469727
1779996177763302000,3.275302001953125,17.15625,30.131250381469727,11.21250057220459
1779996177783150600,3.295150634765625,17.36250114440918,30.11250114440918,11.21250057220459
1779996177803043800,3.3150439453125,17.418750762939453,30.11250114440918,11.231250762939453
1779996177823252000,3.335251953125,17.381250381469727,30.093751907348633,11.268750190734863
1779996177843309800,3.355309814453125,17.325000762939453,30.075000762939453,11.287500381469727
1779996177863122400,3.375122314453125,17.26875114440918,30.075000762939453,11.287500381469727
1779996177883012900,3.395012939453125,17.34375,30.075000762939453,11.287500381469727
1779996177903246000,3.41524609375,17.53125,30.056251525878906,11.268750190734863
1779996177923302400,3.435302490234375,17.73750114440918,30.075000762939453,11.268750190734863
1779996177943108600,3.455108642578125,17.83125114440918,30.075000762939453,11.287500381469727
1779996177963003600,3.475003662109375,17.793750762939453,30.056251525878906,11.268750190734863
1779996177983215600,3.495215576171875,17.73750114440918,30.056251525878906,11.30625057220459
1779996178003539200,3.515539306640625,17.64375114440918,30.056251525878906,11.325000762939453
1779996178023255600,3.535255615234375,17.681251525878906,30.075000762939453,11.325000762939453
1779996178043076000,3.555076171875,17.868751525878906,30.075000762939453,11.34375
1779996178063177700,3.575177734375,17.92500114440918,30.075000762939453,11.30625057220459
1779996178083040800,3.595040771484375,18,30.075000762939453,11.287500381469727
1779996178102973400,3.614973388671875,18.09375,30.075000762939453,11.30625057220459
1779996178123217700,3.6352177734375,18,30.075000762939453,11.287500381469727
1779996178143085000,3.6550849609375,17.962501525878906,30.093751907348633,11.287500381469727
1779996178163115000,3.675114990234375,18,30.093751907348633,11.268750190734863
1779996178183028200,3.6950283203125,18.056251525878906,30.075000762939453,11.25
1779996178202978000,3.71497802734375,18.056251525878906,30.093751907348633,11.231250762939453
1779996178222960000,3.734960205078125,18.056251525878906,30.093751907348633,11.231250762939453
1779996178243428000,3.755427978515625,17.90625,30.093751907348633,11.231250762939453
1779996178263489000,3.775489013671875,17.73750114440918,30.075000762939453,11.25
1779996178283216400,3.79521630859375,17.756250381469727,30.075000762939453,11.25
1779996178303044600,3.815044677734375,17.887500762939453,30.075000762939453,11.231250762939453
1779996178322963000,3.834962890625,18.037500381469727,30.075000762939453,11.231250762939453
1779996178343366100,3.8553662109375,18.168750762939453,30.075000762939453,11.21250057220459
1779996178363433700,3.875433837890625,18.168750762939453,30.075000762939453,11.231250762939453
1779996178383187500,3.8951875,18.075000762939453,30.075000762939453,11.231250762939453
1779996178403042300,3.915042236328125,17.981250762939453,30.075000762939453,11.231250762939453
1779996178422964500,3.934964599609375,18.09375,30.075000762939453,11.21250057220459
1779996178442939400,3.954939453125,17.981250762939453,30.093751907348633,11.193750381469727
1779996178462944000,3.974944091796875,18.131250381469727,30.093751907348633,11.175000190734863
1779996178482959000,3.994958984375,18.168750762939453,30.11250114440918,11.15625
1779996178502977300,4.014977294921875,18.168750762939453,30.11250114440918,11.137500762939453
1779996178522982400,4.034982421875,18.09375,30.11250114440918,11.137500762939453
1779996178542936600,4.0549365234375,18.150001525878906,30.11250114440918,11.137500762939453
1779996178562965800,4.0749658203125,18.243751525878906,30.131250381469727,11.15625
1779996178582977800,4.094977783203125,18.318750381469727,30.168750762939453,11.137500762939453
1779996178603180500,4.1151806640625,18.337501525878906,30.168750762939453,11.100000381469727
1779996178623090700,4.135090576171875,18.543750762939453,30.187501907348633,11.081250190734863
1779996178643023000,4.155023193359375,18.65625,30.187501907348633,11.081250190734863
1779996178663286300,4.175286376953125,18.525001525878906,30.20625114440918,11.081250190734863
1779996178683127600,4.19512744140625,18.431251525878906,30.225000381469727,11.081250190734863
1779996178703022300,4.215022216796875,18.450000762939453,30.225000381469727,11.081250190734863
1779996178722971400,4.234971435546875,18.46875,30.243751525878906,11.081250190734863
1779996178742957300,4.254957275390625,18.67500114440918,30.243751525878906,11.081250190734863
1779996178762952400,4.274952392578125,18.600000381469727,30.243751525878906,11.081250190734863
1779996178782970000,4.29497021484375,18.58125114440918,30.225000381469727,11.0625
1779996178802976000,4.31497607421875,18.543750762939453,30.225000381469727,11.100000381469727
1779996178822982400,4.334982421875,18.5625,30.20625114440918,11.100000381469727
1779996178842990000,4.354989990234375,18.525001525878906,30.225000381469727,11.11875057220459
1779996178862987300,4.3749873046875,18.5625,30.243751525878906,11.11875057220459
1779996178883318300,4.395318359375,18.450000762939453,30.20625114440918,11.100000381469727
1779996178903163400,4.415163330078125,18.431251525878906,30.168750762939453,11.100000381469727
1779996178923051300,4.43505126953125,18.1875,30.168750762939453,11.100000381469727
1779996178943254300,4.455254150390625,17.850000381469727,30.187501907348633,11.100000381469727
1779996178963115500,4.475115478515625,17.83125114440918,30.20625114440918,11.11875057220459
1779996178983030000,4.495030029296875,17.681251525878906,30.225000381469727,11.11875057220459
1779996179003181800,4.515181884765625,17.71875,30.225000381469727,11.100000381469727
1779996179023064000,4.53506396484375,17.64375114440918,30.187501907348633,11.081250190734863
1779996179043000300,4.555000244140625,17.45625114440918,30.168750762939453,11.043750762939453
1779996179063239000,4.575239013671875,17.45625114440918,30.187501907348633,11.043750762939453
1779996179083111000,4.59511083984375,17.45625114440918,30.187501907348633,11.0625
1779996179103029000,4.615029052734375,17.45625114440918,30.20625114440918,11.0625
1779996179123355100,4.635355224609375,17.287500381469727,30.225000381469727,11.081250190734863
1779996179143172400,4.65517236328125,17.17500114440918,30.20625114440918,11.081250190734863
1779996179163052500,4.675052490234375,17.137500762939453,30.225000381469727,11.043750762939453
1779996179182992000,4.694991943359375,17.193750381469727,30.243751525878906,11.043750762939453
1779996179240033300,4.752033203125,17.212501525878906,30.262500762939453,11.043750762939453
1779996179342804700,4.8548046875,17.137500762939453,30.30000114440918,11.043750762939453
1779996179475269400,4.987269287109375,17.193750381469727,30.318750381469727,10.96875
1779996179519413800,5.031413818359375,5.737500190734863,33.806251525878906,10.012500762939453
1779996179563544600,5.075544677734375,5.643750190734863,33.806251525878906,10.012500762939453
1779996179607653400,5.1196533203125,5.606250286102295,33.806251525878906,10.012500762939453
1779996179651729000,5.16372900390625,5.550000190734863,33.806251525878906,10.03125
1779996179695756500,5.207756591796875,5.512500286102295,33.78750228881836,10.03125
1779996179739718000,5.2517177734375,5.625,33.78750228881836,9.99375057220459
1779996179783590100,5.295590087890625,5.962500095367432,33.78750228881836,9.956250190734863
1779996179827347200,5.33934716796875,6.018750190734863,33.78750228881836,9.9375
1779996179870956500,5.38295654296875,6.187500476837158,33.806251525878906,9.90000057220459
1779996179914382300,5.42638232421875,6.187500476837158,33.806251525878906,9.918750762939453
1779996179957581800,5.469581787109375,6.206250190734863,33.806251525878906,9.918750762939453
1779996180000508200,5.512508056640625,6.206250190734863,33.78750228881836,9.9375
1779996180043107800,5.55510791015625,6.337500095367432,33.76875305175781,9.956250190734863
1779996180085323800,5.59732373046875,6.431250095367432,33.75,9.956250190734863
1779996180127089700,5.639089599609375,6.525000095367432,33.712501525878906,9.956250190734863
1779996180168337700,5.680337646484375,18.09375,30.243751525878906,10.93125057220459
1779996180208995300,5.720995361328125,18.20625114440918,30.243751525878906,10.96875
1779996180248980700,5.760980712890625,18.11250114440918,30.262500762939453,10.987500190734863
1779996180288213000,5.800212890625,18.1875,30.243751525878906,10.987500190734863
1779996180326606600,5.838606689453125,18.243751525878906,30.243751525878906,10.96875
1779996180364074800,5.87607470703125,18.262500762939453,30.243751525878906,10.96875
1779996180400528600,5.912528564453125,18.262500762939453,30.243751525878906,11.006250381469727
1779996180435880200,5.947880126953125,18.168750762939453,30.225000381469727,11.02500057220459
1779996180470043000,5.98204296875,18,30.243751525878906,11.043750762939453
1779996180502933000,6.01493310546875,17.962501525878906,30.225000381469727,11.043750762939453
1779996180534475500,6.0464755859375,17.90625,30.225000381469727,11.043750762939453
1779996180564592400,6.07659228515625,17.850000381469727,30.225000381469727,11.043750762939453
1779996180593214000,6.1052138671875,17.700000762939453,30.225000381469727,11.02500057220459
1779996180620292900,6.13229296875,17.756250381469727,30.225000381469727,11.02500057220459
1779996180645785300,6.157785400390625,17.73750114440918,30.225000381469727,11.043750762939453
1779996180669631200,6.18163134765625,17.625,30.243751525878906,11.043750762939453
1779996180691821800,6.20382177734375,17.625,30.243751525878906,11.02500057220459
1779996180712347400,6.224347412109375,17.681251525878906,30.243751525878906,11.006250381469727
1779996180731206100,6.2432060546875,17.606250762939453,30.262500762939453,10.987500190734863
1779996180748416000,6.260416015625,17.606250762939453,30.281251907348633,10.96875
1779996180764021500,6.276021484375,17.681251525878906,30.262500762939453,10.96875
1779996180778050000,6.290050048828125,17.53125,30.281251907348633,11.006250381469727
1779996180790543000,6.302543212890625,17.45625114440918,30.262500762939453,11.043750762939453
1779996180801563600,6.313563720703125,17.325000762939453,30.262500762939453,11.0625
1779996180811195400,6.3231953125,17.418750762939453,30.262500762939453,11.081250190734863
1779996180826646800,6.338646728515625,17.606250762939453,30.262500762939453,11.15625
1779996180837622300,6.349622314453125,17.400001525878906,30.225000381469727,11.193750381469727
1779996180847473400,6.359473388671875,17.306251525878906,30.243751525878906,11.268750190734863
1779996180857119700,6.36911962890625,17.64375114440918,30.262500762939453,11.137500762939453
1779996180867825000,6.379824951171875,18.225000381469727,30.281251907348633,11.137500762939453
1779996180879158300,6.391158203125,18.5625,30.281251907348633,11.175000190734863
1779996180888959500,6.40095947265625,18.75,30.30000114440918,11.193750381469727
1779996180900627200,6.412627197265625,18.731250762939453,30.30000114440918,11.21250057220459
1779996180914130000,6.4261298828125,18.806251525878906,30.318750381469727,11.25
1779996180929466000,6.441466064453125,18.75,30.356250762939453,11.231250762939453
1779996180946615800,6.45861572265625,18.600000381469727,30.318750381469727,11.25
1779996180965512700,6.4775126953125,18.243751525878906,30.30000114440918,11.25
1779996180975588900,6.4875888671875,18.01875114440918,30.281251907348633,11.268750190734863
1779996180986080000,6.498080078125,18.09375,30.281251907348633,11.268750190734863
1779996181000957200,6.512957275390625,17.943750381469727,30.262500762939453,11.268750190734863
1779996181055165700,6.567165771484375,17.8125,30.262500762939453,11.268750190734863
1779996181080200000,6.592199951171875,6.300000190734863,33.73125076293945,10.3125
1779996181180329500,6.69232958984375,-5.25,37.275001525878906,9.356250762939453
1779996181205353700,6.717353759765625,-5.362500190734863,37.29375076293945,9.375
1779996181230370300,6.742370361328125,-5.4375,37.29375076293945,9.393750190734863
1779996181255376000,6.7673759765625,-5.325000286102295,37.29375076293945,9.412500381469727
1779996181280366000,6.792365966796875,-5.193750381469727,37.29375076293945,9.43125057220459
1779996181305335300,6.817335205078125,-5.137500286102295,37.29375076293945,9.43125057220459
1779996181330277600,6.842277587890625,-5.137500286102295,37.3125,9.412500381469727
1779996181355185200,6.86718505859375,-5.231250286102295,37.3125,9.412500381469727
1779996181380050200,6.89205029296875,-5.15625,37.3125,9.412500381469727
1779996181404862200,6.9168623046875,-5.0625,37.33125305175781,9.412500381469727
1779996181429611500,6.941611572265625,-4.987500190734863,37.29375076293945,9.393750190734863
1779996181454284000,6.966283935546875,6.431250095367432,33.82500076293945,10.387500762939453
1779996181478868500,6.990868408203125,17.868751525878906,30.356250762939453,11.381250381469727
1779996181503350000,7.01535009765625,17.8125,30.337501525878906,11.34375
1779996181527711200,7.039711181640625,17.868751525878906,30.318750381469727,11.34375
1779996181551934500,7.0639345703125,17.850000381469727,30.318750381469727,11.34375
1779996181576002600,7.08800244140625,17.943750381469727,30.318750381469727,11.34375
1779996181599897600,7.111897705078125,18,30.30000114440918,11.362500190734863
1779996181623598600,7.1355986328125,17.92500114440918,30.318750381469727,11.362500190734863
1779996181647088400,7.15908837890625,17.83125114440918,30.30000114440918,11.362500190734863
1779996181670342400,7.18234228515625,17.793750762939453,30.30000114440918,11.381250381469727
1779996181693342500,7.205342529296875,17.943750381469727,30.318750381469727,11.381250381469727
1779996181716071400,7.228071533203125,18.037500381469727,30.318750381469727,11.362500190734863
1779996181738504000,7.25050390625,18.037500381469727,30.337501525878906,11.381250381469727
1779996181760624400,7.272624267578125,17.981250762939453,30.318750381469727,11.381250381469727
1779996181782420500,7.29442041015625,17.850000381469727,30.337501525878906,11.362500190734863
1779996181803870000,7.315869873046875,17.83125114440918,30.337501525878906,11.381250381469727
1779996181824964400,7.33696435546875,18.056251525878906,30.337501525878906,11.362500190734863
1779996181845684200,7.357684326171875,18.168750762939453,30.318750381469727,11.381250381469727
1779996181866032600,7.37803271484375,18.243751525878906,30.318750381469727,11.381250381469727
1779996181886004000,7.39800390625,18.356250762939453,30.30000114440918,11.381250381469727
1779996181905575400,7.417575439453125,18.337501525878906,30.30000114440918,11.381250381469727
1779996181924760800,7.4367607421875,18.39375114440918,30.30000114440918,11.381250381469727
1779996181943573200,7.4555732421875,18.543750762939453,30.281251907348633,11.362500190734863
1779996181961999400,7.473999267578125,18.67500114440918,30.318750381469727,11.381250381469727
1779996181980057900,7.492057861328125,18.76875114440918,30.30000114440918,11.362500190734863
1779996181997771800,7.509771728515625,18.787500381469727,30.281251907348633,11.34375
1779996182015142700,7.527142578125,18.825000762939453,30.243751525878906,11.34375
1779996182032185900,7.544185791015625,18.806251525878906,30.20625114440918,11.34375
1779996182048927500,7.560927490234375,18.712501525878906,30.187501907348633,11.34375
1779996182065400000,7.577400146484375,18.731250762939453,30.187501907348633,11.34375
1779996182081604000,7.59360400390625,18.918750762939453,30.187501907348633,11.325000762939453
1779996182097574700,7.60957470703125,18.75,30.187501907348633,11.325000762939453
1779996182113352400,7.6253525390625,18.76875114440918,30.168750762939453,11.30625057220459
1779996182128932400,7.640932373046875,18.787500381469727,30.150001525878906,11.30625057220459
1779996182144355600,7.65635546875,18.806251525878906,30.168750762939453,11.325000762939453
1779996182159654000,7.67165380859375,18.806251525878906,30.150001525878906,11.30625057220459
1779996182174836000,7.6868359375,18.600000381469727,30.168750762939453,11.30625057220459
1779996182189933600,7.70193359375,18.30000114440918,30.168750762939453,11.30625057220459
1779996182204983800,7.71698388671875,18.28125,30.150001525878906,11.268750190734863
1779996182219978800,7.731978759765625,18.30000114440918,30.150001525878906,11.268750190734863
1779996182234975500,7.7469755859375,18.131250381469727,30.131250381469727,11.30625057220459
1779996182249966000,7.761966064453125,18,30.150001525878906,11.325000762939453
1779996182264954400,7.776954345703125,18.056251525878906,30.150001525878906,11.34375
1779996182279974100,7.79197412109375,18.150001525878906,30.150001525878906,11.34375
1779996182295055000,7.80705517578125,18.20625114440918,30.150001525878906,11.34375
1779996182310187000,7.82218701171875,18.20625114440918,30.150001525878906,11.34375
1779996182325413000,7.8374130859375,18.225000381469727,30.11250114440918,11.34375
1779996182340704000,7.8527041015625,18.09375,30.11250114440918,11.381250381469727
1779996182356082400,7.86808251953125,17.943750381469727,30.131250381469727,11.381250381469727
1779996182371541200,7.883541259765625,17.850000381469727,30.131250381469727,11.40000057220459
1779996182387103200,7.899103271484375,17.71875,30.11250114440918,11.418750762939453
1779996182402775000,7.914775146484375,17.83125114440918,30.093751907348633,11.418750762939453
1779996182418596600,7.9305966796875,17.962501525878906,30.131250381469727,11.4375
1779996182434502000,7.946501953125,17.868751525878906,30.11250114440918,11.4375
1779996182450519600,7.96251953125,18.037500381469727,30.093751907348633,11.456250190734863
1779996182466675000,7.978675048828125,18.243751525878906,30.131250381469727,11.4375
1779996182482934800,7.994934814453125,18.225000381469727,30.131250381469727,11.418750762939453
1779996182499318300,8.011318359375,18.056251525878906,30.168750762939453,11.418750762939453
1779996182515825700,8.02782568359375,18.131250381469727,30.168750762939453,11.418750762939453
1779996182532456200,8.044456298828125,18.168750762939453,30.187501907348633,11.418750762939453
1779996182549208600,8.06120849609375,18,30.168750762939453,11.418750762939453
1779996182566082000,8.07808203125,17.90625,30.168750762939453,11.381250381469727
1779996182583076900,8.095076904296874,17.962501525878906,30.168750762939453,11.381250381469727
1779996182600189700,8.112189697265626,18.037500381469727,30.168750762939453,11.381250381469727
1779996182617419500,8.12941943359375,17.90625,30.168750762939453,11.381250381469727
1779996182634765000,8.14676513671875,18.056251525878906,30.168750762939453,11.362500190734863
1779996182652223200,8.16422314453125,18.150001525878906,30.187501907348633,11.381250381469727
1779996182669793500,8.18179345703125,18.243751525878906,30.168750762939453,11.362500190734863
1779996182687489300,8.1994892578125,18.262500762939453,30.187501907348633,11.362500190734863
1779996182705272800,8.21727294921875,18.150001525878906,30.20625114440918,11.34375
1779996182723178800,8.2351787109375,17.981250762939453,30.168750762939453,11.325000762939453
1779996182741631500,8.253631591796875,17.981250762939453,30.150001525878906,11.325000762939453
1779996182761480400,8.27348046875,18.131250381469727,30.131250381469727,11.325000762939453
1779996182782332400,8.29433251953125,18,30.131250381469727,11.30625057220459
1779996182802909200,8.3149091796875,18,30.131250381469727,11.30625057220459
1779996182823507500,8.335507568359375,18,30.150001525878906,11.287500381469727
1779996182843830500,8.35583056640625,18.09375,30.168750762939453,11.30625057220459
1779996182863706400,8.375706298828124,18.168750762939453,30.168750762939453,11.30625057220459
1779996182883512000,8.395511962890625,18.225000381469727,30.168750762939453,11.287500381469727
1779996182903484400,8.415484375,18.356250762939453,30.150001525878906,11.287500381469727
1779996182923224300,8.435224365234374,18.318750381469727,30.131250381469727,11.268750190734863
1779996182943393800,8.455393798828124,18.28125,30.11250114440918,11.231250762939453
1779996182963305200,8.47530517578125,18.337501525878906,30.131250381469727,11.231250762939453
1779996182983070000,8.495070068359375,18.356250762939453,30.131250381469727,11.25
1779996183002965500,8.514965576171875,18.337501525878906,30.150001525878906,11.287500381469727
1779996183023534000,8.5355341796875,18.39375114440918,30.150001525878906,11.287500381469727
1779996183043243800,8.555243896484376,18.450000762939453,30.150001525878906,11.287500381469727
1779996183063072800,8.57507275390625,18.356250762939453,30.11250114440918,11.287500381469727
1779996183082990600,8.594990478515625,18.356250762939453,30.11250114440918,11.30625057220459
1779996183102949600,8.61494970703125,18.39375114440918,30.11250114440918,11.325000762939453
1779996183123210500,8.63521044921875,18.450000762939453,30.11250114440918,11.34375
1779996183143480300,8.655480224609375,18.375,30.093751907348633,11.381250381469727
1779996183163222000,8.675221923828126,18.20625114440918,30.093751907348633,11.362500190734863
1779996183183068400,8.695068359375,18.11250114440918,30.075000762939453,11.34375
1779996183203310000,8.71531005859375,18.131250381469727,30.075000762939453,11.325000762939453
1779996183223142400,8.735142333984374,18.20625114440918,30.075000762939453,11.30625057220459
1779996183243032300,8.7550322265625,18.20625114440918,30.075000762939453,11.34375
1779996183263006500,8.77500634765625,17.887500762939453,30.056251525878906,11.362500190734863
1779996183282980600,8.794980712890625,17.756250381469727,30.056251525878906,11.362500190734863
1779996183302966800,8.814966796875,17.793750762939453,30.075000762939453,11.34375
1779996183322967600,8.834967529296875,17.850000381469727,30.093751907348633,11.34375
1779996183342976800,8.854976806640625,17.850000381469727,30.093751907348633,11.34375
1779996183362978600,8.874978515625,17.92500114440918,30.11250114440918,11.325000762939453
1779996183382981600,8.894981689453125,17.887500762939453,30.093751907348633,11.30625057220459
1779996183403258000,8.915258056640624,17.887500762939453,30.131250381469727,11.325000762939453
1779996183423119400,8.935119384765626,17.981250762939453,30.11250114440918,11.325000762939453
1779996183443030300,8.9550302734375,18.075000762939453,30.131250381469727,11.30625057220459
1779996183463111000,8.97511083984375,18.150001525878906,30.131250381469727,11.287500381469727
1779996183483031000,8.995031005859374,18.243751525878906,30.150001525878906,11.30625057220459
1779996183502998500,9.01499853515625,18.225000381469727,30.168750762939453,11.325000762939453
1779996183523252700,9.035252685546874,18.09375,30.187501907348633,11.30625057220459
1779996183543118800,9.055118896484375,18.037500381469727,30.187501907348633,11.287500381469727
1779996183563042000,9.0750419921875,18.1875,30.168750762939453,11.268750190734863
1779996183583195100,9.095195068359375,18.262500762939453,30.150001525878906,11.25
1779996183603073500,9.115073486328125,18.075000762939453,30.131250381469727,11.25
1779996183623007000,9.135007080078125,17.943750381469727,30.131250381469727,11.25
1779996183643031000,9.155031005859374,17.90625,30.150001525878906,11.268750190734863
1779996183662994000,9.174993896484375,17.92500114440918,30.150001525878906,11.287500381469727
1779996183682980600,9.194980712890626,18.131250381469727,30.150001525878906,11.30625057220459
1779996183703173000,9.215173095703125,18.150001525878906,30.131250381469727,11.287500381469727
1779996183723084000,9.235083984375,18.037500381469727,30.131250381469727,11.25
1779996183743019300,9.255019287109375,18.01875114440918,30.131250381469727,11.21250057220459
1779996183762978600,9.274978515625,18.09375,30.131250381469727,11.21250057220459
1779996183782975000,9.29497509765625,18.037500381469727,30.131250381469727,11.231250762939453
1779996183802972000,9.314971923828125,18.037500381469727,30.131250381469727,11.231250762939453
1779996183822975700,9.334975830078125,18.11250114440918,30.11250114440918,11.231250762939453
1779996183842984000,9.35498388671875,18.11250114440918,30.093751907348633,11.231250762939453
1779996183862983400,9.3749833984375,18.262500762939453,30.11250114440918,11.231250762939453
1779996183882984700,9.394984619140626,18.375,30.150001525878906,11.25
1779996183902988800,9.41498876953125,18.39375114440918,30.150001525878906,11.25
1779996183923248000,9.435248046875,18.48750114440918,30.11250114440918,11.231250762939453
1779996183943130600,9.455130615234374,18.506250381469727,30.093751907348633,11.231250762939453
1779996183963051800,9.4750517578125,18.262500762939453,30.093751907348633,11.193750381469727
1779996183983339000,9.495339111328125,18.056251525878906,30.11250114440918,11.193750381469727
1779996184003174400,9.51517431640625,17.981250762939453,30.093751907348633,11.175000190734863
1779996184023056600,9.535056640625,18.01875114440918,30.11250114440918,11.175000190734863
1779996184079989000,9.591989013671874,17.981250762939453,30.093751907348633,11.21250057220459
1779996184182758000,9.6947578125,17.83125114440918,30.075000762939453,11.21250057220459
1779996184271042000,9.7830419921875,17.662500381469727,30.056251525878906,11.231250762939453
1779996184359310600,9.871310546875,17.568750381469727,30.056251525878906,11.193750381469727
1779996184403427300,9.91542724609375,17.64375114440918,30.037500381469727,11.21250057220459
1779996184447522000,9.95952197265625,17.83125114440918,30.037500381469727,11.21250057220459
1779996184491583500,10.00358349609375,17.775001525878906,30.056251525878906,11.21250057220459
1779996184535597300,10.047597412109376,17.700000762939453,30.01875114440918,11.193750381469727
1779996184579544600,10.091544677734374,17.83125114440918,30.000001907348633,11.21250057220459
1779996184623403000,10.135403076171874,17.887500762939453,29.981250762939453,11.21250057220459
1779996184667145700,10.179145751953126,17.850000381469727,30.000001907348633,11.231250762939453
1779996184710741500,10.222741455078125,17.943750381469727,30.000001907348633,11.231250762939453
1779996184754153200,10.2661533203125,18,30.000001907348633,11.231250762939453
1779996184797339000,10.3093388671875,18.056251525878906,30.037500381469727,11.231250762939453
1779996184840251600,10.352251708984374,18.09375,30.056251525878906,11.231250762939453
1779996184882839000,10.394839111328125,18.225000381469727,30.075000762939453,11.25
1779996184925040600,10.43704052734375,18.20625114440918,30.075000762939453,11.268750190734863
1779996184966794000,10.4787939453125,18.243751525878906,30.075000762939453,11.268750190734863
1779996185008031500,10.520031494140625,18.243751525878906,30.075000762939453,11.287500381469727
1779996185048675000,10.560675048828125,18.243751525878906,30.093751907348633,11.268750190734863
1779996185088648700,10.600648681640624,18.168750762939453,30.11250114440918,11.25
1779996185127869400,10.639869384765625,18.1875,30.11250114440918,11.25
1779996185166252300,10.678252197265625,18.28125,30.150001525878906,11.268750190734863
1779996185203710200,10.715710205078125,18.318750381469727,30.168750762939453,11.268750190734863
1779996185240154400,10.752154296875,18.1875,30.187501907348633,11.25
1779996185275497000,10.7874970703125,18.225000381469727,30.187501907348633,11.25
1779996185309651200,10.821651123046875,18.056251525878906,30.187501907348633,11.25
1779996185342533600,10.85453369140625,17.92500114440918,30.187501907348633,11.231250762939453
1779996185374064600,10.886064697265626,17.868751525878906,30.187501907348633,11.231250762939453
1779996185404171300,10.916171142578126,17.868751525878906,30.168750762939453,11.21250057220459
1779996185432787200,10.944787109375,17.887500762939453,30.168750762939453,11.193750381469727
1779996185459856000,10.97185595703125,17.850000381469727,30.168750762939453,11.175000190734863
1779996185485329700,10.99732958984375,17.868751525878906,30.168750762939453,11.15625
1779996185509172500,11.02117236328125,17.83125114440918,30.168750762939453,11.175000190734863
1779996185531361000,11.043361083984376,17.662500381469727,30.168750762939453,11.193750381469727
1779996185551883500,11.063883544921875,17.493751525878906,30.168750762939453,11.21250057220459
1779996185570749700,11.082749755859375,17.475000381469727,30.168750762939453,11.231250762939453
1779996185587960300,11.099960205078125,17.475000381469727,30.150001525878906,11.21250057220459
1779996185603551000,11.115551025390625,17.568750381469727,30.131250381469727,11.21250057220459
1779996185617563000,11.12956298828125,17.662500381469727,30.11250114440918,11.231250762939453
1779996185630049500,11.142049560546875,17.700000762939453,30.11250114440918,11.231250762939453
1779996185641085400,11.15308544921875,17.775001525878906,30.11250114440918,11.25
1779996185650738400,11.162738525390624,17.83125114440918,30.150001525878906,11.25
1779996185666192600,11.178192626953125,17.850000381469727,30.150001525878906,11.268750190734863
1779996185677177900,11.189177734375,17.700000762939453,30.131250381469727,11.268750190734863
1779996185687061200,11.199061279296876,17.606250762939453,30.168750762939453,11.268750190734863
1779996185696869000,11.208869140625,18.037500381469727,30.11250114440918,11.34375
1779996185707618800,11.219618896484375,18.225000381469727,30.056251525878906,11.362500190734863
1779996185718968600,11.230968505859375,17.943750381469727,30.11250114440918,11.362500190734863
1779996185728800500,11.240800537109376,18.037500381469727,30.150001525878906,11.362500190734863
1779996185740488000,11.252488037109375,18.037500381469727,30.168750762939453,11.34375
1779996185754010000,11.266010009765624,17.868751525878906,30.150001525878906,11.34375
1779996185769380400,11.28138037109375,17.850000381469727,30.131250381469727,11.325000762939453
1779996185786528500,11.298528564453125,18,30.11250114440918,11.287500381469727
1779996185805423600,11.317423583984375,17.943750381469727,30.131250381469727,11.25
1779996185815507200,11.327507080078124,18.09375,30.11250114440918,11.231250762939453
1779996185826006300,11.33800634765625,18.056251525878906,30.093751907348633,11.231250762939453
1779996185836936200,11.348936279296876,18.075000762939453,30.093751907348633,11.231250762939453
1779996185848236800,11.36023681640625,17.943750381469727,30.093751907348633,11.21250057220459
1779996185859928000,11.371927978515625,17.90625,30.093751907348633,11.21250057220459
1779996185871999000,11.3839990234375,17.90625,30.075000762939453,11.193750381469727
1779996185884472300,11.396472412109375,17.981250762939453,30.075000762939453,11.175000190734863
1779996185897589000,11.409589111328126,18.20625114440918,30.056251525878906,11.175000190734863
1779996185914648000,11.42664794921875,18.168750762939453,30.056251525878906,11.193750381469727
1779996185937239600,11.449239501953125,18.075000762939453,30.056251525878906,11.193750381469727
1779996185960350200,11.47235009765625,18.075000762939453,30.075000762939453,11.175000190734863
1779996185982208000,11.4942080078125,17.887500762939453,30.075000762939453,11.193750381469727
1779996186003162000,11.515162109375,17.868751525878906,30.093751907348633,11.193750381469727
1779996186023494400,11.535494384765625,17.962501525878906,30.075000762939453,11.175000190734863
1779996186043499800,11.555499755859374,17.943750381469727,30.093751907348633,11.193750381469727
1779996186063446800,11.57544677734375,17.83125114440918,30.093751907348633,11.193750381469727
1779996186083257900,11.5952578125,17.868751525878906,30.075000762939453,11.175000190734863
1779996186103378700,11.615378662109375,17.943750381469727,30.056251525878906,11.193750381469727
1779996186123653000,11.635653076171875,18.056251525878906,30.056251525878906,11.193750381469727
1779996186143297300,11.65529736328125,17.92500114440918,30.075000762939453,11.231250762939453
1779996186163077400,11.675077392578125,18,30.093751907348633,11.231250762939453
1779996186182970000,11.69497021484375,17.962501525878906,30.093751907348633,11.231250762939453
1779996186202925600,11.714925537109375,17.90625,30.11250114440918,11.21250057220459
1779996186222923000,11.734923095703126,18,30.131250381469727,11.21250057220459
1779996186243261000,11.755260986328125,18.01875114440918,30.131250381469727,11.231250762939453
1779996186263533800,11.775533935546875,18,30.131250381469727,11.287500381469727
1779996186283403000,11.795403076171874,18,30.150001525878906,11.34375
1779996186303616000,11.815615966796875,18.056251525878906,30.150001525878906,11.40000057220459
1779996186323787800,11.835787841796876,18.09375,30.131250381469727,11.418750762939453
1779996186343538200,11.8555380859375,18.131250381469727,30.131250381469727,11.456250190734863
1779996186363427000,11.875427001953126,18.243751525878906,30.150001525878906,11.475000381469727
1779996186383118000,11.8951181640625,18.412500381469727,30.168750762939453,11.475000381469727
1779996186402964700,11.91496484375,18.506250381469727,30.168750762939453,11.49375057220459
1779996186423167000,11.9351669921875,18.543750762939453,30.187501907348633,11.512500762939453
1779996186443047400,11.95504736328125,18.75,30.168750762939453,11.49375057220459
1779996186462988300,11.97498828125,18.58125114440918,30.150001525878906,11.512500762939453
1779996186483230000,11.99522998046875,18.525001525878906,30.150001525878906,11.53125
1779996186503306200,12.01530615234375,18.506250381469727,30.131250381469727,11.512500762939453
1779996186523127300,12.035127197265625,18.30000114440918,30.11250114440918,11.475000381469727
1779996186543014000,12.055013916015625,18.1875,30.11250114440918,11.456250190734863
1779996186563174000,12.075173828125,18.356250762939453,30.11250114440918,11.40000057220459
1779996186583056000,12.095055908203125,18.450000762939453,30.075000762939453,11.34375
1779996186602992000,12.1149921875,18.28125,30.093751907348633,11.30625057220459
1779996186623171300,12.13517138671875,18.243751525878906,30.093751907348633,11.268750190734863
1779996186643060000,12.15506005859375,18.168750762939453,30.093751907348633,11.25
1779996186662997200,12.174997314453124,18.168750762939453,30.093751907348633,11.231250762939453
1779996186682998000,12.194998046875,18.01875114440918,30.093751907348633,11.21250057220459
1779996186703217200,12.215217041015626,18,30.11250114440918,11.193750381469727
1779996186723100000,12.235099853515624,17.962501525878906,30.11250114440918,11.193750381469727
1779996186743021800,12.255021728515626,17.887500762939453,30.11250114440918,11.175000190734863
1779996186762978300,12.274978271484375,17.962501525878906,30.093751907348633,11.175000190734863
1779996186782971100,12.29497119140625,18.037500381469727,30.093751907348633,11.137500762939453
1779996186803231500,12.3152314453125,18.09375,30.093751907348633,11.15625
1779996186823120000,12.335119873046875,18.225000381469727,30.11250114440918,11.15625
1779996186843045600,12.355045654296875,18.412500381469727,30.131250381469727,11.175000190734863
1779996186863039200,12.375039306640625,18.39375114440918,30.131250381469727,11.21250057220459
1779996186882998800,12.394998779296875,18.412500381469727,30.131250381469727,11.21250057220459
1779996186902983000,12.41498291015625,18.58125114440918,30.131250381469727,11.21250057220459
1779996186922971600,12.4349716796875,18.506250381469727,30.131250381469727,11.231250762939453
1779996186942971400,12.454971435546875,18.543750762939453,30.11250114440918,11.193750381469727
1779996186962977500,12.4749775390625,18.525001525878906,30.11250114440918,11.175000190734863
1779996186982985200,12.494985107421876,18.67500114440918,30.11250114440918,11.193750381469727
1779996187002993400,12.514993408203125,18.525001525878906,30.11250114440918,11.175000190734863
1779996187022990600,12.534990478515626,18.39375114440918,30.093751907348633,11.15625
1779996187042990800,12.554990966796876,18.450000762939453,30.093751907348633,11.175000190734863
1779996187062995200,12.5749951171875,18.600000381469727,30.131250381469727,11.15625
1779996187082989300,12.5949892578125,18.5625,30.131250381469727,11.193750381469727
1779996187103284000,12.615283935546875,18.450000762939453,30.131250381469727,11.193750381469727
1779996187123354000,12.63535400390625,18.375,30.11250114440918,11.21250057220459
1779996187143283000,12.655282958984374,18.412500381469727,30.131250381469727,11.21250057220459
1779996187163099100,12.67509912109375,18.39375114440918,30.131250381469727,11.21250057220459
1779996187183000600,12.69500048828125,18.30000114440918,30.131250381469727,11.231250762939453
1779996187202951400,12.714951416015625,18.20625114440918,30.131250381469727,11.231250762939453
1779996187222940700,12.734940673828126,18.318750381469727,30.131250381469727,11.231250762939453
1779996187242951000,12.754950927734376,18.356250762939453,30.131250381469727,11.25
1779996187263329000,12.7753291015625,18.450000762939453,30.150001525878906,11.287500381469727
1779996187283375900,12.7953759765625,18.337501525878906,30.150001525878906,11.30625057220459
1779996187303167500,12.81516748046875,18.375,30.131250381469727,11.325000762939453
1779996187323101400,12.835101318359374,18.46875,30.131250381469727,11.325000762939453
1779996187343014100,12.85501416015625,18.525001525878906,30.150001525878906,11.325000762939453
1779996187362967000,12.874967041015625,18.525001525878906,30.11250114440918,11.325000762939453
1779996187383156500,12.895156494140625,18.525001525878906,30.131250381469727,11.325000762939453
1779996187403061500,12.9150615234375,18.600000381469727,30.131250381469727,11.34375
1779996187422999000,12.9349990234375,18.65625,30.131250381469727,11.325000762939453
1779996187442971600,12.9549716796875,18.58125114440918,30.11250114440918,11.325000762939453
1779996187462967000,12.974967041015624,18.506250381469727,30.093751907348633,11.325000762939453
1779996187482972400,12.994972412109375,18.5625,30.11250114440918,11.325000762939453
1779996187502972000,13.014971923828124,18.58125114440918,30.131250381469727,11.30625057220459
1779996187522977800,13.034977783203125,18.506250381469727,30.11250114440918,11.287500381469727
1779996187542975200,13.054975341796874,18.450000762939453,30.131250381469727,11.287500381469727
1779996187562987500,13.074987548828124,18.318750381469727,30.11250114440918,11.268750190734863
1779996187582987000,13.094987060546876,18.28125,30.11250114440918,11.25
1779996187603251500,13.11525146484375,18.262500762939453,30.131250381469727,11.25
1779996187623139300,13.135139404296876,18.20625114440918,30.11250114440918,11.25
1779996187643051800,13.1550517578125,18.09375,30.093751907348633,11.25
1779996187662978000,13.17497802734375,18.01875114440918,30.11250114440918,11.25
1779996187682968300,13.19496826171875,17.887500762939453,30.11250114440918,11.25
1779996187703047000,13.215046875,17.775001525878906,30.093751907348633,11.25
1779996187723129000,13.235129150390625,17.73750114440918,30.11250114440918,11.268750190734863
1779996187743053800,13.2550537109375,17.681251525878906,30.131250381469727,11.268750190734863
1779996187763000000,13.275,17.73750114440918,30.150001525878906,11.268750190734863
1779996187782975000,13.29497509765625,17.775001525878906,30.131250381469727,11.268750190734863
1779996187802969600,13.314969482421875,17.756250381469727,30.131250381469727,11.287500381469727
1779996187822973000,13.334972900390625,17.700000762939453,30.131250381469727,11.30625057220459
1779996187843277600,13.355277587890624,17.662500381469727,30.11250114440918,11.30625057220459
1779996187863156700,13.37515673828125,17.681251525878906,30.131250381469727,11.325000762939453
1779996187883584300,13.395584228515625,17.775001525878906,30.131250381469727,11.325000762939453
1779996187903359200,13.415359130859375,17.90625,30.150001525878906,11.30625057220459
1779996187923116300,13.4351162109375,17.962501525878906,30.150001525878906,11.325000762939453
1779996187943250700,13.455250732421876,17.92500114440918,30.168750762939453,11.325000762939453
1779996187963087000,13.475087158203126,17.850000381469727,30.168750762939453,11.34375
1779996187982989000,13.494989013671875,18,30.168750762939453,11.325000762939453
1779996188002971600,13.5149716796875,18.168750762939453,30.187501907348633,11.325000762939453
1779996188022958000,13.5349580078125,18.1875,30.168750762939453,11.30625057220459
1779996188042961000,13.5549609375,18.39375114440918,30.150001525878906,11.30625057220459
1779996188062973200,13.57497314453125,18.431251525878906,30.150001525878906,11.287500381469727
1779996188082977000,13.59497705078125,18.30000114440918,30.168750762939453,11.268750190734863
1779996188102981600,13.614981689453124,18.318750381469727,30.168750762939453,11.268750190734863
1779996188122969300,13.63496923828125,18.543750762939453,30.168750762939453,11.287500381469727
1779996188142974500,13.654974365234375,18.618751525878906,30.168750762939453,11.30625057220459
1779996188163521800,13.675521728515625,18.525001525878906,30.168750762939453,11.30625057220459
1779996188183470000,13.695469970703124,18.375,30.150001525878906,11.268750190734863
1779996188203662800,13.715662841796876,18.30000114440918,30.150001525878906,11.268750190734863
1779996188223294200,13.735294189453125,18.28125,30.131250381469727,11.25
1779996188243065900,13.75506591796875,18.262500762939453,30.131250381469727,11.25
1779996188263254000,13.77525390625,18.20625114440918,30.11250114440918,11.268750190734863
1779996188283188000,13.79518798828125,18.075000762939453,30.093751907348633,11.287500381469727
1779996188303044400,13.81504443359375,17.92500114440918,30.093751907348633,11.268750190734863
1779996188323236900,13.83523681640625,17.887500762939453,30.093751907348633,11.30625057220459
1779996188343100400,13.855100341796875,17.73750114440918,30.11250114440918,11.30625057220459
1779996188363011300,13.87501123046875,17.71875,30.11250114440918,11.30625057220459
1779996188383234600,13.895234619140625,17.700000762939453,30.093751907348633,11.325000762939453
1779996188403312000,13.91531201171875,17.568750381469727,30.093751907348633,11.325000762939453
1779996188423125200,13.935125244140625,17.55000114440918,30.075000762939453,11.325000762939453
1779996188443015000,13.955014892578125,17.55000114440918,30.093751907348633,11.325000762939453
1779996188463169000,13.9751689453125,17.55000114440918,30.093751907348633,11.325000762939453
1779996188483055600,13.9950556640625,17.606250762939453,30.11250114440918,11.34375
1779996188502997800,14.014997802734374,17.71875,30.11250114440918,11.362500190734863
1779996188522976000,14.03497607421875,17.793750762939453,30.11250114440918,11.381250381469727
1779996188542957800,14.054957763671876,17.868751525878906,30.11250114440918,11.40000057220459
1779996188562967800,14.0749677734375,17.943750381469727,30.11250114440918,11.381250381469727
1779996188582971600,14.0949716796875,18.037500381469727,30.11250114440918,11.381250381469727
1779996188602977800,14.114977783203125,18.168750762939453,30.131250381469727,11.362500190734863
1779996188622986200,14.134986328125,18.30000114440918,30.093751907348633,11.30625057220459
1779996188643248000,14.155248046875,18.39375114440918,30.093751907348633,11.30625057220459
1779996188663132700,14.175132568359375,18.375,30.093751907348633,11.30625057220459
1779996188683052500,14.195052490234374,18.48750114440918,30.075000762939453,11.30625057220459
1779996188703050200,14.21505029296875,18.618751525878906,30.093751907348633,11.30625057220459
1779996188723001900,14.235001953125,18.712501525878906,30.11250114440918,11.30625057220459
1779996188742981600,14.254981689453125,18.65625,30.131250381469727,11.268750190734863
1779996188762968300,14.27496826171875,18.65625,30.150001525878906,11.268750190734863
1779996188782977800,14.294977783203125,18.731250762939453,30.131250381469727,11.268750190734863
1779996188802979000,14.31497900390625,18.618751525878906,30.131250381469727,11.25
1779996188823055600,14.3350556640625,18.543750762939453,30.150001525878906,11.25
1779996188843026200,14.355026123046875,18.543750762939453,30.150001525878906,11.231250762939453
1779996188862999300,14.374999267578126,18.5625,30.168750762939453,11.231250762939453
1779996188883180000,14.395179931640625,18.543750762939453,30.187501907348633,11.231250762939453
1779996188903081000,14.4150810546875,18.506250381469727,30.168750762939453,11.21250057220459
1779996188923013000,14.43501318359375,18.30000114440918,30.20625114440918,11.25
1779996188942978800,14.454978759765625,18.318750381469727,30.20625114440918,11.231250762939453
1779996188962971000,14.474970947265625,18.225000381469727,30.225000381469727,11.25
1779996188982994700,14.49499462890625,18.243751525878906,30.225000381469727,11.231250762939453
1779996189002993200,14.5149931640625,18.30000114440918,30.225000381469727,11.231250762939453
1779996189023250700,14.535250732421876,18.150001525878906,30.187501907348633,11.231250762939453
1779996189043125000,14.555125,18.11250114440918,30.168750762939453,11.231250762939453
1779996189063049700,14.5750498046875,18.11250114440918,30.168750762939453,11.231250762939453
1779996189082999300,14.594999267578125,17.943750381469727,30.168750762939453,11.231250762939453
1779996189102977000,14.61497705078125,18,30.150001525878906,11.231250762939453
1779996189122974000,14.634973876953126,17.943750381469727,30.150001525878906,11.231250762939453
1779996189142970600,14.654970703125,18.037500381469727,30.131250381469727,11.268750190734863
1779996189163226400,14.675226318359375,17.92500114440918,30.11250114440918,11.268750190734863
1779996189183192600,14.695192626953125,17.943750381469727,30.131250381469727,11.287500381469727
1779996189203176000,14.715176025390624,17.92500114440918,30.150001525878906,11.287500381469727
1779996189223062800,14.735062744140626,18.037500381469727,30.131250381469727,11.287500381469727
1779996189242995000,14.754994873046876,17.92500114440918,30.11250114440918,11.287500381469727
1779996189262967300,14.77496728515625,17.92500114440918,30.075000762939453,11.287500381469727
1779996189282966300,14.79496630859375,17.8125,30.075000762939453,11.268750190734863
1779996189303509000,14.815509033203124,17.71875,30.075000762939453,11.268750190734863
1779996189323488300,14.83548828125,17.681251525878906,30.11250114440918,11.268750190734863
1779996189343209700,14.855209716796875,17.73750114440918,30.11250114440918,11.287500381469727
1779996189363165700,14.875165771484374,17.681251525878906,30.11250114440918,11.287500381469727
1779996189383498800,14.895498779296876,17.700000762939453,30.11250114440918,11.30625057220459
1779996189403214800,14.91521484375,17.756250381469727,30.11250114440918,11.287500381469727
1779996189423037400,14.935037353515625,17.887500762939453,30.11250114440918,11.287500381469727
1779996189442953700,14.95495361328125,17.756250381469727,30.150001525878906,11.268750190734863
1779996189462932700,14.9749326171875,17.868751525878906,30.187501907348633,11.268750190734863
1779996189482931000,14.994930908203125,17.962501525878906,30.168750762939453,11.268750190734863
1779996189502955300,15.014955322265624,18,30.150001525878906,11.287500381469727
1779996189523288800,15.035288818359374,17.92500114440918,30.131250381469727,11.268750190734863
1779996189543150600,15.055150634765624,17.943750381469727,30.131250381469727,11.25
1779996189563065000,15.075065185546874,18.037500381469727,30.168750762939453,11.268750190734863
1779996189583006000,15.095005859375,18.056251525878906,30.168750762939453,11.287500381469727
1779996189603433500,15.11543359375,18,30.168750762939453,11.287500381469727
1779996189623215900,15.1352158203125,18,30.131250381469727,11.268750190734863
1779996189643065900,15.15506591796875,17.90625,30.131250381469727,11.268750190734863
1779996189663453000,15.175452880859375,18,30.150001525878906,11.268750190734863
1779996189683207000,15.19520703125,18,30.131250381469727,11.268750190734863
1779996189703047000,15.215046875,17.90625,30.131250381469727,11.25
1779996189722967600,15.234967529296876,17.887500762939453,30.131250381469727,11.25
1779996189743094300,15.25509423828125,17.868751525878906,30.11250114440918,11.268750190734863
1779996189763025400,15.275025390625,17.73750114440918,30.093751907348633,11.268750190734863
1779996189782996700,15.294996826171875,17.53125,30.093751907348633,11.268750190734863
1779996189802977800,15.314977783203124,17.53125,30.093751907348633,11.268750190734863
1779996189822965500,15.334965576171875,17.681251525878906,30.131250381469727,11.287500381469727
1779996189842975700,15.354975830078125,17.90625,30.131250381469727,11.30625057220459
1779996189863385900,15.3753857421875,17.92500114440918,30.11250114440918,11.287500381469727
1779996189883209700,15.395209716796876,17.850000381469727,30.131250381469727,11.268750190734863
1779996189903086800,15.4150869140625,17.962501525878906,30.131250381469727,11.287500381469727
1779996189923124000,15.4351240234375,17.887500762939453,30.131250381469727,11.287500381469727
1779996189943026400,15.4550263671875,17.868751525878906,30.131250381469727,11.268750190734863
1779996189962986000,15.474986083984374,17.92500114440918,30.11250114440918,11.25
1779996189983438800,15.49543896484375,18,30.11250114440918,11.287500381469727
1779996190003732500,15.515732421875,18,30.11250114440918,11.30625057220459
1779996190023538400,15.535538330078126,18,30.093751907348633,11.325000762939453
1779996190043566800,15.55556689453125,17.962501525878906,30.056251525878906,11.34375
1779996190063248100,15.575248046875,18.09375,30.056251525878906,11.34375
1779996190083034000,15.5950341796875,18.262500762939453,30.056251525878906,11.381250381469727
1779996190102937600,15.6149375,18.150001525878906,30.056251525878906,11.381250381469727
1779996190123198700,15.63519873046875,18.01875114440918,30.037500381469727,11.40000057220459
1779996190143493400,15.655493408203125,17.700000762939453,30.037500381469727,11.418750762939453
1779996190163480800,15.675480712890625,17.568750381469727,30.037500381469727,11.456250190734863
1779996190183204000,15.6952041015625,17.606250762939453,30.037500381469727,11.475000381469727
1779996190203032600,15.715032470703125,17.53125,30.056251525878906,11.512500762939453
1779996190222963500,15.73496337890625,17.493751525878906,30.037500381469727,11.512500762939453
1779996190242938600,15.754938720703125,17.793750762939453,30.037500381469727,11.53125
1779996190262942000,15.77494189453125,17.71875,30.075000762939453,11.53125
1779996190282959600,15.794959716796875,17.756250381469727,30.075000762939453,11.53125
1779996190302969000,15.814968994140624,17.606250762939453,30.075000762939453,11.512500762939453
1779996190323242200,15.8352421875,17.400001525878906,30.056251525878906,11.49375057220459
1779996190343313000,15.85531298828125,17.325000762939453,30.093751907348633,11.475000381469727
1779996190363139000,15.87513916015625,17.26875114440918,30.11250114440918,11.456250190734863
1779996190383032000,15.895031982421875,17.137500762939453,30.11250114440918,11.418750762939453
1779996190402981000,15.914981201171875,17.306251525878906,30.131250381469727,11.418750762939453
1779996190422956500,15.93495654296875,17.512500762939453,30.131250381469727,11.381250381469727
1779996190442954800,15.954954833984376,17.700000762939453,30.093751907348633,11.362500190734863
1779996190462964700,15.97496484375,17.83125114440918,30.093751907348633,11.325000762939453
1779996190483232300,15.995232177734374,17.92500114440918,30.075000762939453,11.287500381469727
1779996190503132000,16.0151318359375,17.92500114440918,30.075000762939453,11.25
1779996190523050800,16.03505078125,18.09375,30.056251525878906,11.25
1779996190543028200,16.0550283203125,18.09375,30.056251525878906,11.268750190734863
1779996190562999000,16.0749990234375,18.243751525878906,30.056251525878906,11.268750190734863
1779996190582979600,16.0949794921875,18.20625114440918,30.056251525878906,11.25
1779996190603029800,16.11502978515625,18.262500762939453,30.075000762939453,11.25
1779996190623011000,16.135010986328126,18.506250381469727,30.093751907348633,11.25
1779996190642991900,16.154991943359374,18.712501525878906,30.093751907348633,11.25
1779996190662983000,16.17498291015625,18.693750381469727,30.075000762939453,11.268750190734863
1779996190683186200,16.195186279296873,18.881250381469727,30.093751907348633,11.25
1779996190703081200,16.215081298828125,18.806251525878906,30.075000762939453,11.231250762939453
1779996190723025400,16.235025390625,18.731250762939453,30.075000762939453,11.25
1779996190743253800,16.255253662109375,18.75,30.11250114440918,11.268750190734863
1779996190763377700,16.275377685546875,18.65625,30.150001525878906,11.287500381469727
1779996190783169300,16.295169189453127,18.5625,30.150001525878906,11.30625057220459
1779996190803035600,16.31503564453125,18.5625,30.150001525878906,11.30625057220459
1779996190823078400,16.335078369140625,18.600000381469727,30.168750762939453,11.325000762939453
1779996190843120400,16.355120361328126,18.356250762939453,30.168750762939453,11.30625057220459
1779996190863035100,16.37503515625,18.168750762939453,30.168750762939453,11.268750190734863
1779996190882989300,16.3949892578125,18.1875,30.168750762939453,11.268750190734863
1779996190903226600,16.4152265625,18.28125,30.168750762939453,11.25
1779996190923107600,16.435107666015625,18.20625114440918,30.168750762939453,11.231250762939453
1779996190943030000,16.455030029296875,18.09375,30.187501907348633,11.21250057220459
1779996190963254000,16.47525390625,18.037500381469727,30.187501907348633,11.21250057220459
1779996190983116300,16.4951162109375,17.962501525878906,30.187501907348633,11.21250057220459
1779996191003038500,16.51503857421875,17.90625,30.187501907348633,11.231250762939453
1779996191022989600,16.534989501953124,17.83125114440918,30.187501907348633,11.231250762939453
1779996191043061500,16.5550615234375,17.681251525878906,30.168750762939453,11.231250762939453
1779996191063017500,16.575017578125,17.64375114440918,30.168750762939453,11.21250057220459
1779996191082987300,16.5949873046875,17.71875,30.150001525878906,11.21250057220459
1779996191102976000,16.61497607421875,17.625,30.150001525878906,11.21250057220459
1779996191122977800,16.634977783203126,17.475000381469727,30.168750762939453,11.21250057220459
1779996191143274500,16.6552744140625,17.400001525878906,30.168750762939453,11.25
1779996191163330600,16.67533056640625,17.25,30.150001525878906,11.268750190734863
1779996191183630800,16.695630859375,17.212501525878906,30.150001525878906,11.287500381469727
1779996191203279400,16.715279296875,17.137500762939453,30.168750762939453,11.30625057220459
1779996191223076400,16.735076416015627,17.137500762939453,30.187501907348633,11.325000762939453
1779996191243311000,16.75531103515625,17.212501525878906,30.168750762939453,11.34375
1779996191263115300,16.775115234375,17.287500381469727,30.168750762939453,11.34375
1779996191283015700,16.795015625,17.4375,30.150001525878906,11.362500190734863
1779996191302963700,16.814963623046875,17.587501525878906,30.150001525878906,11.362500190734863
1779996191322950400,16.834950439453124,17.625,30.131250381469727,11.362500190734863
1779996191342958300,16.854958251953125,17.606250762939453,30.131250381469727,11.34375
1779996191362963200,16.874963134765625,17.700000762939453,30.131250381469727,11.362500190734863
1779996191383174400,16.89517431640625,17.587501525878906,30.131250381469727,11.34375
1779996191464557600,16.9765576171875,17.756250381469727,30.131250381469727,11.362500190734863
1779996191554891000,17.06689111328125,18.1875,30.11250114440918,11.34375
1779996191731538200,17.2435380859375,18.95625114440918,30.131250381469727,11.34375
1779996191775671600,17.287671630859375,19.03125,30.131250381469727,11.325000762939453
1779996191819777500,17.331777587890624,19.125,30.150001525878906,11.34375
1779996191863843600,17.375843505859375,18.95625114440918,30.150001525878906,11.34375
1779996191907852800,17.419852783203126,18.76875114440918,30.187501907348633,11.325000762939453
1779996191951785000,17.463784912109375,18.76875114440918,30.187501907348633,11.325000762939453
1779996191995615500,17.507615478515625,18.86250114440918,30.187501907348633,11.325000762939453
1779996192039315500,17.5513154296875,18.9375,30.168750762939453,11.325000762939453
1779996192082850000,17.59485009765625,19.125,30.168750762939453,11.325000762939453
1779996192126180000,17.63818017578125,19.068750381469727,30.168750762939453,11.30625057220459
1779996192169261000,17.681260986328127,19.068750381469727,30.168750762939453,11.287500381469727
1779996192212042800,17.724042724609376,18.95625114440918,30.168750762939453,11.30625057220459
1779996192254469600,17.7664697265625,18.84375,30.187501907348633,11.30625057220459
1779996192296480000,17.80847998046875,18.637500762939453,30.168750762939453,11.268750190734863
1779996192338007000,17.850007080078125,18.450000762939453,30.150001525878906,11.25
1779996192378981000,17.890981201171876,18.431251525878906,30.11250114440918,11.231250762939453
1779996192419322400,17.931322265625,18.28125,30.093751907348633,11.231250762939453
1779996192458952000,17.970951904296875,18.131250381469727,30.093751907348633,11.231250762939453
1779996192497785600,18.00978564453125,18.168750762939453,30.093751907348633,11.21250057220459
1779996192535737300,18.0477373046875,18.30000114440918,30.075000762939453,11.21250057220459
1779996192572718300,18.08471826171875,18.28125,30.075000762939453,11.21250057220459
1779996192608644000,18.12064404296875,18.225000381469727,30.075000762939453,11.193750381469727
1779996192643420200,18.155420166015624,18.225000381469727,30.056251525878906,11.21250057220459
1779996192676964600,18.188964599609374,18.168750762939453,30.056251525878906,11.231250762939453
1779996192709200000,18.221199951171876,18.243751525878906,30.075000762939453,11.21250057220459
1779996192740045000,18.252045166015623,18.1875,30.093751907348633,11.231250762939453
1779996192769426200,18.28142626953125,18.168750762939453,30.11250114440918,11.231250762939453
1779996192797290800,18.309290771484374,18.150001525878906,30.093751907348633,11.231250762939453
1779996192823575800,18.335575927734375,18.243751525878906,30.11250114440918,11.231250762939453
1779996192848245000,18.360244873046874,18.30000114440918,30.11250114440918,11.231250762939453
1779996192871268000,18.38326806640625,18.20625114440918,30.131250381469727,11.25
1779996192892638500,18.404638427734376,18.225000381469727,30.150001525878906,11.268750190734863
1779996192912336000,18.4243359375,18.168750762939453,30.11250114440918,11.25
1779996192930368000,18.442367919921875,18.150001525878906,30.131250381469727,11.25
1779996192946771000,18.45877099609375,18.056251525878906,30.11250114440918,11.25
1779996192961572400,18.473572265625,18.168750762939453,30.131250381469727,11.25
1779996192974809000,18.48680908203125,18.168750762939453,30.150001525878906,11.268750190734863
1779996192986549500,18.498549560546873,18,30.168750762939453,11.268750190734863
1779996192996863200,18.50886328125,17.92500114440918,30.168750762939453,11.287500381469727
1779996193013544000,18.5255439453125,17.90625,30.168750762939453,11.287500381469727
1779996193025545000,18.537544921875,17.793750762939453,30.150001525878906,11.287500381469727
1779996193036543000,18.54854296875,17.92500114440918,30.187501907348633,11.34375
1779996193046702000,18.5587021484375,18.825000762939453,30.150001525878906,11.30625057220459
1779996193056433200,18.56843310546875,18.600000381469727,30.150001525878906,11.287500381469727
1779996193067071000,18.579071044921875,18.543750762939453,30.131250381469727,11.25
1779996193081788400,18.593788330078127,18.46875,30.131250381469727,11.25
1779996193093890600,18.605890625,18.225000381469727,30.150001525878906,11.231250762939453
1779996193107860200,18.619860107421875,18.20625114440918,30.131250381469727,11.25
1779996193123656700,18.63565673828125,18.131250381469727,30.11250114440918,11.268750190734863
1779996193141220400,18.653220458984375,18.337501525878906,30.11250114440918,11.287500381469727
1779996193160532500,18.672532470703125,18.337501525878906,30.131250381469727,11.30625057220459
1779996193170848000,18.682847900390627,18.225000381469727,30.150001525878906,11.325000762939453
1779996193181538300,18.693538330078123,18.075000762939453,30.150001525878906,11.325000762939453
1779996193192670000,18.704669921875,18.09375,30.150001525878906,11.30625057220459
1779996193204153900,18.71615380859375,18.01875114440918,30.150001525878906,11.30625057220459
1779996193216024000,18.728024169921873,18.168750762939453,30.168750762939453,11.30625057220459
1779996193228271900,18.74027197265625,18.075000762939453,30.187501907348633,11.325000762939453
1779996193243826200,18.755826171875,17.981250762939453,30.187501907348633,11.325000762939453
1779996193326682600,18.8386826171875,17.700000762939453,30.20625114440918,11.325000762939453
1779996193399728000,18.91172802734375,17.512500762939453,30.225000381469727,11.325000762939453
1779996193436534800,18.94853466796875,17.306251525878906,30.20625114440918,11.325000762939453
1779996193510141200,19.02214111328125,16.89375114440918,30.225000381469727,11.287500381469727
1779996193546935600,19.058935546875,16.89375114440918,30.225000381469727,11.268750190734863
1779996193583717600,19.095717529296873,17.0625,30.20625114440918,11.25
1779996193620481000,19.13248095703125,17.100000381469727,30.20625114440918,11.25
1779996193657216500,19.169216552734376,17.137500762939453,30.20625114440918,11.25
1779996193693912800,19.205912841796874,17.0625,30.187501907348633,11.25
1779996193730556000,19.242555908203126,16.98750114440918,30.168750762939453,11.231250762939453
1779996193767128600,19.279128662109375,16.98750114440918,30.150001525878906,11.21250057220459
1779996193803610400,19.3156103515625,17.08125114440918,30.150001525878906,11.193750381469727
1779996193839977700,19.351977783203125,17.25,30.131250381469727,11.175000190734863
1779996193876203500,19.38820361328125,17.36250114440918,30.131250381469727,11.175000190734863
1779996193912256500,19.424256591796876,17.418750762939453,30.11250114440918,11.15625
1779996193948102000,19.460101806640626,17.493751525878906,30.093751907348633,11.175000190734863
1779996193983701200,19.495701171875,17.625,30.093751907348633,11.175000190734863
1779996194019011600,19.531011474609375,17.662500381469727,30.075000762939453,11.193750381469727
1779996194053986800,19.56598681640625,17.8125,30.075000762939453,11.193750381469727
1779996194088578800,19.600578857421876,17.8125,30.093751907348633,11.21250057220459
1779996194122731500,19.6347314453125,17.775001525878906,30.093751907348633,11.21250057220459
1779996194156390100,19.66839013671875,17.850000381469727,30.075000762939453,11.231250762939453
1779996194189496800,19.701496826171876,17.793750762939453,30.075000762939453,11.231250762939453
1779996194221991000,19.733990966796874,17.71875,30.093751907348633,11.25
1779996194253811500,19.7658115234375,17.681251525878906,30.11250114440918,11.268750190734863
1779996194284899800,19.79689990234375,17.662500381469727,30.11250114440918,11.287500381469727
1779996194315189500,19.827189453125,17.53125,30.131250381469727,11.287500381469727
1779996194344624000,19.8566240234375,17.587501525878906,30.131250381469727,11.287500381469727
1779996194373146600,19.885146728515625,17.587501525878906,30.11250114440918,11.287500381469727
1779996194400704000,19.9127041015625,17.493751525878906,30.093751907348633,11.30625057220459
1779996194427247000,19.9392470703125,17.55000114440918,30.11250114440918,11.325000762939453
1779996194452739300,19.9647392578125,17.512500762939453,30.093751907348633,11.34375
1779996194477133800,19.9891337890625,17.662500381469727,30.093751907348633,11.34375
1779996194500405000,20.012405029296875,17.756250381469727,30.11250114440918,11.325000762939453
1779996194522532400,20.034532470703127,17.8125,30.093751907348633,11.325000762939453
1779996194543510500,20.055510498046875,17.90625,30.11250114440918,11.30625057220459
1779996194563323600,20.07532373046875,17.868751525878906,30.093751907348633,11.287500381469727
1779996194581983700,20.093983642578124,17.83125114440918,30.131250381469727,11.287500381469727
1779996194599514600,20.1115146484375,17.83125114440918,30.131250381469727,11.268750190734863
1779996194615923500,20.12792333984375,17.83125114440918,30.131250381469727,11.268750190734863
1779996194631253000,20.1432529296875,17.962501525878906,30.11250114440918,11.25
1779996194645553400,20.157553466796877,18.09375,30.093751907348633,11.25
1779996194658875400,20.17087548828125,18.01875114440918,30.093751907348633,11.25
1779996194671234800,20.18323486328125,18.09375,30.11250114440918,11.25
1779996194682717000,20.194717041015625,18.262500762939453,30.11250114440918,11.231250762939453
1779996194693387500,20.205387451171877,18.318750381469727,30.131250381469727,11.193750381469727
1779996194703313200,20.215313232421874,18.375,30.11250114440918,11.15625
1779996194721214700,20.233214599609376,18.318750381469727,30.093751907348633,11.15625
1779996194736996000,20.24899609375,18.506250381469727,30.11250114440918,11.175000190734863
1779996194751248000,20.263247802734377,18.637500762939453,30.093751907348633,11.175000190734863
1779996194764470000,20.276469970703126,18.712501525878906,30.056251525878906,11.193750381469727
1779996194777182000,20.289181884765625,18.637500762939453,30.075000762939453,11.175000190734863
1779996194789770500,20.3017705078125,18.58125114440918,30.093751907348633,11.193750381469727
1779996194802604800,20.314604736328125,18.693750381469727,30.093751907348633,11.231250762939453
1779996194815999000,20.3279990234375,18.825000762939453,30.093751907348633,11.268750190734863
1779996194830189600,20.342189453125,18.600000381469727,30.056251525878906,11.25
1779996194845334300,20.357334228515626,18.150001525878906,30.075000762939453,11.25
1779996194861582600,20.37358251953125,18.28125,30.075000762939453,11.231250762939453
1779996194879025000,20.39102490234375,18.337501525878906,30.075000762939453,11.25
1779996194897718000,20.409718017578125,18.65625,30.056251525878906,11.268750190734863
1779996194907544600,20.419544677734375,18.65625,30.075000762939453,11.25
1779996194917692400,20.4296923828125,18.46875,30.056251525878906,11.25
1779996194928162300,20.440162353515625,18.39375114440918,30.056251525878906,11.25
1779996194938953200,20.450953125,18.1875,30.056251525878906,11.25
1779996194950063600,20.462063720703124,18.30000114440918,30.075000762939453,11.231250762939453
1779996194961491200,20.4734912109375,18.30000114440918,30.075000762939453,11.231250762939453
1779996194973233000,20.48523291015625,18.375,30.075000762939453,11.231250762939453
1779996194985283800,20.497283935546875,18.506250381469727,30.075000762939453,11.231250762939453
1779996194997641000,20.509640869140625,18.618751525878906,30.075000762939453,11.268750190734863
1779996195010299400,20.52229931640625,18.543750762939453,30.093751907348633,11.287500381469727
1779996195023253000,20.5352529296875,18.731250762939453,30.093751907348633,11.30625057220459
1779996195036522500,20.5485224609375,18.693750381469727,30.11250114440918,11.30625057220459
1779996195050052600,20.562052490234375,18.65625,30.131250381469727,11.30625057220459
1779996195063861500,20.575861572265627,18.543750762939453,30.131250381469727,11.287500381469727
1779996195077944000,20.589944091796873,18.46875,30.11250114440918,11.268750190734863
1779996195092312300,20.604312255859377,18.48750114440918,30.11250114440918,11.287500381469727
1779996195106922000,20.618921875,18.506250381469727,30.131250381469727,11.268750190734863
1779996195121813200,20.633813232421875,18.39375114440918,30.131250381469727,11.268750190734863
1779996195138092800,20.6500927734375,18.48750114440918,30.131250381469727,11.287500381469727
1779996195158106000,20.670106201171876,18.356250762939453,30.11250114440918,11.268750190734863
1779996195180012300,20.69201220703125,18.30000114440918,30.131250381469727,11.268750190734863
1779996195201646800,20.713646728515624,18.450000762939453,30.131250381469727,11.287500381469727
1779996195222675500,20.734675537109375,18.375,30.131250381469727,11.30625057220459
1779996195243169300,20.755169189453124,18.375,30.131250381469727,11.268750190734863
1779996195263378400,20.77537841796875,18.337501525878906,30.11250114440918,11.231250762939453
1779996195283331800,20.795331787109376,18.131250381469727,30.11250114440918,11.193750381469727
1779996195303484400,20.815484375,18.262500762939453,30.093751907348633,11.175000190734863
1779996195323266000,20.83526611328125,18.318750381469727,30.056251525878906,11.193750381469727
1779996195343112700,20.85511279296875,18.337501525878906,30.056251525878906,11.193750381469727
1779996195363014400,20.875014404296873,18.243751525878906,30.093751907348633,11.193750381469727
1779996195383580000,20.895579833984375,18.11250114440918,30.093751907348633,11.193750381469727
1779996195403263500,20.915263427734374,18.20625114440918,30.11250114440918,11.21250057220459
1779996195423077000,20.9350771484375,18.30000114440918,30.131250381469727,11.21250057220459
1779996195443075300,20.955075439453125,18.30000114440918,30.150001525878906,11.193750381469727
1779996195462999300,20.974999267578124,18.412500381469727,30.150001525878906,11.21250057220459
1779996195482968000,20.994968017578124,18.431251525878906,30.131250381469727,11.21250057220459
1779996195503157000,21.015156982421875,18.375,30.131250381469727,11.21250057220459
1779996195523060500,21.035060546875,18.39375114440918,30.131250381469727,11.193750381469727
1779996195542996500,21.05499658203125,18.225000381469727,30.131250381469727,11.21250057220459
1779996195563242000,21.075241943359377,18.28125,30.150001525878906,11.231250762939453
1779996195583116000,21.095115966796875,18.318750381469727,30.131250381469727,11.231250762939453
1779996195603033600,21.11503369140625,18.243751525878906,30.131250381469727,11.25
1779996195623256800,21.1352568359375,18.225000381469727,30.131250381469727,11.268750190734863
1779996195643117000,21.155116943359374,18.262500762939453,30.131250381469727,11.25
1779996195663028700,21.17502880859375,18.356250762939453,30.11250114440918,11.268750190734863
1779996195683250000,21.19525,18.450000762939453,30.11250114440918,11.287500381469727
1779996195703587000,21.215587158203125,18.46875,30.093751907348633,11.30625057220459
1779996195723278300,21.2352783203125,18.450000762939453,30.093751907348633,11.287500381469727
1779996195743084300,21.255084228515624,18.46875,30.093751907348633,11.287500381469727
1779996195762975500,21.2749755859375,18.412500381469727,30.093751907348633,11.30625057220459
1779996195782945500,21.294945556640624,18.412500381469727,30.093751907348633,11.30625057220459
1779996195802939100,21.314939208984374,18.225000381469727,30.093751907348633,11.30625057220459
1779996195823154000,21.33515380859375,18.168750762939453,30.093751907348633,11.30625057220459
1779996195843069700,21.355069580078126,18.356250762939453,30.075000762939453,11.287500381469727
1779996195863009800,21.375009765625,18.412500381469727,30.056251525878906,11.287500381469727
1779996195883244000,21.395244140625,18.39375114440918,30.075000762939453,11.287500381469727
1779996195903105800,21.415105712890625,18.412500381469727,30.075000762939453,11.287500381469727
1779996195923014700,21.4350146484375,18.431251525878906,30.093751907348633,11.268750190734863
1779996195943235300,21.4552353515625,18.20625114440918,30.075000762939453,11.287500381469727
1779996195963108600,21.475108642578125,18.09375,30.075000762939453,11.25
1779996195983029800,21.49502978515625,18.056251525878906,30.075000762939453,11.231250762939453
1779996196003256000,21.515256103515625,18,30.056251525878906,11.21250057220459
1779996196023434000,21.53543408203125,17.90625,30.056251525878906,11.21250057220459
1779996196043203300,21.555203369140624,17.850000381469727,30.056251525878906,11.21250057220459
1779996196063060500,21.575060546875,17.850000381469727,30.056251525878906,11.21250057220459
1779996196083183000,21.59518310546875,17.90625,30.075000762939453,11.175000190734863
1779996196103053000,21.615052978515624,17.981250762939453,30.093751907348633,11.175000190734863
1779996196123251700,21.635251708984374,18.131250381469727,30.093751907348633,11.193750381469727
1779996196143306500,21.655306396484374,18.1875,30.093751907348633,11.231250762939453
1779996196163117000,21.675116943359374,18.1875,30.11250114440918,11.231250762939453
1779996196183012900,21.695012939453125,18.168750762939453,30.11250114440918,11.231250762939453
1779996196203323100,21.7153232421875,18.09375,30.11250114440918,11.231250762939453
1779996196223146800,21.735146728515623,18.01875114440918,30.11250114440918,11.231250762939453
1779996196243032000,21.755031982421876,18.09375,30.131250381469727,11.231250762939453
1779996196263240200,21.775240234375,18.150001525878906,30.150001525878906,11.25
1779996196283600400,21.795600341796874,18.1875,30.150001525878906,11.25
1779996196303537000,21.815536865234375,18.337501525878906,30.150001525878906,11.25
1779996196323211800,21.835211669921875,18.543750762939453,30.150001525878906,11.25
1779996196343029500,21.855029541015625,18.637500762939453,30.150001525878906,11.25
1779996196362942500,21.8749423828125,18.65625,30.168750762939453,11.25
1779996196382918700,21.894918701171875,18.693750381469727,30.168750762939453,11.268750190734863
1779996196402929700,21.9149296875,18.76875114440918,30.168750762939453,11.268750190734863
1779996196423409200,21.9354091796875,18.600000381469727,30.150001525878906,11.25
1779996196443200000,21.955199951171874,18.48750114440918,30.168750762939453,11.231250762939453
1779996196463070700,21.97507080078125,18.39375114440918,30.150001525878906,11.231250762939453
1779996196483297800,21.9952978515625,18.225000381469727,30.150001525878906,11.231250762939453
1779996196503428000,22.015427978515625,18.318750381469727,30.150001525878906,11.25
1779996196523412200,22.035412109375,18.356250762939453,30.11250114440918,11.25
1779996196543150600,22.055150634765624,18.450000762939453,30.11250114440918,11.25
1779996196563015000,22.075014892578125,18.39375114440918,30.093751907348633,11.268750190734863
1779996196583151400,22.0951513671875,18.337501525878906,30.11250114440918,11.287500381469727
1779996196603035400,22.115035400390624,18.20625114440918,30.11250114440918,11.287500381469727
1779996196622980000,22.13497998046875,18.168750762939453,30.11250114440918,11.30625057220459
1779996196642954500,22.15495458984375,18.037500381469727,30.093751907348633,11.30625057220459
1779996196662952700,22.17495263671875,17.962501525878906,30.075000762939453,11.30625057220459
1779996196682964000,22.1949638671875,17.962501525878906,30.075000762939453,11.287500381469727
1779996196703231700,22.215231689453127,17.83125114440918,30.056251525878906,11.268750190734863
1779996196723237400,22.2352373046875,17.868751525878906,30.056251525878906,11.268750190734863
1779996196743110000,22.25510986328125,17.92500114440918,30.056251525878906,11.268750190734863
1779996196763021300,22.275021240234373,18.075000762939453,30.056251525878906,11.268750190734863
1779996196783147000,22.29514697265625,18.243751525878906,30.056251525878906,11.268750190734863
1779996196803049000,22.315049072265627,18.318750381469727,30.075000762939453,11.287500381469727
1779996196823259400,22.33525927734375,18.356250762939453,30.093751907348633,11.30625057220459
1779996196843123700,22.355123779296875,18.375,30.11250114440918,11.30625057220459
1779996196863029800,22.37502978515625,18.450000762939453,30.131250381469727,11.268750190734863
1779996196882982100,22.394982177734374,18.58125114440918,30.131250381469727,11.268750190734863
1779996196902968300,22.41496826171875,18.543750762939453,30.150001525878906,11.25
1779996196922961000,22.4349609375,18.412500381469727,30.131250381469727,11.268750190734863
1779996196942964700,22.45496484375,18.525001525878906,30.11250114440918,11.268750190734863
1779996196963178800,22.4751787109375,18.412500381469727,30.11250114440918,11.25
1779996196983079000,22.495078857421873,18.20625114440918,30.093751907348633,11.268750190734863
1779996197003025400,22.515025390625,18.28125,30.11250114440918,11.287500381469727
1779996197023192600,22.535192626953126,18.243751525878906,30.11250114440918,11.287500381469727
1779996197043078100,22.555078125,18.20625114440918,30.11250114440918,11.30625057220459
1779996197063014000,22.575013916015624,18.1875,30.11250114440918,11.287500381469727
1779996197083213600,22.595213623046874,18.075000762939453,30.11250114440918,11.287500381469727
1779996197103083800,22.615083740234375,17.981250762939453,30.11250114440918,11.268750190734863
1779996197123011300,22.63501123046875,17.887500762939453,30.093751907348633,11.25
1779996197143234800,22.65523486328125,17.83125114440918,30.075000762939453,11.25
1779996197163576600,22.67557666015625,17.775001525878906,30.037500381469727,11.268750190734863
1779996197183280600,22.69528076171875,17.681251525878906,30.037500381469727,11.268750190734863
1779996197203082200,22.715082275390625,17.850000381469727,30.037500381469727,11.25
1779996197223364400,22.7353642578125,17.887500762939453,30.037500381469727,11.25
1779996197243158000,22.755157958984373,17.793750762939453,30.056251525878906,11.231250762939453
1779996197263033900,22.775033935546876,17.90625,30.075000762939453,11.231250762939453
1779996197282977000,22.79497705078125,18.168750762939453,30.11250114440918,11.231250762939453
1779996197302952700,22.81495263671875,18.20625114440918,30.11250114440918,11.231250762939453
1779996197322952400,22.834952392578124,18.28125,30.131250381469727,11.231250762939453
1779996197343218200,22.85521826171875,18.337501525878906,30.131250381469727,11.231250762939453
1779996197363112400,22.875112548828124,18.356250762939453,30.131250381469727,11.231250762939453
1779996197383039200,22.895039306640626,18.450000762939453,30.131250381469727,11.231250762939453
1779996197403202800,22.915202880859376,18.46875,30.150001525878906,11.231250762939453
1779996197423076600,22.93507666015625,18.65625,30.150001525878906,11.231250762939453
1779996197443003600,22.955003662109377,18.825000762939453,30.150001525878906,11.25
1779996197463237000,22.975237060546874,18.86250114440918,30.150001525878906,11.25
1779996197483105500,22.99510546875,18.806251525878906,30.131250381469727,11.25
1779996197503036700,23.01503662109375,18.65625,30.11250114440918,11.25
1779996197523321900,23.03532177734375,18.5625,30.11250114440918,11.25
1779996197543149600,23.055149658203124,18.618751525878906,30.131250381469727,11.25
1779996197563049200,23.07504931640625,18.600000381469727,30.131250381469727,11.268750190734863
1779996197583252700,23.095252685546875,18.525001525878906,30.093751907348633,11.268750190734863
1779996197603316200,23.115316162109377,18.525001525878906,30.075000762939453,11.287500381469727
1779996197623131000,23.135130859375,18.46875,30.056251525878906,11.287500381469727
1779996197643015200,23.15501513671875,18.5625,30.075000762939453,11.268750190734863
1779996197663166000,23.175166015625,18.543750762939453,30.075000762939453,11.30625057220459
1779996197683052500,23.195052490234374,18.48750114440918,30.075000762939453,11.325000762939453
1779996197702984400,23.214984375,18.356250762939453,30.056251525878906,11.34375
1779996197723424000,23.235424072265626,18.337501525878906,30.056251525878906,11.362500190734863
1779996197743206100,23.2552060546875,18.225000381469727,30.075000762939453,11.325000762939453
1779996197763057000,23.275056884765625,18.262500762939453,30.093751907348633,11.325000762939453
1779996197782990300,23.294990234375,18.225000381469727,30.093751907348633,11.30625057220459
1779996197802957800,23.314957763671874,18.262500762939453,30.093751907348633,11.34375
1779996197822953700,23.33495361328125,18.30000114440918,30.131250381469727,11.362500190734863
1779996197843228700,23.355228759765627,18.11250114440918,30.131250381469727,11.362500190734863
1779996197863116800,23.37511669921875,18,30.131250381469727,11.362500190734863
1779996197883040000,23.3950400390625,17.92500114440918,30.11250114440918,11.34375
1779996197902999800,23.414999755859377,17.90625,30.11250114440918,11.325000762939453
1779996197923441000,23.43544091796875,17.962501525878906,30.131250381469727,11.325000762939453
1779996197943208000,23.4552080078125,17.887500762939453,30.131250381469727,11.325000762939453
1779996197963067600,23.475067626953123,18.01875114440918,30.131250381469727,11.34375
1779996197983248400,23.495248291015624,17.943750381469727,30.11250114440918,11.325000762939453
1779996198003110100,23.515110107421876,17.981250762939453,30.131250381469727,11.30625057220459
1779996198023019500,23.53501953125,17.868751525878906,30.131250381469727,11.287500381469727
1779996198043128000,23.555128173828123,17.756250381469727,30.131250381469727,11.30625057220459
1779996198063051000,23.575051025390625,17.71875,30.11250114440918,11.325000762939453
1779996198082999600,23.59499951171875,17.73750114440918,30.131250381469727,11.325000762939453
1779996198103443000,23.61544287109375,17.756250381469727,30.131250381469727,11.325000762939453
1779996198123438800,23.63543896484375,17.700000762939453,30.131250381469727,11.30625057220459
1779996198143200800,23.65520068359375,17.756250381469727,30.11250114440918,11.325000762939453
1779996198163038500,23.67503857421875,17.90625,30.11250114440918,11.30625057220459
1779996198182963700,23.694963623046874,17.868751525878906,30.150001525878906,11.325000762939453
1779996198202951400,23.714951416015627,17.8125,30.131250381469727,11.325000762939453
1779996198222943700,23.73494384765625,17.756250381469727,30.131250381469727,11.325000762939453
1779996198242954500,23.75495458984375,17.71875,30.131250381469727,11.325000762939453
1779996198263221000,23.775220947265623,17.587501525878906,30.131250381469727,11.287500381469727
1779996198283125500,23.79512548828125,17.681251525878906,30.131250381469727,11.268750190734863
1779996198303047400,23.81504736328125,17.756250381469727,30.150001525878906,11.287500381469727
1779996198323257900,23.8352578125,17.775001525878906,30.131250381469727,11.287500381469727
1779996198343132400,23.85513232421875,17.850000381469727,30.131250381469727,11.268750190734863
1779996198363037200,23.875037109375,17.850000381469727,30.150001525878906,11.25
1779996198382987300,23.8949873046875,17.943750381469727,30.131250381469727,11.25
1779996198403043600,23.915043701171875,18.01875114440918,30.11250114440918,11.25
1779996198422998500,23.93499853515625,18.11250114440918,30.093751907348633,11.25
1779996198442988800,23.95498876953125,18.056251525878906,30.11250114440918,11.21250057220459
1779996198463172900,23.9751728515625,18.037500381469727,30.131250381469727,11.231250762939453
1779996198483068700,23.995068603515627,18.056251525878906,30.131250381469727,11.231250762939453
1779996198503280600,24.01528076171875,18.11250114440918,30.150001525878906,11.25
1779996198523132400,24.03513232421875,18.168750762939453,30.150001525878906,11.25
1779996198543029200,24.055029296875,18.20625114440918,30.150001525878906,11.21250057220459
1779996198562997500,24.07499755859375,18.30000114440918,30.150001525878906,11.231250762939453
1779996198582969900,24.094969970703126,18.30000114440918,30.168750762939453,11.25
1779996198603228000,24.115227783203125,18.20625114440918,30.168750762939453,11.25
1779996198623269600,24.13526953125,18.131250381469727,30.150001525878906,11.231250762939453
1779996198643112000,24.15511181640625,18.225000381469727,30.150001525878906,11.21250057220459
1779996198663282000,24.175281982421875,18.11250114440918,30.131250381469727,11.25
1779996198683125000,24.195125,18.150001525878906,30.131250381469727,11.268750190734863
1779996198703020300,24.215020263671875,18.1875,30.131250381469727,11.268750190734863
1779996198722980600,24.234980712890625,18.09375,30.150001525878906,11.25
1779996198742962400,24.25496240234375,18.225000381469727,30.168750762939453,11.25
1779996198762954500,24.27495458984375,18.262500762939453,30.131250381469727,11.25
1779996198782958600,24.29495849609375,18.225000381469727,30.131250381469727,11.25
1779996198802969600,24.314969482421876,18.1875,30.11250114440918,11.25
1779996198822979300,24.334979248046874,18.056251525878906,30.11250114440918,11.25
1779996198842989300,24.3549892578125,18.09375,30.131250381469727,11.268750190734863
1779996198862988500,24.374988525390624,18.075000762939453,30.131250381469727,11.25
1779996198882987800,24.39498779296875,17.981250762939453,30.11250114440918,11.231250762939453
1779996198902990600,24.414990478515627,17.943750381469727,30.093751907348633,11.231250762939453
1779996198922985200,24.434985107421873,17.962501525878906,30.131250381469727,11.25
1779996198942983400,24.4549833984375,17.793750762939453,30.131250381469727,11.25
1779996198963126500,24.47512646484375,17.981250762939453,30.131250381469727,11.231250762939453
1779996198983323600,24.49532373046875,17.73750114440918,30.150001525878906,11.21250057220459
1779996199003338500,24.51533837890625,17.587501525878906,30.168750762939453,11.21250057220459
1779996199023143400,24.535143310546875,17.8125,30.150001525878906,11.193750381469727
1779996199043292000,24.5552919921875,17.92500114440918,30.150001525878906,11.175000190734863
1779996199063123500,24.57512353515625,17.962501525878906,30.150001525878906,11.175000190734863
1779996199083016700,24.5950166015625,18.131250381469727,30.131250381469727,11.175000190734863
1779996199102967800,24.6149677734375,18.30000114440918,30.131250381469727,11.193750381469727
1779996199123232000,24.63523193359375,18.39375114440918,30.131250381469727,11.21250057220459
1779996199143096300,24.655096435546874,18.356250762939453,30.11250114440918,11.193750381469727
1779996199163015000,24.675014892578126,18.30000114440918,30.11250114440918,11.193750381469727
1779996199183181000,24.69518115234375,18.337501525878906,30.11250114440918,11.175000190734863
1779996199203060700,24.715060791015624,18.46875,30.11250114440918,11.137500762939453
1779996199223005400,24.73500537109375,18.637500762939453,30.11250114440918,11.137500762939453
1779996199243238700,24.75523876953125,18.693750381469727,30.11250114440918,11.11875057220459
1779996199263419600,24.775419677734376,18.76875114440918,30.11250114440918,11.100000381469727
1779996199283190500,24.7951904296875,19.03125,30.131250381469727,11.081250190734863
1779996199303042800,24.815042724609373,19.181251525878906,30.11250114440918,11.043750762939453
1779996199323197200,24.835197265625,19.21875,30.093751907348633,11.02500057220459
1779996199343073500,24.855073486328124,19.3125,30.075000762939453,11.006250381469727
1779996199362997200,24.874997314453125,19.21875,30.093751907348633,10.950000762939453
1779996199383167200,24.895167236328124,19.181251525878906,30.093751907348633,10.912500381469727
1779996199403061800,24.915061767578123,19.05000114440918,30.11250114440918,10.875
1779996199423259000,24.9352587890625,19.068750381469727,30.093751907348633,10.83750057220459
1779996199443114000,24.955114013671874,19.200000762939453,30.093751907348633,10.818750381469727
1779996199463027000,24.97502685546875,19.275001525878906,30.093751907348633,10.800000190734863
1779996199482984000,24.99498388671875,19.350000381469727,30.11250114440918,10.78125
1779996199503348000,25.015347900390626,19.387500762939453,30.093751907348633,10.78125
1779996199523160600,25.03516064453125,19.3125,30.075000762939453,10.762500762939453
1779996199543035100,25.05503515625,19.537500381469727,30.056251525878906,10.762500762939453
1779996199563185700,25.075185546875,19.575000762939453,30.075000762939453,10.74375057220459
1779996199583060000,25.09506005859375,19.556251525878906,30.056251525878906,10.706250190734863
1779996199639862800,25.15186279296875,19.481250762939453,30.056251525878906,10.706250190734863
1779996199742688000,25.25468798828125,19.293750762939453,30.056251525878906,10.74375057220459
1779996199919227400,25.431227294921875,19.98750114440918,30.11250114440918,10.800000190734863
1779996199963340800,25.4753408203125,8.49375057220459,33.58125305175781,9.84375
1779996200007432200,25.51943212890625,8.53125,33.58125305175781,9.825000762939453
1779996200051490300,25.563490234375,8.71875,33.5625,9.825000762939453
1779996200095500500,25.60750048828125,8.737500190734863,33.58125305175781,9.825000762939453
1779996200139444500,25.651444580078124,8.850000381469727,33.58125305175781,9.825000762939453
1779996200183299600,25.695299560546875,8.756250381469727,33.58125305175781,9.825000762939453
1779996200227039500,25.73903955078125,8.700000762939453,33.58125305175781,9.84375
1779996200270632200,25.782632080078123,8.71875,33.58125305175781,9.862500190734863
1779996200314040800,25.826040771484376,8.606250762939453,33.58125305175781,9.84375
1779996200357223700,25.8692236328125,8.49375057220459,33.58125305175781,9.825000762939453
1779996200400134100,25.912134033203124,8.325000762939453,33.58125305175781,9.80625057220459
1779996200442717700,25.9547177734375,8.418750762939453,33.58125305175781,9.80625057220459
1779996200484916700,25.996916748046875,8.512500762939453,33.5625,9.787500381469727
1779996200526667300,26.038667236328124,8.550000190734863,33.54375076293945,9.768750190734863
1779996200567900200,26.079900146484373,8.550000190734863,33.525001525878906,9.75
1779996200608541400,26.12054150390625,19.931251525878906,30.056251525878906,10.6875
1779996200648514300,26.160514404296876,19.837501525878906,30.056251525878906,10.6875
1779996200687733000,26.19973291015625,19.78125,30.075000762939453,10.6875
1779996200726114000,26.238114013671876,19.78125,30.075000762939453,10.6875
1779996200763574300,26.27557421875,19.743751525878906,30.075000762939453,10.668750762939453
1779996200800023300,26.312023193359376,19.70625114440918,30.075000762939453,10.668750762939453
1779996200835364900,26.34736474609375,19.6875,30.093751907348633,10.6875
1779996200869518300,26.381518310546873,19.725000381469727,30.093751907348633,10.6875
1779996200902400000,26.41439990234375,19.856250762939453,30.075000762939453,10.706250190734863
1779996200933936400,26.445936279296873,20.17500114440918,30.093751907348633,10.706250190734863
1779996200964044800,26.476044921875,20.287500381469727,30.11250114440918,10.725000381469727
1779996200992661500,26.50466162109375,20.17500114440918,30.11250114440918,10.725000381469727
1779996201019730700,26.531730712890624,19.98750114440918,30.093751907348633,10.74375057220459
1779996201045211600,26.557211669921877,19.856250762939453,30.11250114440918,10.762500762939453
1779996201069055700,26.5810556640625,19.78125,30.11250114440918,10.78125
1779996201091253000,26.6032529296875,19.931251525878906,30.093751907348633,10.800000190734863
1779996201111785000,26.623784912109375,19.912500381469727,30.093751907348633,10.818750381469727
1779996201130646000,26.64264599609375,19.837501525878906,30.093751907348633,10.800000190734863
1779996201147861500,26.659861572265626,19.89375114440918,30.093751907348633,10.818750381469727
1779996201163458000,26.6754580078125,19.950000762939453,30.093751907348633,10.818750381469727
1779996201177472800,26.68947265625,20.025001525878906,30.093751907348633,10.800000190734863
1779996201189962200,26.701962158203123,20.0625,30.11250114440918,10.78125
1779996201200990200,26.712990234375,19.931251525878906,30.131250381469727,10.800000190734863
1779996201210632000,26.7226318359375,19.98750114440918,30.131250381469727,10.800000190734863
1779996201226118400,26.738118408203125,19.575000762939453,30.131250381469727,10.856250762939453
1779996201237137700,26.7491376953125,19.368751525878906,30.131250381469727,10.950000762939453
1779996201247030000,26.759030029296873,19.200000762939453,30.150001525878906,10.987500190734863
1779996201256885200,26.76888525390625,18.28125,30.11250114440918,11.25
1779996201267635700,26.7796357421875,18.150001525878906,30.093751907348633,11.325000762939453
1779996201279007000,26.791007080078124,18.48750114440918,30.11250114440918,11.30625057220459
1779996201288870700,26.80087060546875,18.65625,30.131250381469727,11.325000762939453
1779996201300594700,26.8125947265625,18.693750381469727,30.150001525878906,11.362500190734863
1779996201314118400,26.826118408203126,18.900001525878906,30.150001525878906,11.325000762939453
1779996201329504000,26.84150390625,18.84375,30.150001525878906,11.30625057220459
1779996201346665700,26.858665771484375,18.76875114440918,30.168750762939453,11.30625057220459
1779996201365580300,26.877580322265626,18.731250762939453,30.187501907348633,11.287500381469727
1779996201375661300,26.887661376953126,18.787500381469727,30.187501907348633,11.287500381469727
1779996201386163000,26.898162841796875,18.75,30.187501907348633,11.268750190734863
1779996201397064000,26.90906396484375,18.600000381469727,30.20625114440918,11.30625057220459
1779996201408362500,26.920362548828123,18.39375114440918,30.187501907348633,11.325000762939453
1779996201420067800,26.93206787109375,18.168750762939453,30.168750762939453,11.34375
1779996201432135200,26.94413525390625,18.131250381469727,30.131250381469727,11.34375
1779996201444574200,26.95657421875,18.09375,30.131250381469727,11.325000762939453
1779996201457373000,26.969373046875,18.20625114440918,30.131250381469727,11.30625057220459
1779996201472728800,26.984728759765623,18.131250381469727,30.11250114440918,11.30625057220459
1779996201494380000,27.006380126953125,18.037500381469727,30.093751907348633,11.30625057220459
1779996201518887700,27.0308876953125,17.887500762939453,30.075000762939453,11.34375
1779996201541847000,27.053846923828125,17.92500114440918,30.056251525878906,11.34375
1779996201563346700,27.0753466796875,17.868751525878906,30.075000762939453,11.34375
1779996201583855400,27.09585546875,17.868751525878906,30.075000762939453,11.34375
1779996201603840300,27.11584033203125,17.868751525878906,30.075000762939453,11.325000762939453
1779996201623620900,27.135620849609374,17.700000762939453,30.075000762939453,11.30625057220459
1779996201643367000,27.155366943359375,17.64375114440918,30.075000762939453,11.34375
1779996201663169800,27.175169677734374,17.625,30.075000762939453,11.325000762939453
1779996201683048200,27.195048095703125,17.55000114440918,30.093751907348633,11.34375
1779996201739848200,27.25184814453125,17.700000762939453,30.093751907348633,11.325000762939453
1779996201886821400,27.3988212890625,17.4375,30.093751907348633,11.381250381469727
1779996201930958800,27.442958740234374,17.25,30.11250114440918,11.40000057220459
1779996202063332400,27.575332275390625,17.08125114440918,30.11250114440918,11.40000057220459
1779996202107423000,27.619423095703127,17.08125114440918,30.11250114440918,11.362500190734863
1779996202151480600,27.66348046875,17.15625,30.11250114440918,11.34375
1779996202195490300,27.707490234375,17.212501525878906,30.075000762939453,11.34375
1779996202239433700,27.751433837890627,17.212501525878906,30.093751907348633,11.34375
1779996202283288300,27.795288330078126,17.15625,30.093751907348633,11.34375
1779996202327027200,27.839027099609375,17.025001525878906,30.131250381469727,11.381250381469727
1779996202370619400,27.882619384765626,16.89375114440918,30.11250114440918,11.362500190734863
1779996202414027500,27.926027587890626,16.912500381469727,30.11250114440918,11.34375
1779996202457209600,27.969209716796875,16.96875,30.131250381469727,11.325000762939453
1779996202500119600,28.01211962890625,17.100000381469727,30.150001525878906,11.30625057220459
1779996202542702600,28.05470263671875,17.212501525878906,30.131250381469727,11.287500381469727
1779996202584901000,28.096901123046877,17.26875114440918,30.131250381469727,11.287500381469727
1779996202626652400,28.13865234375,17.36250114440918,30.131250381469727,11.287500381469727
1779996202667884800,28.179884765625,17.400001525878906,30.131250381469727,11.287500381469727
1779996202708527400,28.22052734375,17.512500762939453,30.131250381469727,11.30625057220459
1779996202748501800,28.260501708984375,17.606250762939453,30.150001525878906,11.325000762939453
1779996202787720200,28.29972021484375,17.512500762939453,30.168750762939453,11.325000762939453
1779996202826101000,28.33810107421875,17.4375,30.187501907348633,11.34375
1779996202863559400,28.375559326171874,17.418750762939453,30.168750762939453,11.381250381469727
1779996202900002000,28.412001953125,17.587501525878906,30.168750762939453,11.381250381469727
1779996202935343000,28.447343017578124,17.850000381469727,30.150001525878906,11.362500190734863
1779996202969496300,28.481496337890626,18.1875,30.150001525878906,11.362500190734863
1779996203003584300,28.515584228515625,18.20625114440918,30.187501907348633,11.362500190734863
1779996203067313000,28.57931298828125,18.150001525878906,30.187501907348633,11.34375
1779996203174442200,28.686442138671875,18.731250762939453,30.187501907348633,11.25
1779996203196741400,28.708741455078126,18.65625,30.225000381469727,11.21250057220459
1779996203217360600,28.729360595703124,18.65625,30.20625114440918,11.193750381469727
1779996203236301800,28.7483017578125,18.86250114440918,30.20625114440918,11.231250762939453
1779996203253580300,28.765580322265624,18.900001525878906,30.225000381469727,11.231250762939453
1779996203269224400,28.781224365234376,18.825000762939453,30.225000381469727,11.21250057220459
1779996203283284700,28.79528466796875,18.76875114440918,30.20625114440918,11.21250057220459
1779996203295796200,28.807796142578123,18.787500381469727,30.225000381469727,11.193750381469727
1779996203306846200,28.81884619140625,18.543750762939453,30.225000381469727,11.15625
1779996203316493300,28.828493408203126,18.450000762939453,30.225000381469727,11.137500762939453
1779996203331910100,28.84391015625,18.225000381469727,30.187501907348633,11.175000190734863
1779996203342815700,28.854815673828124,17.981250762939453,30.168750762939453,11.21250057220459
1779996203352468200,28.86446826171875,17.90625,30.150001525878906,11.21250057220459
1779996203362047000,28.874046875,18.412500381469727,30.131250381469727,11.268750190734863
1779996203374101500,28.8861015625,18.618751525878906,30.131250381469727,11.231250762939453
1779996203386430200,28.89843017578125,18.58125114440918,30.131250381469727,11.268750190734863
1779996203396932400,28.908932373046873,18.30000114440918,30.131250381469727,11.25
1779996203409297400,28.92129736328125,18.318750381469727,30.150001525878906,11.25
1779996203423534000,28.9355341796875,18.412500381469727,30.150001525878906,11.25
1779996203439580000,28.951579833984376,17.92500114440918,30.131250381469727,11.268750190734863
1779996203457442800,28.96944287109375,17.962501525878906,30.093751907348633,11.25
1779996203467038000,28.979037841796874,17.962501525878906,30.11250114440918,11.231250762939453
1779996203477025300,28.989025390625,17.887500762939453,30.11250114440918,11.231250762939453
1779996203487432000,28.999431884765624,17.775001525878906,30.093751907348633,11.231250762939453
1779996203498247400,29.010247314453125,17.587501525878906,30.075000762939453,11.231250762939453
1779996203509463000,29.021463134765625,17.512500762939453,30.075000762939453,11.21250057220459
1779996203521071000,29.033071044921876,17.700000762939453,30.075000762939453,11.21250057220459
1779996203533061600,29.0450615234375,17.887500762939453,30.075000762939453,11.21250057220459
1779996203545428200,29.05742822265625,17.887500762939453,30.056251525878906,11.193750381469727
1779996203558163200,29.0701630859375,17.756250381469727,30.075000762939453,11.175000190734863
1779996203573301200,29.08530126953125,17.568750381469727,30.075000762939453,11.15625
1779996203594665500,29.10666552734375,17.34375,30.075000762939453,11.175000190734863
1779996203618633200,29.13063330078125,17.34375,30.11250114440918,11.193750381469727
1779996203641580000,29.153580078125,17.381250381469727,30.131250381469727,11.193750381469727
1779996203663333400,29.17533349609375,17.381250381469727,30.131250381469727,11.15625
1779996203683826200,29.195826171875,17.26875114440918,30.131250381469727,11.137500762939453
1779996203703832300,29.215832275390625,17.325000762939453,30.11250114440918,11.137500762939453
1779996203723933400,29.235933349609375,17.475000381469727,30.11250114440918,11.15625
1779996203743526700,29.255526611328126,17.587501525878906,30.11250114440918,11.137500762939453
1779996203763220700,29.275220703125,17.71875,30.11250114440918,11.137500762939453
1779996203783050800,29.29505078125,17.681251525878906,30.093751907348633,11.15625
1779996203802961700,29.314961669921875,17.625,30.093751907348633,11.175000190734863
1779996203822933800,29.334933837890624,17.568750381469727,30.11250114440918,11.175000190734863
1779996203883495400,29.395495361328123,17.53125,30.11250114440918,11.175000190734863
1779996204088068900,29.60006884765625,6.206250190734863,33.54375076293945,10.237500190734863
1779996204182021600,29.694021728515626,-5.118750095367432,37.03125,9.28125
1779996204228978200,29.740978271484376,-5.043750286102295,37.05000305175781,9.300000190734863
1779996204275910400,29.787910400390626,-5.175000190734863,37.03125,9.318750381469727
1779996204322805500,29.834805419921874,-5.475000381469727,37.01250076293945,9.300000190734863
1779996204369647000,29.881647216796875,-5.643750190734863,37.03125,9.318750381469727
1779996204416414500,29.92841455078125,-5.850000381469727,37.01250076293945,9.318750381469727
1779996204463082800,29.975082763671875,-5.775000095367432,37.03125,9.300000190734863
1779996204509622000,30.0216220703125,-5.700000286102295,37.03125,9.28125
1779996204555997200,30.0679970703125,-5.625,37.03125,9.300000190734863
1779996204602167600,30.11416748046875,-5.775000095367432,37.03125,9.300000190734863
1779996204648085200,30.160085205078126,-5.793750286102295,37.05000305175781,9.318750381469727
1779996204693697500,30.205697509765624,-5.8125,37.03125,9.300000190734863
1779996204738946300,30.2509462890625,-5.887500286102295,37.01250076293945,9.300000190734863
1779996204783765200,30.29576513671875,5.625,33.54375076293945,10.256250381469727
1779996204828082400,30.34008251953125,17.137500762939453,30.056251525878906,11.231250762939453
1779996204871821300,30.3838212890625,17.0625,30.01875114440918,11.231250762939453
1779996204914898700,30.426898681640626,17.006250381469727,30.037500381469727,11.231250762939453
1779996204957227300,30.469227294921875,17.137500762939453,30.056251525878906,11.231250762939453
1779996204998715000,30.51071484375,17.36250114440918,30.056251525878906,11.25
1779996205039266600,30.5512666015625,17.45625114440918,30.056251525878906,11.231250762939453
1779996205078784500,30.590784423828126,17.625,30.056251525878906,11.231250762939453
1779996205117170000,30.629169921875,17.64375114440918,30.037500381469727,11.21250057220459
1779996205154328600,30.66632861328125,17.587501525878906,30.01875114440918,11.193750381469727
1779996205190159600,30.70215966796875,17.606250762939453,30.000001907348633,11.175000190734863
1779996205224565800,30.736565673828125,17.8125,30.01875114440918,11.175000190734863
1779996205257463300,30.76946337890625,17.90625,30.01875114440918,11.15625
1779996205288774700,30.800774658203125,18.01875114440918,30.01875114440918,11.15625
1779996205318414000,30.8304140625,18.056251525878906,30.056251525878906,11.175000190734863
1779996205346324000,30.858323974609377,18,30.075000762939453,11.15625
1779996205372457700,30.884457763671875,18.075000762939453,30.093751907348633,11.15625
1779996205396763400,30.908763427734375,18.20625114440918,30.093751907348633,11.15625
1779996205419229200,30.931229248046876,18.30000114440918,30.093751907348633,11.15625
1779996205439824100,30.95182421875,18.375,30.11250114440918,11.15625
1779996205458560000,30.97056005859375,18.28125,30.150001525878906,11.137500762939453
1779996205475454700,30.987454833984376,18.356250762939453,30.150001525878906,11.137500762939453
1779996205490537700,31.002537841796876,18.356250762939453,30.168750762939453,11.11875057220459
1779996205503856600,31.015856689453123,18.318750381469727,30.187501907348633,11.137500762939453
1779996205515488300,31.02748828125,18.318750381469727,30.20625114440918,11.15625
1779996205525489700,31.03748974609375,18.243751525878906,30.225000381469727,11.175000190734863
1779996205540893000,31.052892822265626,18.1875,30.20625114440918,11.193750381469727
1779996205550874000,31.0628740234375,18.637500762939453,30.187501907348633,11.175000190734863
1779996205564142000,31.07614208984375,18.075000762939453,30.11250114440918,11.381250381469727
1779996205575573800,31.08757373046875,18.168750762939453,30.11250114440918,11.34375
1779996205589051400,31.101051513671877,18.28125,30.131250381469727,11.325000762939453
1779996205604491500,31.116491455078126,18.168750762939453,30.150001525878906,11.268750190734863
1779996205621851000,31.133850830078124,18.168750762939453,30.131250381469727,11.25
1779996205641061400,31.153061279296875,18.056251525878906,30.11250114440918,11.231250762939453
1779996205651338200,31.163338134765624,18.01875114440918,30.11250114440918,11.21250057220459
1779996205662049500,31.174049560546877,18.01875114440918,30.093751907348633,11.21250057220459
1779996205673203200,31.185203125,17.981250762939453,30.093751907348633,11.231250762939453
1779996205684788000,31.1967880859375,17.868751525878906,30.075000762939453,11.25
1779996205697135400,31.20913525390625,17.793750762939453,30.075000762939453,11.25
1779996205713911300,31.225911376953125,17.700000762939453,30.093751907348633,11.231250762939453
1779996205736236000,31.248236083984374,17.793750762939453,30.093751907348633,11.231250762939453
1779996205759577900,31.271577880859375,17.887500762939453,30.093751907348633,11.21250057220459
1779996205782069000,31.294069091796874,17.793750762939453,30.11250114440918,11.21250057220459
1779996205803170300,31.31517041015625,17.73750114440918,30.131250381469727,11.21250057220459
1779996205823568400,31.335568359375,17.793750762939453,30.131250381469727,11.25
1779996205843584300,31.355584228515625,17.83125114440918,30.131250381469727,11.25
1779996205863433200,31.37543310546875,17.962501525878906,30.11250114440918,11.268750190734863
1779996205883260400,31.395260498046873,17.981250762939453,30.11250114440918,11.25
1779996205903126300,31.415126220703126,18.09375,30.11250114440918,11.268750190734863
1779996205923031000,31.435031005859376,18.1875,30.131250381469727,11.287500381469727
1779996205942982100,31.454982177734376,18.09375,30.150001525878906,11.30625057220459
1779996205962966800,31.474966796875,18.075000762939453,30.150001525878906,11.30625057220459
1779996205982968000,31.494968017578124,18.168750762939453,30.131250381469727,11.30625057220459
1779996206002978300,31.514978271484374,18.225000381469727,30.11250114440918,11.287500381469727
1779996206022981000,31.534981201171874,18.262500762939453,30.11250114440918,11.287500381469727
1779996206042985000,31.55498486328125,18.28125,30.11250114440918,11.287500381469727
1779996206063254800,31.5752548828125,18.243751525878906,30.093751907348633,11.30625057220459
1779996206083162000,31.595162109375,18.20625114440918,30.075000762939453,11.325000762939453
1779996206103064600,31.615064697265623,18.20625114440918,30.075000762939453,11.325000762939453
1779996206123262500,31.635262451171876,18.075000762939453,30.075000762939453,11.30625057220459
1779996206143191000,31.65519091796875,18,30.093751907348633,11.325000762939453
1779996206163064000,31.67506396484375,17.92500114440918,30.11250114440918,11.325000762939453
1779996206182997000,31.6949970703125,17.8125,30.11250114440918,11.287500381469727
1779996206203165200,31.715165283203124,17.700000762939453,30.11250114440918,11.287500381469727
1779996206223056000,31.735055908203126,17.64375114440918,30.093751907348633,11.287500381469727
1779996206242996700,31.754996826171876,17.625,30.093751907348633,11.30625057220459
1779996206263167000,31.7751669921875,17.587501525878906,30.075000762939453,11.287500381469727
1779996206283069000,31.79506884765625,17.568750381469727,30.11250114440918,11.268750190734863
1779996206303076600,31.81507666015625,17.55000114440918,30.131250381469727,11.268750190734863
1779996206323210200,31.835210205078123,17.8125,30.11250114440918,11.287500381469727
1779996206343085800,31.8550859375,17.868751525878906,30.093751907348633,11.287500381469727
1779996206363257300,31.87525732421875,17.92500114440918,30.11250114440918,11.268750190734863
1779996206383102000,31.89510205078125,17.962501525878906,30.093751907348633,11.268750190734863
1779996206403020000,31.91502001953125,17.887500762939453,30.075000762939453,11.268750190734863
1779996206423175700,31.93517578125,18.168750762939453,30.075000762939453,11.268750190734863
1779996206443059000,31.955058837890626,18.318750381469727,30.075000762939453,11.25
1779996206462998300,31.974998291015623,18.5625,30.075000762939453,11.25
1779996206483166500,31.99516650390625,18.637500762939453,30.093751907348633,11.25
1779996206503068000,32.01506787109375,18.76875114440918,30.11250114440918,11.25
1779996206523047200,32.03504711914063,18.900001525878906,30.11250114440918,11.25
1779996206542990800,32.05499096679687,18.975000381469727,30.131250381469727,11.25
1779996206562977500,32.0749775390625,19.125,30.150001525878906,11.268750190734863
1779996206582970000,32.09497021484375,19.275001525878906,30.11250114440918,11.268750190734863
1779996206603174700,32.115174560546876,19.350000381469727,30.093751907348633,11.268750190734863
1779996206623081700,32.13508178710938,19.106250762939453,30.093751907348633,11.25
1779996206643015200,32.15501513671875,19.012500762939453,30.11250114440918,11.268750190734863
1779996206662982000,32.17498193359375,18.86250114440918,30.11250114440918,11.268750190734863
1779996206682973200,32.19497314453125,18.900001525878906,30.131250381469727,11.25
1779996206702967000,32.214967041015626,18.993751525878906,30.187501907348633,11.25
1779996206722969600,32.234969482421874,18.9375,30.168750762939453,11.268750190734863
1779996206742977300,32.25497729492187,18.9375,30.150001525878906,11.268750190734863
1779996206762975700,32.27497583007813,18.84375,30.168750762939453,11.25
1779996206783233000,32.29523291015625,18.825000762939453,30.168750762939453,11.268750190734863
1779996206803725600,32.3157255859375,18.712501525878906,30.150001525878906,11.268750190734863
1779996206823333000,32.3353330078125,18.525001525878906,30.150001525878906,11.268750190734863
1779996206843119000,32.355119140625,18.543750762939453,30.11250114440918,11.25
1779996206862994400,32.37499438476563,18.46875,30.093751907348633,11.231250762939453
1779996206883207400,32.39520751953125,18.318750381469727,30.11250114440918,11.21250057220459
1779996206903202000,32.4152021484375,18.28125,30.11250114440918,11.231250762939453
1779996206923064300,32.43506420898437,18.412500381469727,30.11250114440918,11.231250762939453
1779996206942990600,32.454990478515626,18.431251525878906,30.11250114440918,11.25
