time,seconds_elapsed,z,y,x
1779996174697322800,0.20932275390625,9.933000564575195,-0.14205001294612885,-0.6670500040054321
1779996174714599400,0.226599365234375,9.871050834655762,-0.16095000505447388,-0.62295001745224
1779996174731876000,0.2438759765625,9.691950798034668,-0.1469999998807907,-0.6190500259399414
1779996174749152800,0.26115283203125,9.687000274658203,-0.13305000960826874,-0.6589500308036804
1779996174766429700,0.2784296875,9.85200023651123,-0.09195000678300858,-0.7120500206947327
1779996174783706400,0.295706298828125,9.972000122070312,-0.12300000339746475,-0.7260000109672546
1779996174800983000,0.312983154296875,9.835050582885742,-0.15900000929832458,-0.6859500408172607
1779996174826898000,0.33889794921875,9.84000015258789,-0.13005000352859497,-0.6450000405311584
1779996174844174300,0.35617431640625,9.708000183105469,-0.11805000901222229,-0.6570000052452087
1779996174861451000,0.373450927734375,9.711000442504883,-0.13305000960826874,-0.6469500064849854
1779996174878728000,0.39072802734375,9.919050216674805,-0.12105000764131546,-0.690000057220459
1779996174896004400,0.40800439453125,10.042950630187988,-0.08205000311136246,-0.736050009727478
1779996174913281000,0.425281005859375,9.904950141906738,-0.17295001447200775,-0.6450000405311584
1779996174930557700,0.4425576171875,9.700950622558594,-0.1660500019788742,-0.6040500402450562
1779996174947834400,0.45983447265625,9.652950286865234,-0.13005000352859497,-0.6349500417709351
1779996174965111000,0.477111083984375,9.780000686645508,-0.06105000153183937,-0.7170000076293945
1779996174982387700,0.4943876953125,9.895050048828125,-0.11400000751018524,-0.7099500298500061
1779996174999664400,0.511664306640625,9.75195026397705,-0.15195000171661377,-0.6550500392913818
1779996175016941000,0.528941162109375,9.712950706481934,-0.17100000381469727,-0.6400500535964966
1779996175034217700,0.5462177734375,9.782999992370605,-0.13305000960826874,-0.6810000538825989
1779996175051494400,0.563494384765625,9.897000312805176,-0.11100000888109207,-0.7170000076293945
1779996175068770800,0.580770751953125,9.86400032043457,-0.15900000929832458,-0.7020000219345093
1779996175086047500,0.598047607421875,9.865950584411621,-0.17295001447200775,-0.6690000295639038
1779996175103324200,0.61532421875,9.921000480651855,-0.11805000901222229,-0.6949500441551208
1779996175120600800,0.632600830078125,9.979050636291504,-0.11400000751018524,-0.7050000429153442
1779996175137877500,0.64987744140625,9.859050750732422,-0.14505000412464142,-0.6589500308036804
1779996175155154200,0.667154296875,9.742050170898438,-0.11400000751018524,-0.6499500274658203
1779996175172430800,0.684430908203125,9.652950286865234,-0.0970500037074089,-0.6709500551223755
1779996175189707500,0.70170751953125,9.670050621032715,-0.11400000751018524,-0.6619500517845154
1779996175215622700,0.72762255859375,9.771000862121582,-0.14505000412464142,-0.6160500049591064
1779996175232899000,0.744899169921875,9.844950675964355,-0.12105000764131546,-0.6550500392913818
1779996175250175700,0.76217578125,9.895050048828125,-0.07800000160932541,-0.7020000219345093
1779996175267452400,0.779452392578125,9.853950500488281,-0.16095000505447388,-0.6670500040054321
1779996175284729000,0.79672900390625,9.766050338745117,-0.16395001113414764,-0.6709500551223755
1779996175302005800,0.814005859375,9.766050338745117,-0.11100000888109207,-0.697950005531311
1779996175319282200,0.8312822265625,9.84000015258789,-0.11595000326633453,-0.7410000562667847
1779996175336559000,0.84855908203125,9.792000770568848,-0.1879500150680542,-0.7170000076293945
1779996175353835800,0.865835693359375,9.715950012207031,-0.1570500135421753,-0.7099500298500061
1779996175371112200,0.8831123046875,9.877950668334961,-0.16095000505447388,-0.7000500559806824
1779996175388388900,0.900388916015625,9.996000289916992,-0.17295001447200775,-0.7290000319480896
1779996175405665500,0.91766552734375,9.952950477600098,-0.09405000507831573,-0.7740000486373901
1779996175422942500,0.9349423828125,9.796950340270996,-0.18105000257492065,-0.7099500298500061
1779996175448857000,0.960857177734375,9.5910005569458,-0.17295001447200775,-0.6760500073432922
1779996175466134000,0.978134033203125,9.199050903320312,-0.09405000507831573,-0.7120500206947327
1779996175483410700,0.99541064453125,10.093950271606445,-0.14205001294612885,-0.7459500432014465
1779996175509325800,1.021325927734375,10.075050354003906,-0.1489500105381012,-0.7860000133514404
1779996175526602500,1.0386025390625,10.339950561523438,-0.15405000746250153,-0.7740000486373901
1779996175543879200,1.055879150390625,10.240050315856934,-0.1279500126838684,-0.753000020980835
1779996175561155800,1.07315576171875,9.735000610351562,-0.21195000410079956,-0.697950005531311
1779996175578432500,1.0904326171875,9.63900089263916,-0.1489500105381012,-0.6859500408172607
1779996175595709200,1.107709228515625,9.715950012207031,-0.0799500048160553,-0.7170000076293945
1779996175612985900,1.12498583984375,9.643950462341309,-0.15195000171661377,-0.7020000219345093
1779996175630262500,1.142262451171875,9.643950462341309,-0.1879500150680542,-0.6760500073432922
1779996175647539200,1.159539306640625,9.670050621032715,-0.14205001294612885,-0.6810000538825989
1779996175664816000,1.176816162109375,9.691950798034668,-0.11100000888109207,-0.6880500316619873
1779996175682092800,1.1940927734375,9.663000106811523,-0.19005000591278076,-0.6810000538825989
1779996175699369500,1.211369384765625,9.811050415039062,-0.15900000929832458,-0.7050000429153442
1779996175716646100,1.228646240234375,9.949950218200684,-0.12300000339746475,-0.7069500088691711
1779996175733922800,1.2459228515625,9.8860502243042,-0.15900000929832458,-0.6949500441551208
1779996175751199500,1.263199462890625,9.792000770568848,-0.18300001323223114,-0.6690000295639038
1779996175777114600,1.289114501953125,9.847050666809082,-0.1279500126838684,-0.7069500088691711
1779996175794391300,1.306391357421875,9.796950340270996,-0.15900000929832458,-0.697950005531311
1779996175811668000,1.32366796875,9.703950881958008,-0.1660500019788742,-0.7099500298500061
1779996175828944600,1.340944580078125,9.780000686645508,-0.14505000412464142,-0.6949500441551208
1779996175846221300,1.35822119140625,9.816000938415527,-0.16905000805854797,-0.697950005531311
1779996175863498000,1.375498046875,9.784950256347656,-0.15195000171661377,-0.7309500575065613
1779996175880775000,1.39277490234375,9.808950424194336,-0.17295001447200775,-0.7480500340461731
1779996175898051600,1.410051513671875,9.700950622558594,-0.18105000257492065,-0.7500000596046448
1779996175915328300,1.427328369140625,9.736950874328613,-0.14505000412464142,-0.7549500465393066
1779996175932605000,1.44460498046875,9.904950141906738,-0.1399500072002411,-0.7960500121116638
1779996175949881600,1.461881591796875,9.816000938415527,-0.1489500105381012,-0.778950035572052
1779996175975796700,1.487796630859375,9.748950004577637,-0.22800001502037048,-0.6690000295639038
1779996175993073400,1.505073486328125,9.919050216674805,-0.17100000381469727,-0.6829500198364258
1779996176010350300,1.522350341796875,9.981000900268555,-0.11805000901222229,-0.7570500373840332
1779996176027627000,1.539626953125,9.838050842285156,-0.13305000960826874,-0.7840500473976135
1779996176044903400,1.5569033203125,9.694050788879395,-0.10395000129938126,-0.7740000486373901
1779996176062180400,1.574180419921875,9.579000473022461,-0.08700000494718552,-0.7120500206947327
1779996176079457000,1.59145703125,9.703950881958008,-0.16905000805854797,-0.6690000295639038
1779996176096734000,1.60873388671875,9.732000350952148,-0.14505000412464142,-0.6619500517845154
1779996176114010600,1.6260107421875,9.664950370788574,-0.16395001113414764,-0.6640500426292419
1779996176131287600,1.64328759765625,9.547950744628906,-0.1279500126838684,-0.7069500088691711
1779996176148564200,1.660564208984375,9.720000267028809,-0.0990000069141388,-0.7720500230789185
1779996176165841200,1.677841064453125,9.724950790405273,-0.12495000660419464,-0.7890000343322754
1779996176183117800,1.695117919921875,9.841950416564941,-0.1399500072002411,-0.8220000267028809
1779996176209032700,1.72103271484375,10.288050651550293,-0.1660500019788742,-0.8509500622749329
1779996176226309600,1.7383095703125,10.414050102233887,-0.13695000112056732,-0.8700000643730164
1779996176243586300,1.75558642578125,11.824050903320312,-0.22800001502037048,-0.8460000157356262
1779996176260863000,1.772863037109375,23.362051010131836,-1.3650000095367432,0.6580500602722168
1779996176278139600,1.7901396484375,11.13900089263916,0.814050018787384,-1.4940000772476196
1779996176295416600,1.80741650390625,12.451050758361816,-0.8239500522613525,-0.46800002455711365
1779996176312693200,1.824693359375,-4.047000408172607,0.24000000953674316,-0.5850000381469727
1779996176329970000,1.841969970703125,-5.494950294494629,0.13005000352859497,0.4020000100135803
1779996176355885300,1.86788525390625,1.6080000400543213,0.62295001745224,-0.3460500240325928
1779996176373162000,1.885161865234375,17.21700096130371,-0.9940500259399414,-1.6189501285552979
1779996176390439000,1.90243896484375,27.58605194091797,-0.7279500365257263,-1.3270500898361206
1779996176407715600,1.919715576171875,14.556000709533691,0.6510000228881836,-1.4419500827789307
1779996176424992500,1.936992431640625,23.590051651000977,-1.390950083732605,-1.15500009059906
1779996176442269400,1.95426953125,0.9529500603675842,0.38805001974105835,-0.7000500559806824
1779996176459546000,1.971546142578125,-2.3680500984191895,0.08205000311136246,0.6559500098228455
1779996176476822800,1.98882275390625,-2.6550002098083496,-0.010950000956654549,0.8929500579833984
1779996176494099500,2.006099365234375,1.5940500497817993,0.28005000948905945,-0.11100000888109207
1779996176511376400,2.02337646484375,16.03499984741211,-0.7909500598907471,-1.3200000524520874
1779996176528653000,2.040653076171875,24.139951705932617,-0.6109500527381897,-1.1790000200271606
1779996176545930000,2.057929931640625,16.693050384521484,0.43605002760887146,-1.3099501132965088
1779996176563206700,2.07520654296875,23.290950775146484,-1.1470500230789185,-1.237950086593628
1779996176589121800,2.101121826171875,-1.659000039100647,0.29205000400543213,0.20100000500679016
1779996176606398700,2.118398681640625,-2.8339500427246094,-0.08700000494718552,0.8449500203132629
1779996176623675400,2.13567529296875,-0.24300001561641693,-0.0970500037074089,0.3330000042915344
1779996176658229200,2.170229248046875,19.9549503326416,-0.36000001430511475,-1.2310500144958496
1779996176675506000,2.187505859375,21.29505157470703,-0.13695000112056732,-1.3720500469207764
1779996176692782800,2.204782958984375,22.09200096130371,-0.5299500226974487,-1.3129500150680542
1779996176710059500,2.2220595703125,8.694000244140625,0.04605000093579292,-0.7669500112533569
1779996176727336400,2.23933642578125,2.7499501705169678,-0.1660500019788742,0.18405000865459442
1779996176744613000,2.256613037109375,-2.707050085067749,-0.010950000956654549,0.7159500122070312
1779996176761889800,2.273889892578125,-1.2139500379562378,0.1770000010728836,0.4240500330924988
1779996176779166700,2.291166748046875,5.904000282287598,0.25394999980926514,-0.625950038433075
1779996176796443600,2.308443603515625,22.977001190185547,-0.7810500264167786,-1.1640000343322754
1779996176813720600,2.325720458984375,18.10004997253418,0.15105000138282776,-1.2649500370025635
1779996176830997200,2.342997314453125,24.07305145263672,-0.6780000329017639,-1.1980500221252441
1779996176848274200,2.360274169921875,7.966050148010254,0.1080000028014183,-0.7099500298500061
1779996176865551000,2.377551025390625,1.9150501489639282,0.08895000070333481,0.12195000797510147
1779996176882827800,2.394827880859375,-0.6330000162124634,-0.19995000958442688,0.6030000448226929
1779996176908743200,2.4207431640625,1.281000018119812,0.2560500204563141,0.010050000622868538
1779996176926020000,2.43802001953125,14.953950881958008,-0.39795002341270447,-0.9150000214576721
1779996176943296800,2.455296875,20.290050506591797,-0.3550500273704529,-1.1640000343322754
1779996176969212000,2.4812119140625,23.571001052856445,-0.6139500141143799,-1.228950023651123
1779996176986488800,2.49848876953125,8.66295051574707,0.031050002202391624,-0.7020000219345093
1779996177003765800,2.515765869140625,2.2710001468658447,0.04800000041723251,0.1680000126361847
1779996177021042400,2.53304248046875,-0.34995001554489136,-0.2070000171661377,0.6390000581741333
1779996177038319400,2.5503193359375,-0.6570000052452087,0.13395000994205475,0.3540000021457672
1779996177055596300,2.56759619140625,5.715000152587891,0.20400001108646393,-0.5400000214576721
1779996177072873200,2.584873291015625,21.051000595092773,-0.6970500349998474,-1.0249500274658203
1779996177098788400,2.610788330078125,20.54400062561035,-0.1879500150680542,-1.1809500455856323
1779996177116065300,2.628065185546875,18.09105110168457,-0.5659500360488892,-1.0300500392913818
1779996177133342200,2.64534228515625,4.7220001220703125,0.25200000405311584,-0.46800002455711365
1779996177150619100,2.662619140625,2.26200008392334,-0.26205000281333923,0.37095001339912415
1779996177167895800,2.679895751953125,-1.9800001382827759,0.10305000841617584,0.5719500184059143
1779996177185172700,2.6971728515625,1.5390000343322754,0.22800001502037048,0.0070500001311302185
1779996177202449700,2.71444970703125,14.700000762939453,-0.48000001907348633,-0.7500000596046448
1779996177228365000,2.740364990234375,17.611949920654297,0.10095000267028809,-1.207050085067749
1779996177245642000,2.75764208984375,23.03205108642578,-0.5509500503540039,-1.1980500221252441
1779996177262918700,2.774918701171875,8.892000198364258,0.04305000230669975,-0.7050000429153442
1779996177280195600,2.792195556640625,3.891000270843506,-0.09000000357627869,0.11295000463724136
1779996177297472500,2.809472412109375,-0.29100000858306885,-0.0799500048160553,0.5890500545501709
1779996177314749200,2.826749267578125,-0.5269500017166138,0.14595000445842743,0.37095001339912415
1779996177332026000,2.844026123046875,6.016050338745117,0.1489500105381012,-0.4339500069618225
1779996177357941200,2.869941162109375,17.7220516204834,-0.22095000743865967,-0.9900000691413879
1779996177375218200,2.88721826171875,20.878950119018555,-0.2880000174045563,-1.1069999933242798
1779996177392495000,2.9044951171875,17.083051681518555,-0.4249500334262848,-0.9900000691413879
1779996177418410500,2.930410400390625,4.758000373840332,-0.10905000567436218,0.04605000093579292
1779996177435687400,2.9476875,-0.3910500109195709,-0.030000001192092896,0.5359500050544739
1779996177452964400,2.96496435546875,-0.3739500045776367,0.16500000655651093,0.3829500079154968
1779996177478879500,2.99087939453125,14.439001083374023,-0.5440500378608704,-0.6330000162124634
1779996177496156400,3.008156494140625,16.89000129699707,-0.16095000505447388,-0.9610500335693359
1779996177513433300,3.025433349609375,21.118051528930664,-0.2639999985694885,-1.152000069618225
1779996177530710000,3.0427099609375,16.47300148010254,-0.31200000643730164,-1.002000093460083
1779996177547987000,3.059987060546875,6.715050220489502,0.13005000352859497,-0.4320000112056732
1779996177565264000,3.077263916015625,3.3480000495910645,-0.27105000615119934,0.30195000767707825
1779996177591179000,3.103178955078125,-0.19200000166893005,0.12495000660419464,0.4069500267505646
1779996177608456000,3.1204560546875,6.897000312805176,-0.0990000069141388,-0.30000001192092896
1779996177625732900,3.13773291015625,16.753049850463867,-0.42705002427101135,-0.7840500473976135
1779996177643009800,3.155009765625,17.683950424194336,0.004950000438839197,-1.0920000076293945
1779996177660286700,3.17228662109375,21.682950973510742,-0.5350500345230103,-1.0830000638961792
1779996177686202000,3.1982021484375,7.567050457000732,0.06300000101327896,-0.40605002641677856
1779996177703479000,3.21547900390625,3.2380502223968506,-0.24300001561641693,0.28200000524520874
1779996177720756000,3.232755859375,-0.9679500460624695,0.04605000093579292,0.5290500521659851
1779996177746671000,3.258671142578125,7.440000534057617,-0.11805000901222229,-0.2959500253200531
1779996177763948000,3.275947998046875,15.403950691223145,-0.30000001192092896,-0.7570500373840332
1779996177781225000,3.293224853515625,18.261001586914062,-0.10605000704526901,-1.0609500408172607
1779996177807140400,3.319140380859375,15.315000534057617,-0.19200000166893005,-0.8800500631332397
1779996177824417300,3.336417236328125,8.469000816345215,-0.05400000140070915,-0.42000001668930054
1779996177841694200,3.353694091796875,2.854950189590454,-0.13500000536441803,0.226950004696846
1779996177858971100,3.37097119140625,-0.7260000109672546,0.08700000494718552,0.5410500168800354
1779996177876248000,3.388248046875,2.7400500774383545,0.08205000311136246,0.1290000081062317
1779996177893524700,3.405524658203125,12.336000442504883,-0.29100000858306885,-0.5040000081062317
1779996177910801700,3.4228017578125,16.08795166015625,-0.030000001192092896,-0.9780000448226929
1779996177928078600,3.44007861328125,21.175050735473633,-0.4320000112056732,-1.0039499998092651
1779996177945355500,3.45735546875,15.00195026397705,-0.20400001108646393,-0.8029500246047974
1779996177971271000,3.48327099609375,6.238950252532959,-0.14505000412464142,-0.0970500037074089
1779996177988547800,3.5005478515625,0.07005000114440918,0.09105000644922256,0.37800002098083496
1779996178005824800,3.51782470703125,0.9100500345230103,0.12000000476837158,0.32100000977516174
1779996178023101700,3.535101806640625,7.657950401306152,-0.208950012922287,-0.15000000596046448
1779996178040378600,3.552378662109375,13.654050827026367,-0.19005000591278076,-0.6520500183105469
1779996178057655600,3.569655517578125,19.302000045776367,-0.2639999985694885,-1.0110000371932983
1779996178074932500,3.586932373046875,18.510000228881836,-0.24300001561641693,-1.0180500745773315
1779996178092209400,3.60420947265625,12.312000274658203,-0.14505000412464142,-0.7069500088691711
1779996178118124800,3.630124755859375,2.5440001487731934,0.0580500029027462,0.17205001413822174
1779996178135401700,3.647401611328125,0.38100001215934753,0.015000000596046448,0.49500003457069397
1779996178152678700,3.6646787109375,3.58305025100708,-0.08205000311136246,0.16995000839233398
1779996178169955600,3.68195556640625,10.588950157165527,-0.15405000746250153,-0.4510500133037567
1779996178187232500,3.699232421875,16.78005027770996,-0.1660500019788742,-0.9180000424385071
1779996178204509400,3.716509521484375,19.483051300048828,-0.2550000250339508,-1.0060499906539917
1779996178221786400,3.733786376953125,15.68595027923584,-0.20205001533031464,-0.817050039768219
1779996178239063300,3.751063232421875,9.232050895690918,-0.1399500072002411,-0.36000001430511475
1779996178256340000,3.768340087890625,2.998950242996216,-0.05595000088214874,0.20805001258850098
1779996178273617000,3.785616943359375,0.6850500106811523,0.016950000077486038,0.4330500066280365
1779996178290893800,3.802893798828125,3.421950101852417,0.027000000700354576,0.10095000267028809
1779996178308170800,3.820170654296875,10.635000228881836,-0.19005000591278076,-0.4510500133037567
1779996178334086100,3.846086181640625,18.285001754760742,-0.23805001378059387,-0.9199500679969788
1779996178351363000,3.863363037109375,18.475950241088867,-0.31905001401901245,-0.9370500445365906
1779996178368640000,3.880639892578125,12.405000686645508,-0.1279500126838684,-0.6690000295639038
1779996178385917000,3.8979169921875,6.070950508117676,-0.0970500037074089,-0.10395000129938126
1779996178403193900,3.91519384765625,1.3020000457763672,0.015000000596046448,0.361050009727478
1779996178429109200,3.941109130859375,3.592050075531006,0.003000000026077032,0.14805001020431519
1779996178446386200,3.95838623046875,10.468950271606445,-0.1660500019788742,-0.4129500091075897
1779996178463663000,3.9756630859375,16.147951126098633,-0.22800001502037048,-0.817050039768219
1779996178489578500,4.00157861328125,18.165000915527344,-0.25005000829696655,-0.9130500555038452
1779996178506855400,4.01885546875,12.496050834655762,-0.10905000567436218,-0.6670500040054321
1779996178524132400,4.03613232421875,6.259950160980225,-0.08700000494718552,-0.10695000737905502
1779996178541409300,4.0534091796875,1.527000069618225,0.027000000700354576,0.364050030708313
1779996178558686500,4.0706865234375,1.7710500955581665,-0.003000000026077032,0.35895001888275146
1779996178575963400,4.08796337890625,6.885000228881836,-0.13500000536441803,-0.11595000326633453
1779996178593240000,4.105239990234375,13.312050819396973,-0.16905000805854797,-0.6330000162124634
1779996178610517200,4.122517333984375,17.847000122070312,-0.2160000056028366,-0.9250500202178955
1779996178627794200,4.139794189453125,17.977951049804688,-0.2639999985694885,-0.934950053691864
1779996178653709600,4.16570947265625,9.606000900268555,-0.09000000357627869,-0.40800002217292786
1779996178670986500,4.182986572265625,3.8050501346588135,-0.06599999964237213,0.1579500138759613
1779996178688263400,4.200263427734375,1.3450500965118408,-0.039000000804662704,0.45000001788139343
1779996178714178800,4.2261787109375,6.681000232696533,-0.05595000088214874,-0.1279500126838684
1779996178731456000,4.2434560546875,13.080000877380371,-0.12105000764131546,-0.6589500308036804
1779996178748733000,4.26073291015625,17.581050872802734,-0.24000000953674316,-0.8719500303268433
1779996178774648300,4.2866484375,15.68595027923584,-0.23295001685619354,-0.7240500450134277
1779996178791925200,4.30392529296875,9.723000526428223,-0.0990000069141388,-0.4129500091075897
1779996178809202200,4.3212021484375,4.021049976348877,-0.003000000026077032,0.07200000435113907
1779996178826479000,4.33847900390625,1.5079500675201416,-0.022950001060962677,0.3850500285625458
1779996178843756300,4.35575634765625,3.811950206756592,-0.04905000329017639,0.15300001204013824
1779996178861033200,4.373033203125,9.859050750732422,-0.1469999998807907,-0.35100001096725464
1779996178878310100,4.39031005859375,15.564001083374023,-0.2160000056028366,-0.7740000486373901
1779996178895587000,4.407587158203125,18.373050689697266,-0.2689500153064728,-0.8989500403404236
1779996178912864300,4.4248642578125,15.645000457763672,-0.208950012922287,-0.7840500473976135
1779996178930141200,4.44214111328125,9.819000244140625,-0.11805000901222229,-0.42705002427101135
1779996178947418000,4.459418212890625,4.260000228881836,-0.05595000088214874,0.09300000220537186
1779996178964695000,4.476695068359375,1.7310000658035278,-0.003000000026077032,0.38100001215934753
1779996178981972000,4.493971923828125,3.882000207901001,-0.018000001087784767,0.1579500138759613
1779996178999249000,4.511248779296875,9.732000350952148,-0.12105000764131546,-0.36000001430511475
1779996179016526000,4.528526123046875,15.346050262451172,-0.18300001323223114,-0.7620000243186951
1779996179033803000,4.545802978515625,18.145950317382812,-0.28095000982284546,-0.8560500144958496
1779996179059718400,4.571718505859375,12.901050567626953,-0.15405000746250153,-0.597000002861023
1779996179076995300,4.588995361328125,6.96405029296875,-0.06795000284910202,-0.15900000929832458
1779996179094272500,4.6062724609375,2.5350000858306885,0.024000000208616257,0.26100000739097595
1779996179111549700,4.6235498046875,2.3620500564575195,-0.019950000569224358,0.34200000762939453
1779996179128826400,4.640826416015625,6.576000213623047,-0.10905000567436218,-0.06105000153183937
1779996179146103600,4.658103515625,12.580050468444824,-0.1469999998807907,-0.5850000381469727
1779996179163380700,4.675380615234375,16.94700050354004,-0.21900001168251038,-0.8509500622749329
1779996179180657700,4.69265771484375,17.418001174926758,-0.25200000405311584,-0.8440500497817993
1779996179197934600,4.7099345703125,13.003050804138184,-0.19005000591278076,-0.595050036907196
1779996179215211800,4.727211669921875,7.162050247192383,-0.08205000311136246,-0.13095000386238098
1779996179232488700,4.74448876953125,2.7310500144958496,-0.00795000046491623,0.25905001163482666
1779996179249765600,4.761765625,2.4649500846862793,0.027000000700354576,0.27300000190734863
1779996179267042600,4.77904248046875,6.511950492858887,-0.10200000554323196,-0.05895000323653221
1779996179284319500,4.796319580078125,12.490950584411621,-0.1879500150680542,-0.5040000081062317
1779996179301596700,4.8135966796875,16.78005027770996,-0.21405000984668732,-0.7890000343322754
1779996179318873600,4.83087353515625,17.263050079345703,-0.22605000436306,-0.8389500379562378
1779996179344789200,4.856789306640625,10.099050521850586,-0.0799500048160553,-0.4420500099658966
1779996179362066200,4.874066162109375,4.852950096130371,-0.11400000751018524,0.08895000070333481
1779996179379343400,4.89134326171875,2.281050205230713,-0.046950001269578934,0.39000001549720764
1779996179405258500,4.917258544921875,6.516000270843506,-0.031950000673532486,-0.11100000888109207
1779996179422535700,4.93453564453125,12.307050704956055,-0.17100000381469727,-0.5730000138282776
1779996179439812900,4.951812744140625,16.582950592041016,-0.208950012922287,-0.7860000133514404
1779996179457089800,4.96908984375,17.137950897216797,-0.2689500153064728,-0.76500004529953
1779996179474367000,4.986366943359375,13.047000885009766,-0.17805001139640808,-0.5879999995231628
1779996179491644000,5.003643798828125,7.438050270080566,-0.06795000284910202,-0.1860000044107437
1779996179508920800,5.0209208984375,3.145050048828125,-0.013050000183284283,0.22995001077651978
1779996179526198000,5.038197998046875,2.7280502319335938,-0.006000000052154064,0.2939999997615814
1779996179543475000,5.055474853515625,6.50700044631958,-0.06599999964237213,-0.07304999977350235
1779996179569390300,5.081390380859375,14.60400104522705,-0.19500000774860382,-0.6469500064849854
1779996179586667300,5.098667236328125,17.409000396728516,-0.2670000195503235,-0.8010000586509705
1779996179603944400,5.1159443359375,15.468000411987305,-0.2070000171661377,-0.7480500340461731
1779996179621221400,5.133221435546875,10.302000045776367,-0.10605000704526901,-0.43695002794265747
1779996179638498300,5.150498291015625,5.221950054168701,-0.030000001192092896,0.024000000208616257
1779996179655775500,5.167775390625,2.6539502143859863,-0.013050000183284283,0.32805001735687256
1779996179673052400,5.185052490234375,4.2619500160217285,-0.09195000678300858,0.1870500147342682
1779996179698967800,5.2109677734375,12.019950866699219,-0.12300000339746475,-0.4990500211715698
1779996179716245000,5.228244873046875,16.210050582885742,-0.18495000898838043,-0.7810500264167786
1779996179733522000,5.24552197265625,16.810951232910156,-0.22605000436306,-0.7840500473976135
1779996179759437300,5.271437255859375,10.431000709533691,-0.13305000960826874,-0.38700002431869507
1779996179776714500,5.288714599609375,5.392050266265869,-0.0799500048160553,0.04800000041723251
1779996179793991400,5.305991455078125,2.836050033569336,-0.00795000046491623,0.28995001316070557
1779996179811268400,5.323268310546875,4.324050426483154,-0.027000000700354576,0.13905000686645508
1779996179828545300,5.340545166015625,9.144000053405762,-0.11400000751018524,-0.2670000195503235
1779996179845822500,5.357822509765625,14.190000534057617,-0.18105000257492065,-0.6349500417709351
1779996179863099400,5.375099365234375,16.996950149536133,-0.24300001561641693,-0.7890000343322754
1779996179880376300,5.392376220703125,15.358050346374512,-0.23595000803470612,-0.6949500441551208
1779996179897653500,5.409653564453125,10.510050773620605,-0.1489500105381012,-0.41805002093315125
1779996179914930400,5.426930419921875,5.583000183105469,-0.043950002640485764,-0.013050000183284283
1779996179932207400,5.444207275390625,3.0319502353668213,-0.00795000046491623,0.2779500186443329
1779996179949484500,5.461484619140625,4.40595006942749,-0.04905000329017639,0.16995000839233398
1779996179966761500,5.478761474609375,9.052950859069824,-0.13005000352859497,-0.24300001561641693
1779996179984038700,5.49603857421875,13.992000579833984,-0.17595000565052032,-0.612000048160553
1779996180001315600,5.513315673828125,16.762950897216797,-0.208950012922287,-0.7960500121116638
1779996180018592500,5.530592529296875,15.301051139831543,-0.23805001378059387,-0.7050000429153442
1779996180035869400,5.547869384765625,10.606050491333008,-0.13005000352859497,-0.3750000298023224
1779996180053146600,5.565146728515625,5.76300048828125,-0.06300000101327896,0.024000000208616257
1779996180070423800,5.582423828125,3.1999502182006836,-0.003000000026077032,0.2560500204563141
1779996180087700700,5.59970068359375,4.458000183105469,0.004950000438839197,0.11295000463724136
1779996180113616100,5.6256162109375,11.589000701904297,-0.1969500035047531,-0.41505002975463867
1779996180130893300,5.642893310546875,15.6670503616333,-0.23805001378059387,-0.6589500308036804
1779996180148170500,5.66017041015625,16.43505096435547,-0.21900001168251038,-0.7240500450134277
1779996180165447200,5.677447265625,13.092000961303711,-0.15195000171661377,-0.597000002861023
1779996180182724000,5.69472412109375,8.128950119018555,-0.06795000284910202,-0.21705001592636108
1779996180200001300,5.712001220703125,4.174050331115723,-0.030000001192092896,0.17205001413822174
1779996180217278200,5.7292783203125,3.4650001525878906,-0.04905000329017639,0.26295000314712524
1779996180243193600,5.755193603515625,8.928000450134277,-0.14505000412464142,-0.23805001378059387
1779996180260470800,5.772470703125,13.678050994873047,-0.17100000381469727,-0.597000002861023
1779996180277747700,5.789747802734375,16.45905113220215,-0.21900001168251038,-0.7570500373840332
1779996180303663000,5.8156630859375,13.129950523376465,-0.1570500135421753,-0.5610000491142273
1779996180320940300,5.832940185546875,8.281949996948242,-0.10605000704526901,-0.21000000834465027
1779996180338217200,5.85021728515625,4.320000171661377,-0.05400000140070915,0.17505000531673431
1779996180364132600,5.876132568359375,4.597050189971924,-0.0580500029027462,0.15300001204013824
1779996180381409800,5.893409912109375,8.814000129699707,-0.09000000357627869,-0.22395001351833344
1779996180398686700,5.910686767578125,13.50105094909668,-0.16095000505447388,-0.5730000138282776
1779996180424602600,5.9366025390625,16.180950164794922,-0.23295001685619354,-0.7000500559806824
1779996180441879600,5.953879638671875,13.135050773620605,-0.19500000774860382,-0.5419500470161438
1779996180459156500,5.971156494140625,8.40000057220459,-0.0970500037074089,-0.21900001168251038
1779996180476433400,5.988433349609375,4.480050086975098,-0.027000000700354576,0.1270500123500824
1779996180493710600,6.005710693359375,3.705000162124634,-0.039000000804662704,0.2350500077009201
1779996180510987500,6.022987548828125,6.4710001945495605,-0.06300000101327896,-0.018000001087784767
1779996180528264400,6.040264404296875,11.239950180053711,-0.13695000112056732,-0.41805002093315125
1779996180545541600,6.057541748046875,15.17400074005127,-0.21405000984668732,-0.6709500551223755
1779996180562818600,6.074818603515625,16.05405044555664,-0.2160000056028366,-0.7020000219345093
1779996180588734000,6.10073388671875,10.888050079345703,-0.14505000412464142,-0.3910500109195709
1779996180606011000,6.118010986328125,6.346050262451172,-0.07500000298023224,-0.028050001710653305
1779996180623288000,6.1352880859375,3.7980000972747803,-0.013050000183284283,0.22500000894069672
1779996180649203500,6.161203369140625,6.468000411987305,-0.07005000114440918,-0.034950003027915955
1779996180666480400,6.17848046875,11.134950637817383,-0.1660500019788742,-0.38700002431869507
1779996180683757600,6.195757568359375,15.01395034790039,-0.19500000774860382,-0.6619500517845154
1779996180701034500,6.213034423828125,15.954000473022461,-0.22095000743865967,-0.7170000076293945
1779996180718311400,6.2303115234375,13.132950782775879,-0.1879500150680542,-0.5520000457763672
1779996180735588400,6.24758837890625,8.610000610351562,-0.12105000764131546,-0.21195000410079956
1779996180752865500,6.264865478515625,4.81695032119751,-0.031950000673532486,0.11700000613927841
1779996180778781000,6.290781005859375,4.795950412750244,-0.05100000277161598,0.14400000870227814
1779996180796057900,6.308057861328125,8.634000778198242,-0.11400000751018524,-0.19500000774860382
1779996180813335000,6.3253349609375,13.081950187683105,-0.16395001113414764,-0.5230500102043152
1779996180839250400,6.35125048828125,15.837000846862793,-0.22800001502037048,-0.6859500408172607
1779996180856527400,6.36852734375,13.135050773620605,-0.1660500019788742,-0.5470499992370605
1779996180873804500,6.385804443359375,8.70300006866455,-0.11595000326633453,-0.22905001044273376
1779996180899720000,6.411719970703125,4.107000350952148,-0.006000000052154064,0.20100000500679016
1779996180916997000,6.4289970703125,4.852950096130371,-0.07005000114440918,0.15600000321865082
1779996180934274300,6.4462744140625,8.578950881958008,-0.13695000112056732,-0.17805001139640808
1779996180960189400,6.472189453125,14.686050415039062,-0.17295001447200775,-0.6520500183105469
1779996180977466600,6.489466552734375,15.7339506149292,-0.2070000171661377,-0.6949500441551208
1779996180994743600,6.50674365234375,13.156950950622559,-0.1660500019788742,-0.544950008392334
1779996181012020700,6.524020751953125,8.835000038146973,-0.1469999998807907,-0.1980000138282776
1779996181029297700,6.541297607421875,5.1160502433776855,-0.07304999977350235,0.14595000445842743
1779996181046574600,6.55857470703125,4.164000034332275,-0.006000000052154064,0.1870500147342682
1779996181063851800,6.575851806640625,6.4519500732421875,-0.034950003027915955,-0.043950002640485764
1779996181089767000,6.601766845703125,12.82905101776123,-0.18495000898838043,-0.4849500358104706
1779996181107044000,6.619044189453125,15.516000747680664,-0.2639999985694885,-0.6019500494003296
1779996181124321300,6.6363212890625,14.78895092010498,-0.20205001533031464,-0.612000048160553
1779996181141598200,6.65359814453125,11.130000114440918,-0.10395000129938126,-0.4300500154495239
1779996181158875100,6.670875244140625,6.913950443267822,-0.05595000088214874,-0.10200000554323196
1779996181176152000,6.688152099609375,4.389000415802002,-0.043950002640485764,0.1960500031709671
1779996181193429200,6.70542919921875,5.004000186920166,-0.08700000494718552,0.17205001413822174
1779996181210706200,6.7227060546875,8.44694995880127,-0.10905000567436218,-0.1570500135421753
1779996181236621600,6.74862158203125,14.379000663757324,-0.17295001447200775,-0.6280500292778015
1779996181253898500,6.7658984375,15.495000839233398,-0.19500000774860382,-0.6829500198364258
1779996181271175700,6.78317578125,13.195050239562988,-0.18300001323223114,-0.5250000357627869
1779996181297091300,6.80909130859375,7.069050312042236,-0.08505000174045563,-0.0799500048160553
1779996181314368000,6.826367919921875,4.546950340270996,-0.06599999964237213,0.1770000010728836
1779996181331645200,6.843645263671875,5.044950008392334,-0.030000001192092896,0.13199999928474426
1779996181348922400,6.86092236328125,8.404050827026367,-0.0970500037074089,-0.16905000805854797
1779996181366199300,6.87819921875,12.568050384521484,-0.15900000929832458,-0.46995002031326294
1779996181383476200,6.895476318359375,15.190950393676758,-0.208950012922287,-0.6190500259399414
1779996181400753200,6.912753173828125,14.652000427246094,-0.2070000171661377,-0.6019500494003296
1779996181418030000,6.930030029296875,11.242050170898438,-0.12300000339746475,-0.41805002093315125
1779996181435307300,6.947307373046875,7.201050281524658,-0.07005000114440918,-0.10695000737905502
1779996181452584200,6.964584228515625,4.666950225830078,-0.030000001192092896,0.14100000262260437
1779996181469861400,6.981861328125,5.133000373840332,-0.07500000298023224,0.1270500123500824
1779996181487138300,6.99913818359375,8.37600040435791,-0.11400000751018524,-0.15900000929832458
1779996181504415200,7.016415283203125,12.453001022338867,-0.15195000171661377,-0.48705002665519714
1779996181521692400,7.0336923828125,15.064050674438477,-0.19005000591278076,-0.6499500274658203
1779996181538969300,7.05096923828125,14.56095027923584,-0.19995000958442688,-0.6019500494003296
1779996181556246300,7.068246337890625,11.30505084991455,-0.10200000554323196,-0.4320000112056732
1779996181573523200,7.085523193359375,7.294050216674805,-0.10905000567436218,-0.09495000541210175
1779996181599438800,7.11143896484375,4.62600040435791,-0.06795000284910202,0.21300001442432404
1779996181616715800,7.1287158203125,6.51900053024292,-0.031950000673532486,0
1779996181633992700,7.14599267578125,10.387950897216797,-0.0990000069141388,-0.3460500240325928
1779996181651270000,7.163269775390625,13.90095043182373,-0.208950012922287,-0.5560500025749207
1779996181668546800,7.180546875,15.169051170349121,-0.22605000436306,-0.6210000514984131
1779996181685823700,7.19782373046875,13.165950775146484,-0.16905000805854797,-0.5350500345230103
1779996181703100700,7.2151005859375,9.337950706481934,-0.10905000567436218,-0.27900001406669617
1779996181720377600,7.232377685546875,5.8560004234313965,-0.0580500029027462,0.04605000093579292
1779996181737654800,7.24965478515625,4.734000205993652,-0.07304999977350235,0.17505000531673431
1779996181763570400,7.2755703125,8.257950782775879,-0.11100000888109207,-0.13095000386238098
1779996181780847400,7.292847412109375,12.195000648498535,-0.16395001113414764,-0.4540500342845917
1779996181798124300,7.310124267578125,14.793001174926758,-0.16095000505447388,-0.6379500031471252
1779996181824040000,7.3360400390625,13.16100025177002,-0.19995000958442688,-0.5179499983787537
1779996181841316900,7.35331689453125,9.442950248718262,-0.14205001294612885,-0.21900001168251038
1779996181858593800,7.37059375,5.9659504890441895,-0.07800000160932541,0.08100000023841858
1779996181875870700,7.38787060546875,4.7910003662109375,-0.05595000088214874,0.18000000715255737
1779996181893148000,7.40514794921875,6.49500036239624,-0.04905000329017639,-0.022950001060962677
1779996181910424800,7.4224248046875,10.197000503540039,-0.10905000567436218,-0.3150000274181366
1779996181927701800,7.43970166015625,13.62600040435791,-0.19995000958442688,-0.5130000114440918
1779996181944978700,7.456978759765625,14.980051040649414,-0.208950012922287,-0.6040500402450562
1779996181962256000,7.474255859375,13.192950248718262,-0.17595000565052032,-0.5230500102043152
1779996181979532800,7.49153271484375,9.547950744628906,-0.1399500072002411,-0.25005000829696655
1779996181996809700,7.508809814453125,6.093000411987305,-0.05100000277161598,0.040950000286102295
1779996182022725000,7.53472509765625,5.3580002784729,-0.030000001192092896,0.07200000435113907
1779996182040002300,7.552002197265625,8.170050621032715,-0.07800000160932541,-0.1469999998807907
1779996182057279200,7.569279296875,11.97900104522705,-0.19995000958442688,-0.38700002431869507
1779996182074556200,7.58655615234375,14.58495044708252,-0.22095000743865967,-0.5490000247955322
1779996182091833300,7.603833251953125,14.33595085144043,-0.16905000805854797,-0.5850000381469727
1779996182109110300,7.6211103515625,11.434050559997559,-0.11595000326633453,-0.4300500154495239
1779996182126387200,7.63838720703125,7.785000324249268,-0.08205000311136246,-0.1399500072002411
1779996182143664000,7.6556640625,5.3269500732421875,-0.08700000494718552,0.12495000660419464
1779996182160941300,7.67294140625,5.458950042724609,-0.06105000153183937,0.14100000262260437
1779996182178218200,7.69021826171875,8.143050193786621,-0.10200000554323196,-0.14505000412464142
1779996182204133600,7.716133544921875,13.36500072479248,-0.16905000805854797,-0.5400000214576721
1779996182221410600,7.73341064453125,14.757000923156738,-0.21195000410079956,-0.5920500159263611
1779996182238687700,7.750687744140625,13.152000427246094,-0.18495000898838043,-0.492000013589859
1779996182255964700,7.767964599609375,9.687000274658203,-0.11595000326633453,-0.2740500271320343
1779996182273241600,7.78524169921875,6.3319501876831055,-0.09195000678300858,0.028950002044439316
1779996182290518500,7.8025185546875,5.085000038146973,-0.0580500029027462,0.1290000081062317
1779996182307795700,7.819795654296875,6.552000522613525,-0.04905000329017639,-0.006000000052154064
1779996182325072600,7.83707275390625,9.981000900268555,-0.09195000678300858,-0.31005001068115234
1779996182342349600,7.854349609375,13.273950576782227,-0.18105000257492065,-0.4849500358104706
1779996182359626500,7.87162646484375,14.679000854492188,-0.22605000436306,-0.5590500235557556
1779996182376903700,7.888903564453125,13.120950698852539,-0.1660500019788742,-0.5010000467300415
1779996182394180600,7.9061806640625,9.739950180053711,-0.11400000751018524,-0.2880000174045563
1779996182411457500,7.92345751953125,6.430050373077393,-0.08205000311136246,0
1779996182428734500,7.940734375,5.167050361633301,-0.04905000329017639,0.13199999928474426
1779996182446011400,7.958011474609375,6.589950084686279,-0.0799500048160553,-0.010950000956654549
1779996182463288300,7.975288330078125,9.928950309753418,-0.1399500072002411,-0.27900001406669617
1779996182489204000,8.001203857421874,14.265000343322754,-0.1969500035047531,-0.5680500268936157
1779996182506481000,8.01848095703125,14.164051055908203,-0.18495000898838043,-0.5610000491142273
1779996182523757800,8.0357578125,11.544000625610352,-0.13305000960826874,-0.3960000276565552
1779996182549673200,8.061673095703124,6.538050174713135,-0.07500000298023224,0.0070500001311302185
1779996182566950400,8.078950439453125,5.265000343322754,-0.06599999964237213,0.14595000445842743
1779996182584227300,8.096227294921874,6.60705041885376,-0.07304999977350235,0.031050002202391624
1779996182601504300,8.113504150390625,9.847050666809082,-0.12300000339746475,-0.2569500207901001
1779996182618781200,8.13078125,13.030050277709961,-0.15195000171661377,-0.492000013589859
1779996182636058400,8.148058349609375,14.451000213623047,-0.18300001323223114,-0.5760000348091125
1779996182661973800,8.173973876953125,11.569950103759766,-0.16095000505447388,-0.3820500075817108
1779996182679250700,8.191250732421874,8.184000015258789,-0.12495000660419464,-0.12105000764131546
1779996182696528000,8.20852783203125,5.755050182342529,-0.05595000088214874,0.08100000023841858
1779996182713804800,8.2258046875,5.679000377655029,-0.05100000277161598,0.07695000618696213
1779996182739720400,8.251720458984375,9.744000434875488,-0.0970500037074089,-0.2770500183105469
1779996182756997400,8.268997314453125,12.910050392150879,-0.18495000898838043,-0.48000001907348633
1779996182774274300,8.2862744140625,14.353050231933594,-0.22095000743865967,-0.5400000214576721
1779996182791551200,8.30355126953125,13.09695053100586,-0.18300001323223114,-0.47505003213882446
1779996182808828200,8.320828125,9.985950469970703,-0.11100000888109207,-0.2880000174045563
1779996182826105300,8.338105224609375,6.789000511169434,-0.0580500029027462,-0.04200000315904617
1779996182843382300,8.35538232421875,5.451000213623047,-0.06105000153183937,0.1099500060081482
1779996182860659200,8.3726591796875,6.646050453186035,-0.08700000494718552,0.024000000208616257
1779996182877936000,8.38993603515625,9.696000099182129,-0.1570500135421753,-0.21405000984668732
1779996182895213000,8.407213134765625,12.790950775146484,-0.17805001139640808,-0.4729500114917755
1779996182912490200,8.424490234375,14.22900104522705,-0.15405000746250153,-0.5920500159263611
1779996182929767200,8.44176708984375,13.07295036315918,-0.15195000171661377,-0.5209500193595886
1779996182947044000,8.459044189453126,10.084050178527832,-0.1660500019788742,-0.2670000195503235
1779996182964321000,8.476321044921875,6.934950351715088,-0.10200000554323196,0.010050000622868538
1779996182981598000,8.493597900390625,5.539950370788574,-0.0580500029027462,0.10500000417232513
1779996182998875100,8.510875244140625,6.598050117492676,-0.04905000329017639,-0.013050000183284283
1779996183016152000,8.528152099609375,9.598050117492676,-0.11595000326633453,-0.2569500207901001
1779996183033429000,8.545428955078124,12.694951057434082,-0.15195000171661377,-0.4540500342845917
1779996183050706000,8.562705810546875,14.20995044708252,-0.21195000410079956,-0.5179499983787537
1779996183076621300,8.588621337890626,11.709000587463379,-0.14205001294612885,-0.3820500075817108
1779996183093898200,8.605898193359375,8.44005012512207,-0.06105000153183937,-0.18300001323223114
1779996183111175400,8.623175537109375,6.040050506591797,-0.06300000101327896,0.036000002175569534
1779996183128452400,8.640452392578124,5.836950302124023,-0.07800000160932541,0.09795000404119492
1779996183145729300,8.657729248046875,7.921050548553467,-0.0970500037074089,-0.09000000357627869
1779996183163006200,8.675006103515624,11.191950798034668,-0.17100000381469727,-0.37005001306533813
1779996183180283100,8.692283203125,13.693050384521484,-0.17595000565052032,-0.5299500226974487
1779996183206198500,8.718198486328125,13.087050437927246,-0.15900000929832458,-0.49695003032684326
1779996183223475700,8.735475830078125,10.209000587463379,-0.11805000901222229,-0.29805001616477966
1779996183240752600,8.752752685546875,7.102950572967529,-0.0970500037074089,-0.025050001218914986
1779996183266668000,8.77866796875,5.868000507354736,-0.08505000174045563,0.09105000644922256
1779996183283945000,8.795945068359375,7.887000560760498,-0.08205000311136246,-0.10200000554323196
1779996183301222000,8.813221923828126,11.098950386047363,-0.14205001294612885,-0.34800001978874207
1779996183318499000,8.8304990234375,13.615950584411621,-0.14505000412464142,-0.5329500436782837
1779996183335776000,8.84777587890625,13.903050422668457,-0.17100000381469727,-0.5230500102043152
1779996183353053000,8.865052978515624,11.749950408935547,-0.1969500035047531,-0.35295000672340393
1779996183370329900,8.882329833984375,8.586000442504883,-0.10395000129938126,-0.14505000412464142
1779996183396245500,8.90824560546875,5.710050106048584,-0.031950000673532486,0.06705000251531601
1779996183413522400,8.9255224609375,6.628950119018555,-0.06105000153183937,0.025950001552700996
1779996183430799400,8.94279931640625,9.427950859069824,-0.1489500105381012,-0.17595000565052032
1779996183456714800,8.96871484375,13.492050170898438,-0.1660500019788742,-0.5370000004768372
1779996183473991700,8.98599169921875,13.867051124572754,-0.16395001113414764,-0.5800500512123108
1779996183491268900,9.003268798828126,11.800050735473633,-0.16095000505447388,-0.42000001668930054
1779996183508545500,9.020545654296875,8.734950065612793,-0.13695000112056732,-0.1570500135421753
1779996183525822500,9.037822509765626,6.343950271606445,-0.10200000554323196,0.05295000225305557
1779996183543099600,9.055099609375,5.95395040512085,-0.06599999964237213,0.05505000427365303
1779996183560376600,9.07237646484375,7.806000232696533,-0.06599999964237213,-0.0990000069141388
1779996183577653500,9.089653564453124,10.881000518798828,-0.15900000929832458,-0.3169500231742859
1779996183594930400,9.106930419921875,13.381950378417969,-0.17595000565052032,-0.4939500093460083
1779996183612207400,9.124207275390624,13.839000701904297,-0.19200000166893005,-0.5110500454902649
1779996183638122800,9.150122802734375,10.431000709533691,-0.13305000960826874,-0.3150000274181366
1779996183655399700,9.167399658203125,7.426050186157227,-0.07005000114440918,-0.08700000494718552
1779996183672676900,9.1846767578125,5.889000415802002,-0.07304999977350235,0.08895000070333481
1779996183698592300,9.21059228515625,7.792050361633301,-0.09000000357627869,-0.07800000160932541
1779996183715869200,9.227869140625,10.819050788879395,-0.15195000171661377,-0.3150000274181366
1779996183733146400,9.245146484375,13.260000228881836,-0.16095000505447388,-0.5089499950408936
1779996183759061800,9.271061767578125,13.068000793457031,-0.17805001139640808,-0.48000001907348633
1779996183776338700,9.288338623046876,10.498050689697266,-0.11100000888109207,-0.29295000433921814
1779996183793615600,9.30561572265625,7.5450005531311035,-0.07500000298023224,-0.06405000388622284
1779996183819531000,9.331531005859375,6.0259504318237305,-0.0970500037074089,0.09795000404119492
1779996183836808200,9.34880810546875,7.72005033493042,-0.06795000284910202,-0.08505000174045563
1779996183854085000,9.366085205078125,10.713000297546387,-0.10605000704526901,-0.34800001978874207
1779996183871362000,9.383362060546874,13.183050155639648,-0.14205001294612885,-0.5179499983787537
1779996183888639000,9.400638916015625,13.76400089263916,-0.208950012922287,-0.5179499983787537
1779996183905916000,9.417916015625,11.95995044708252,-0.19500000774860382,-0.3630000054836273
1779996183923192800,9.43519287109375,9.015000343322754,-0.13005000352859497,-0.17400000989437103
1779996183940470000,9.452469970703126,6.592950344085693,-0.031950000673532486,-0.006000000052154064
1779996183957746700,9.46974658203125,6.057000160217285,-0.022950001060962677,0.024000000208616257
1779996183983662000,9.495662109375,9.139050483703613,-0.13500000536441803,-0.16395001113414764
1779996184000939300,9.512939208984376,12.042000770568848,-0.21195000410079956,-0.34800001978874207
1779996184018216000,9.5302158203125,13.67400074005127,-0.18105000257492065,-0.49695003032684326
1779996184035492900,9.547492919921876,13.018050193786621,-0.1570500135421753,-0.5250000357627869
1779996184052769800,9.564769775390625,10.588950157165527,-0.10395000129938126,-0.3550500273704529
1779996184070047000,9.582046875,7.753050327301025,-0.10395000129938126,-0.0799500048160553
1779996184087324000,9.599323974609375,6.1650004386901855,-0.0580500029027462,0.09795000404119492
1779996184104600800,9.616600830078125,6.705000400543213,-0.08700000494718552,0.037950001657009125
1779996184121877800,9.633877685546874,9.0600004196167,-0.12300000339746475,-0.17805001139640808
1779996184139155000,9.651155029296875,11.866950988769531,-0.16095000505447388,-0.4030500054359436
1779996184156432000,9.668431884765624,13.534950256347656,-0.16395001113414764,-0.4990500211715698
1779996184173708800,9.685708740234375,12.999000549316406,-0.15195000171661377,-0.49695003032684326
1779996184190985700,9.70298583984375,10.70205020904541,-0.1469999998807907,-0.3240000009536743
1779996184208262700,9.7202626953125,7.8949503898620605,-0.0990000069141388,-0.08505000174045563
1779996184234178300,9.74617822265625,6.253050327301025,-0.06599999964237213,0.0499500036239624
1779996184251455200,9.763455322265624,7.693950176239014,-0.0970500037074089,-0.0799500048160553
1779996184268732200,9.780732177734375,10.434000968933105,-0.1279500126838684,-0.3079500198364258
1779996184294647600,9.8066474609375,13.446001052856445,-0.1969500035047531,-0.48705002665519714
1779996184311924500,9.823924560546875,12.970050811767578,-0.1879500150680542,-0.4540500342845917
1779996184329201400,9.841201416015625,10.723050117492676,-0.10200000554323196,-0.3240000009536743
1779996184346478300,9.858478271484374,7.957050323486328,-0.09000000357627869,-0.10905000567436218
1779996184363755300,9.87575537109375,6.366000175476074,-0.1279500126838684,0.06705000251531601
1779996184381032200,9.8930322265625,6.78000020980835,-0.06300000101327896,0.019050000235438347
1779996184398308900,9.910308837890625,8.964000701904297,-0.07500000298023224,-0.2050500065088272
1779996184415586000,9.9275859375,11.677950859069824,-0.16395001113414764,-0.39900001883506775
1779996184432863000,9.944863037109375,13.369950294494629,-0.208950012922287,-0.46605002880096436
1779996184458778400,9.9707783203125,12.007950782775879,-0.16395001113414764,-0.3940500319004059
1779996184476055300,9.98805517578125,9.357000350952148,-0.08700000494718552,-0.24795001745224
1779996184493332200,10.005332275390625,7.051950454711914,-0.07304999977350235,-0.043950002640485764
1779996184519247600,10.03124755859375,6.814950466156006,-0.09405000507831573,0.037950001657009125
1779996184536524500,10.048524658203124,8.952000617980957,-0.12105000764131546,-0.1469999998807907
1779996184553801500,10.065801513671875,11.57295036315918,-0.1469999998807907,-0.3720000088214874
1779996184571078400,10.083078369140624,13.252050399780273,-0.17295001447200775,-0.5010000467300415
1779996184588355300,10.100355224609375,12.883950233459473,-0.15195000171661377,-0.4729500114917755
1779996184605632300,10.11763232421875,10.819050788879395,-0.14505000412464142,-0.3169500231742859
1779996184622909200,10.1349091796875,8.182050704956055,-0.0990000069141388,-0.10200000554323196
1779996184648824600,10.160824462890625,6.445050239562988,-0.09000000357627869,0.05505000427365303
1779996184666101800,10.178101806640624,7.684050559997559,-0.06300000101327896,-0.07304999977350235
1779996184683378700,10.195378662109375,10.189050674438477,-0.10395000129938126,-0.286050021648407
1779996184709294000,10.221294189453126,13.153950691223145,-0.2070000171661377,-0.4510500133037567
1779996184726571000,10.238571044921875,12.891000747680664,-0.17595000565052032,-0.4440000355243683
1779996184743848000,10.255847900390625,10.857000350952148,-0.11595000326633453,-0.3360000252723694
1779996184761124900,10.273124755859374,8.236949920654297,-0.10395000129938126,-0.1380000114440918
1779996184778401800,10.29040185546875,6.643050193786621,-0.09000000357627869,0.013950000517070293
1779996184795678700,10.3076787109375,6.880050182342529,-0.07304999977350235,0.0070500001311302185
1779996184812955600,10.32495556640625,8.866050720214844,-0.11595000326633453,-0.15000000596046448
1779996184830232600,10.342232666015626,11.40000057220459,-0.14205001294612885,-0.35295000672340393
1779996184847509500,10.359509521484375,13.075050354003906,-0.1570500135421753,-0.47805002331733704
1779996184864786400,10.376786376953126,12.843000411987305,-0.1570500135421753,-0.4630500078201294
1779996184882063400,10.3940634765625,10.891050338745117,-0.15405000746250153,-0.3150000274181366
1779996184899340300,10.41134033203125,8.35200023651123,-0.11400000751018524,-0.10905000567436218
1779996184916617200,10.4286171875,6.724950313568115,-0.07800000160932541,0.025950001552700996
1779996184933894100,10.44589404296875,6.910950183868408,-0.05100000277161598,-0.030000001192092896
1779996184951171000,10.463171142578124,8.791950225830078,-0.08205000311136246,-0.1879500150680542
1779996184968448000,10.480447998046875,11.326050758361816,-0.16395001113414764,-0.34095001220703125
1779996184994363600,10.50636376953125,13.164000511169434,-0.20400001108646393,-0.4440000355243683
1779996185011640300,10.523640380859375,12.015000343322754,-0.19995000958442688,-0.36705002188682556
1779996185028917200,10.540917236328125,9.628950119018555,-0.09195000678300858,-0.23805001378059387
1779996185046194400,10.5581943359375,7.438050270080566,-0.07800000160932541,-0.06599999964237213
1779996185063471000,10.57547119140625,6.660000324249268,-0.043950002640485764,0.013950000517070293
1779996185080748000,10.592748046875,7.686000347137451,-0.10905000567436218,-0.04200000315904617
1779996185106663700,10.61866357421875,11.259000778198242,-0.17100000381469727,-0.3169500231742859
1779996185123940400,10.6359404296875,12.891000747680664,-0.16095000505447388,-0.45600003004074097
1779996185141217300,10.65321728515625,12.781050682067871,-0.16905000805854797,-0.46800002455711365
1779996185158494200,10.670494140625,10.933950424194336,-0.12300000339746475,-0.3439500033855438
1779996185175771400,10.687771484375,8.533950805664062,-0.0990000069141388,-0.14295001327991486
1779996185193048300,10.70504833984375,6.916050434112549,-0.0799500048160553,0
1779996185218963700,10.730963623046875,7.7149505615234375,-0.13500000536441803,-0.05205000191926956
1779996185236240600,10.74824072265625,9.960000038146973,-0.12300000339746475,-0.24105000495910645
1779996185253517600,10.765517578125,12.124950408935547,-0.13005000352859497,-0.41100001335144043
1779996185279433000,10.791432861328126,12.712050437927246,-0.19500000774860382,-0.4420500099658966
1779996185296710000,10.8087099609375,11.00100040435791,-0.17805001139640808,-0.2959500253200531
1779996185313986800,10.82598681640625,8.596050262451172,-0.06105000153183937,-0.13095000386238098
1779996185339902200,10.851902099609376,6.787050247192383,-0.10905000567436218,0.016950000077486038
1779996185357179100,10.86917919921875,7.686000347137451,-0.09000000357627869,-0.05400000140070915
1779996185374456000,10.8864560546875,9.897000312805176,-0.10395000129938126,-0.22905001044273376
1779996185391732700,10.903732666015625,12.042000770568848,-0.1279500126838684,-0.41505002975463867
1779996185409010000,10.921010009765626,12.93600082397461,-0.18105000257492065,-0.45600003004074097
1779996185426286800,10.938286865234375,12.00105094909668,-0.17805001139640808,-0.37905001640319824
1779996185443563800,10.955563720703125,9.853950500488281,-0.1489500105381012,-0.23295001685619354
1779996185460840700,10.9728408203125,7.749000549316406,-0.07800000160932541,-0.08700000494718552
1779996185478117600,10.99011767578125,6.847050189971924,-0.034950003027915955,-0.022950001060962677
1779996185495394600,11.00739453125,7.701000213623047,-0.0970500037074089,-0.043950002640485764
1779996185512671200,11.024671142578125,9.811050415039062,-0.1489500105381012,-0.19305001199245453
1779996185529948200,11.0419482421875,11.967000961303711,-0.13500000536441803,-0.3940500319004059
1779996185547225000,11.05922509765625,12.879000663757324,-0.17295001447200775,-0.45795002579689026
1779996185564501800,11.076501708984376,12.00105094909668,-0.15900000929832458,-0.40095001459121704
1779996185581778700,11.09377880859375,9.897000312805176,-0.12495000660419464,-0.22395001351833344
1779996185599056000,11.111055908203125,7.807950496673584,-0.0990000069141388,-0.05205000191926956
1779996185616332800,11.128332763671875,6.922950267791748,-0.08205000311136246,0.016950000077486038
1779996185642248200,11.154248291015625,8.641050338745117,-0.05595000088214874,-0.1660500019788742
1779996185659525000,11.171525146484376,10.906950950622559,-0.16095000505447388,-0.30000001192092896
1779996185676802000,11.188802001953125,12.534000396728516,-0.1879500150680542,-0.3840000033378601
1779996185694078700,11.20607861328125,12.604050636291504,-0.1660500019788742,-0.4300500154495239
1779996185711356000,11.22335595703125,11.083950996398926,-0.11595000326633453,-0.35805001854896545
1779996185728632800,11.2406328125,8.839950561523438,-0.0990000069141388,-0.17400000989437103
1779996185754548000,11.2665478515625,7.012050151824951,-0.0970500037074089,0.024000000208616257
1779996185771825000,11.283824951171875,7.7149505615234375,-0.09000000357627869,-0.06405000388622284
1779996185789101800,11.301101806640625,9.711000442504883,-0.11400000751018524,-0.2530499994754791
1779996185806378800,11.318378662109374,11.773950576782227,-0.16095000505447388,-0.37905001640319824
1779996185823655700,11.33565576171875,12.757050514221191,-0.19005000591278076,-0.42000001668930054
1779996185840932600,11.3529326171875,11.98905086517334,-0.15900000929832458,-0.38700002431869507
1779996185858209500,11.37020947265625,10.02405071258545,-0.10605000704526901,-0.2650500237941742
1779996185884125000,11.396125,7.308000564575195,-0.046950001269578934,-0.05895000323653221
1779996185901401900,11.41340185546875,7.191000461578369,-0.11805000901222229,0.013950000517070293
1779996185918678500,11.430678466796875,8.614950180053711,-0.1399500072002411,-0.09195000678300858
1779996185935955500,11.44795556640625,10.737000465393066,-0.13005000352859497,-0.28395000100135803
1779996185953232400,11.465232421875,12.348000526428223,-0.13695000112056732,-0.4300500154495239
1779996185970509300,11.48250927734375,12.502950668334961,-0.1279500126838684,-0.4420500099658966
1779996185987786200,11.4997861328125,11.142000198364258,-0.13695000112056732,-0.32895001769065857
1779996186005063200,11.517063232421876,9.040950775146484,-0.1399500072002411,-0.1380000114440918
1779996186022340000,11.534340087890625,7.3969502449035645,-0.0970500037074089,-0.013050000183284283
1779996186039617000,11.551616943359376,7.207950115203857,-0.06795000284910202,-0.034950003027915955
1779996186056894000,11.56889404296875,8.554950714111328,-0.08505000174045563,-0.1570500135421753
1779996186074171000,11.5861708984375,10.70205020904541,-0.13305000960826874,-0.286050021648407
1779996186091447800,11.60344775390625,12.304950714111328,-0.16095000505447388,-0.40800002217292786
1779996186108724700,11.620724853515625,12.50100040435791,-0.15195000171661377,-0.42195001244544983
1779996186126001700,11.638001708984374,11.14905071258545,-0.17100000381469727,-0.3240000009536743
1779996186143278600,11.655278564453125,9.06195068359375,-0.13005000352859497,-0.15405000746250153
1779996186160555500,11.672555419921874,7.4569501876831055,-0.08505000174045563,-0.043950002640485764
1779996186177832200,11.689832275390625,7.25100040435791,-0.07304999977350235,-0.04200000315904617
1779996186195109000,11.707109130859376,8.557050704956055,-0.06300000101327896,-0.15195000171661377
1779996186212386000,11.724385986328125,10.615050315856934,-0.16095000505447388,-0.27195000648498535
1779996186238301200,11.75030126953125,12.565950393676758,-0.19005000591278076,-0.38700002431869507
1779996186255578400,11.767578369140624,11.946000099182129,-0.13500000536441803,-0.40095001459121704
1779996186272855300,11.784855224609375,10.12695026397705,-0.08205000311136246,-0.3049500286579132
1779996186290132200,11.80213232421875,8.20995044708252,-0.08505000174045563,-0.12105000764131546
1779996186307409200,11.8194091796875,7.267950534820557,-0.11400000751018524,0.024000000208616257
1779996186324685800,11.836685791015626,7.789050579071045,-0.11100000888109207,-0.028050001710653305
1779996186341962800,11.853962646484375,9.517050743103027,-0.12300000339746475,-0.20205001533031464
1779996186359239700,11.87123974609375,11.434050559997559,-0.12300000339746475,-0.3840000033378601
1779996186376516600,11.8885166015625,12.466950416564941,-0.13695000112056732,-0.44895002245903015
1779996186393793500,11.90579345703125,11.946000099182129,-0.17100000381469727,-0.37905001640319824
1779996186411070200,11.9230703125,10.234950065612793,-0.1489500105381012,-0.23805001378059387
1779996186428347100,11.94034716796875,8.337000846862793,-0.11595000326633453,-0.10200000554323196
1779996186445624000,11.9576240234375,7.2960004806518555,-0.07005000114440918,-0.037050001323223114
1779996186462901000,11.97490087890625,7.770000457763672,-0.07005000114440918,-0.08700000494718552
1779996186488816000,12.000816162109375,10.46505069732666,-0.12300000339746475,-0.2689500153064728
1779996186506093000,12.018093017578124,12.082050323486328,-0.18105000257492065,-0.3550500273704529
1779996186523370000,12.035369873046875,12.37695026397705,-0.19995000958442688,-0.36705002188682556
1779996186540647000,12.05264697265625,11.166000366210938,-0.13500000536441803,-0.3150000274181366
1779996186557923800,12.069923828125,9.256050109863281,-0.10200000554323196,-0.22095000743865967
1779996186575200800,12.08720068359375,7.702950477600098,-0.06599999964237213,-0.07800000160932541
1779996186592477700,12.104477783203125,7.408950328826904,-0.0970500037074089,0
1779996186618393000,12.13039306640625,9.448050498962402,-0.11400000751018524,-0.18105000257492065
1779996186635670000,12.147669921875,11.283000946044922,-0.13500000536441803,-0.34800001978874207
1779996186652946700,12.16494677734375,12.348000526428223,-0.15900000929832458,-0.4459500312805176
1779996186678862000,12.190862060546875,11.227950096130371,-0.1469999998807907,-0.31200000643730164
1779996186696138800,12.208138671875,9.342000007629395,-0.11400000751018524,-0.17400000989437103
1779996186713415700,12.225415771484375,7.7560505867004395,-0.08505000174045563,-0.07095000147819519
1779996186730692600,12.242692626953126,7.426050186157227,-0.09405000507831573,-0.034950003027915955
1779996186756608000,12.26860791015625,9.373050689697266,-0.11595000326633453,-0.1980000138282776
1779996186773884700,12.285884765625,11.27595043182373,-0.1469999998807907,-0.3169500231742859
1779996186791161600,12.30316162109375,12.288000106811523,-0.15900000929832458,-0.40800002217292786
1779996186808438500,12.3204384765625,11.920050621032715,-0.17295001447200775,-0.38700002431869507
1779996186825715500,12.337715576171876,10.330950736999512,-0.10905000567436218,-0.2670000195503235
1779996186842992400,12.354992431640625,8.50200080871582,-0.10200000554323196,-0.1279500126838684
1779996186868907800,12.38090771484375,7.462050437927246,-0.0799500048160553,-0.034950003027915955
1779996186886184700,12.398184814453124,8.493000030517578,-0.06599999964237213,-0.1399500072002411
1779996186903461400,12.41546142578125,10.314000129699707,-0.13005000352859497,-0.2530499994754791
1779996186929376800,12.441376708984375,12.255000114440918,-0.17295001447200775,-0.3720000088214874
1779996186946653700,12.45865380859375,11.887950897216797,-0.16395001113414764,-0.3550500273704529
1779996186963930400,12.475930419921875,10.347000122070312,-0.11595000326633453,-0.286050021648407
1779996186989845800,12.501845703125,7.887000560760498,-0.08205000311136246,-0.08700000494718552
1779996187007122700,12.519122802734374,7.5259504318237305,-0.10605000704526901,-0.028050001710653305
1779996187024399600,12.536399658203125,8.50005054473877,-0.13500000536441803,-0.11595000326633453
1779996187050315000,12.56231494140625,11.143950462341309,-0.12495000660419464,-0.3460500240325928
1779996187067592000,12.579592041015625,12.207000732421875,-0.1570500135421753,-0.40605002641677856
1779996187093507000,12.605507080078125,11.235000610351562,-0.1489500105381012,-0.31200000643730164
1779996187110784300,12.6227841796875,9.454950332641602,-0.11595000326633453,-0.19305001199245453
1779996187128061000,12.64006103515625,7.914000511169434,-0.09195000678300858,-0.07304999977350235
1779996187145337900,12.657337890625,7.531050205230713,-0.0990000069141388,-0.031950000673532486
1779996187162614800,12.67461474609375,8.482950210571289,-0.10200000554323196,-0.11100000888109207
1779996187179891500,12.691891357421875,10.21095085144043,-0.12300000339746475,-0.24105000495910645
1779996187197168400,12.70916845703125,11.757000923156738,-0.15195000171661377,-0.35805001854896545
1779996187214445300,12.7264453125,12.166050910949707,-0.1489500105381012,-0.3910500109195709
1779996187231722200,12.74372216796875,11.257050514221191,-0.1469999998807907,-0.32895001769065857
1779996187248999000,12.7609990234375,9.493050575256348,-0.12105000764131546,-0.19995000958442688
1779996187266275800,12.77827587890625,8.006999969482422,-0.11400000751018524,-0.06105000153183937
1779996187283552800,12.795552734375,7.593000411987305,-0.0580500029027462,-0.04200000315904617
1779996187300829700,12.81282958984375,8.479050636291504,-0.10200000554323196,-0.1399500072002411
1779996187326745000,12.8387451171875,11.017050743103027,-0.15900000929832458,-0.3049500286579132
1779996187344022000,12.85602197265625,12.085050582885742,-0.1660500019788742,-0.3820500075817108
1779996187361299000,12.873298828125,11.842950820922852,-0.15405000746250153,-0.3630000054836273
1779996187378575600,12.89057568359375,10.450050354003906,-0.13695000112056732,-0.2650500237941742
1779996187395852500,12.9078525390625,8.71500015258789,-0.08700000494718552,-0.15000000596046448
1779996187413129200,12.925129150390624,7.663050174713135,-0.08700000494718552,-0.06105000153183937
1779996187439044600,12.951044677734375,8.467050552368164,-0.12300000339746475,-0.0990000069141388
1779996187456321300,12.9683212890625,10.13700008392334,-0.13695000112056732,-0.23295001685619354
1779996187473598200,12.98559814453125,11.641950607299805,-0.13695000112056732,-0.3630000054836273
1779996187499513600,13.011513671875,11.817000389099121,-0.1469999998807907,-0.37005001306533813
1779996187516790500,13.02879052734375,10.47705078125,-0.10905000567436218,-0.2880000174045563
1779996187534067500,13.0460673828125,8.773050308227539,-0.11805000901222229,-0.1570500135421753
1779996187551344000,13.06334423828125,7.729950428009033,-0.10905000567436218,-0.034950003027915955
1779996187568621000,13.08062109375,7.914000511169434,-0.11100000888109207,-0.04005000367760658
1779996187585898000,13.09789794921875,9.223050117492676,-0.10200000554323196,-0.17595000565052032
1779996187603174700,13.115174560546874,10.903050422668457,-0.1399500072002411,-0.3240000009536743
1779996187620451600,13.13245166015625,11.955000877380371,-0.15195000171661377,-0.3840000033378601
1779996187637728500,13.149728515625,11.778000831604004,-0.17595000565052032,-0.36705002188682556
1779996187655005200,13.167005126953125,10.510050773620605,-0.1570500135421753,-0.25995001196861267
1779996187672282000,13.1842822265625,8.845050811767578,-0.14205001294612885,-0.1570500135421753
1779996187689559000,13.20155908203125,7.789050579071045,-0.09405000507831573,-0.06795000284910202
1779996187706836000,13.2188359375,7.930950164794922,-0.07800000160932541,-0.08505000174045563
1779996187724113000,13.23611279296875,9.177000045776367,-0.11100000888109207,-0.17595000565052032
1779996187741389800,13.253389892578125,10.85205078125,-0.16395001113414764,-0.27900001406669617
1779996187758666500,13.27066650390625,11.899950981140137,-0.16095000505447388,-0.3630000054836273
1779996187784582000,13.296581787109375,11.257050514221191,-0.12300000339746475,-0.34095001220703125
1779996187801858800,13.31385888671875,9.700950622558594,-0.11400000751018524,-0.22095000743865967
1779996187819135700,13.3311357421875,8.254050254821777,-0.09405000507831573,-0.09195000678300858
1779996187836412400,13.348412353515625,7.750950336456299,-0.10605000704526901,-0.031950000673532486
1779996187853689300,13.365689453125,8.445000648498535,-0.10605000704526901,-0.0970500037074089
1779996187870966300,13.38296630859375,9.960000038146973,-0.12300000339746475,-0.23295001685619354
1779996187888243200,13.4002431640625,11.431050300598145,-0.13500000536441803,-0.34800001978874207
1779996187905520000,13.41752001953125,11.96505069732666,-0.12300000339746475,-0.3840000033378601
1779996187922797000,13.434797119140624,11.284950256347656,-0.13005000352859497,-0.3340500295162201
1779996187948712200,13.460712158203124,8.986050605773926,-0.1469999998807907,-0.1399500072002411
1779996187965989000,13.477989013671875,7.891950607299805,-0.09000000357627869,-0.0799500048160553
1779996187983266000,13.49526611328125,7.942050457000732,-0.09000000357627869,-0.10200000554323196
1779996188009181200,13.52118115234375,9.937950134277344,-0.13500000536441803,-0.22095000743865967
1779996188026457900,13.538457763671875,11.383050918579102,-0.1570500135421753,-0.31005001068115234
1779996188043734800,13.55573486328125,11.94105052947998,-0.1570500135421753,-0.36705002188682556
1779996188069650200,13.581650146484375,10.551000595092773,-0.1570500135421753,-0.29100000858306885
1779996188086927000,13.598927001953125,9.003000259399414,-0.11805000901222229,-0.16905000805854797
1779996188104203800,13.616203857421874,7.963950157165527,-0.07800000160932541,-0.07800000160932541
1779996188121480700,13.633480712890625,8.032950401306152,-0.11100000888109207,-0.07095000147819519
1779996188138757600,13.650757568359374,9.115050315856934,-0.10200000554323196,-0.15405000746250153
1779996188156034600,13.66803466796875,10.669950485229492,-0.13695000112056732,-0.2770500183105469
1779996188173311200,13.685311279296876,11.716050148010254,-0.18300001323223114,-0.35805001854896545
1779996188190588200,13.702588134765625,11.6850004196167,-0.1489500105381012,-0.37005001306533813
1779996188207865000,13.719864990234376,10.599000930786133,-0.12300000339746475,-0.30300000309944153
1779996188225142000,13.73714208984375,9.093000411987305,-0.10605000704526901,-0.15900000929832458
1779996188242419000,13.7544189453125,8.062050819396973,-0.11100000888109207,-0.06405000388622284
1779996188268334000,13.780333984375,8.449950218200684,-0.10605000704526901,-0.0990000069141388
1779996188285611000,13.797611083984375,9.829950332641602,-0.15195000171661377,-0.21000000834465027
1779996188302887700,13.8148876953125,11.206050872802734,-0.13005000352859497,-0.31995001435279846
1779996188328803000,13.840802978515624,11.668050765991211,-0.1570500135421753,-0.3750000298023224
1779996188346079700,13.858079833984375,10.648950576782227,-0.10200000554323196,-0.3240000009536743
1779996188363356700,13.875356689453126,9.177000045776367,-0.10605000704526901,-0.1879500150680542
1779996188389272000,13.90127197265625,7.959000587463379,-0.13305000960826874,-0.034950003027915955
1779996188406549000,13.918549072265625,8.467050552368164,-0.10395000129938126,-0.10695000737905502
1779996188423825700,13.93582568359375,9.782999992370605,-0.09405000507831573,-0.25005000829696655
1779996188441102300,13.953102294921875,11.146950721740723,-0.11805000901222229,-0.34800001978874207
1779996188458379300,13.970379150390626,11.778000831604004,-0.18495000898838043,-0.3240000009536743
1779996188475656200,13.98765625,11.269050598144531,-0.16395001113414764,-0.28395000100135803
1779996188492932900,14.004932861328125,9.92400074005127,-0.1279500126838684,-0.2050500065088272
1779996188510209800,14.022209716796874,8.569050788879395,-0.09000000357627869,-0.1399500072002411
1779996188527486700,14.03948681640625,7.945050239562988,-0.07005000114440918,-0.09495000541210175
1779996188544763600,14.056763671875,8.467050552368164,-0.10395000129938126,-0.10905000567436218
1779996188562040300,14.074040283203125,9.780000686645508,-0.11805000901222229,-0.20205001533031464
1779996188579317200,14.091317138671876,11.143950462341309,-0.17595000565052032,-0.2959500253200531
1779996188596594200,14.10859423828125,11.758950233459473,-0.16395001113414764,-0.34800001978874207
1779996188613871000,14.12587109375,11.239950180053711,-0.13005000352859497,-0.33195000886917114
1779996188639786200,14.1517861328125,9.226950645446777,-0.07800000160932541,-0.2070000171661377
1779996188657063200,14.169063232421875,8.19105052947998,-0.09000000357627869,-0.09195000678300858
1779996188674340000,14.186340087890626,8.12700080871582,-0.13695000112056732,-0.04200000315904617
1779996188691617000,14.203616943359375,9.043050765991211,-0.13695000112056732,-0.12600000202655792
1779996188708893700,14.220893798828126,10.450050354003906,-0.0990000069141388,-0.2880000174045563
1779996188726170600,14.238170654296875,11.503050804138184,-0.12105000764131546,-0.36705002188682556
1779996188743447600,14.255447509765625,11.596050262451172,-0.16395001113414764,-0.33900001645088196
1779996188760724500,14.272724365234374,10.67805004119873,-0.14205001294612885,-0.2670000195503235
1779996188778001200,14.290001220703125,9.294000625610352,-0.12495000660419464,-0.1860000044107437
1779996188795278000,14.307278076171874,8.244000434875488,-0.09195000678300858,-0.11100000888109207
1779996188812554800,14.3245546875,8.138999938964844,-0.11595000326633453,-0.0990000069141388
1779996188829831700,14.341831787109374,9.03600025177002,-0.0970500037074089,-0.1469999998807907
1779996188847108400,14.3591083984375,10.4170503616333,-0.1279500126838684,-0.2569500207901001
1779996188864385300,14.37638525390625,11.461950302124023,-0.1469999998807907,-0.33195000886917114
1779996188881662200,14.393662109375,11.556000709533691,-0.14205001294612885,-0.364950031042099
1779996188898939100,14.410939208984376,10.681950569152832,-0.11100000888109207,-0.2959500253200531
1779996188924854300,14.436854248046876,8.72504997253418,-0.13305000960826874,-0.10905000567436218
1779996188942131200,14.454131103515625,8.110050201416016,-0.07304999977350235,-0.06795000284910202
1779996188959407900,14.471407958984376,8.47095012664795,-0.09000000357627869,-0.1279500126838684
1779996188976684800,14.488684814453125,9.685050010681152,-0.1279500126838684,-0.20205001533031464
1779996188993961700,14.505961669921875,10.96500015258789,-0.1660500019788742,-0.27900001406669617
1779996189011238400,14.52323828125,11.613000869750977,-0.1489500105381012,-0.35805001854896545
1779996189028515300,14.540515380859375,11.223000526428223,-0.1469999998807907,-0.33900001645088196
1779996189045792000,14.5577919921875,10.065000534057617,-0.12105000764131546,-0.2650500237941742
1779996189063069000,14.57506884765625,8.797050476074219,-0.0799500048160553,-0.15405000746250153
1779996189088984300,14.600984375,8.22195053100586,-0.14505000412464142,-0.05205000191926956
1779996189106261200,14.61826123046875,8.986050605773926,-0.11100000888109207,-0.14295001327991486
1779996189123538000,14.635537841796875,10.285050392150879,-0.12105000764131546,-0.2689500153064728
1779996189149453300,14.661453369140625,11.557950973510742,-0.12105000764131546,-0.3630000054836273
1779996189166730000,14.67872998046875,11.239950180053711,-0.1570500135421753,-0.30300000309944153
1779996189184007000,14.6960068359375,10.102950096130371,-0.1279500126838684,-0.22395001351833344
1779996189201283800,14.713283935546874,8.827950477600098,-0.12105000764131546,-0.13095000386238098
1779996189218560800,14.730560791015625,8.17199993133545,-0.0990000069141388,-0.07800000160932541
1779996189244476200,14.75647607421875,8.991000175476074,-0.09195000678300858,-0.15405000746250153
1779996189261752800,14.7737529296875,10.254000663757324,-0.12300000339746475,-0.24300001561641693
1779996189279029500,14.791029541015625,11.316000938415527,-0.1660500019788742,-0.322050005197525
1779996189296306400,14.808306396484374,11.524950981140137,-0.1570500135421753,-0.32895001769065857
1779996189313583000,14.8255830078125,10.723050117492676,-0.13695000112056732,-0.29295000433921814
1779996189330860000,14.842860107421876,9.481050491333008,-0.12300000339746475,-0.1860000044107437
1779996189348137000,14.860136962890625,8.413949966430664,-0.06795000284910202,-0.13095000386238098
1779996189374052000,14.886052001953125,8.51205062866211,-0.09195000678300858,-0.12105000764131546
1779996189391329000,14.9033291015625,9.559950828552246,-0.15405000746250153,-0.16395001113414764
1779996189408606000,14.92060595703125,10.81605052947998,-0.15900000929832458,-0.27195000648498535
1779996189425882600,14.937882568359376,11.491050720214844,-0.13500000536441803,-0.35100001096725464
1779996189451797800,14.9637978515625,10.747050285339355,-0.13005000352859497,-0.2880000174045563
1779996189469074700,14.98107470703125,9.502950668334961,-0.10605000704526901,-0.20205001533031464
1779996189486351600,14.9983515625,8.48805046081543,-0.09195000678300858,-0.1279500126838684
1779996189512266800,15.024266845703124,8.52405071258545,-0.14205001294612885,-0.09495000541210175
1779996189529543400,15.04154345703125,9.546000480651855,-0.13500000536441803,-0.1879500150680542
1779996189546820600,15.058820556640624,10.741950035095215,-0.11400000751018524,-0.31200000643730164
1779996189564097300,15.07609716796875,11.452950477600098,-0.13500000536441803,-0.35100001096725464
1779996189590012400,15.102012451171875,10.76400089263916,-0.12105000764131546,-0.2740500271320343
1779996189607289300,15.119289306640624,9.546000480651855,-0.12300000339746475,-0.19305001199245453
1779996189624566300,15.136566162109375,8.506950378417969,-0.08505000174045563,-0.1189500093460083
1779996189641843200,15.15384326171875,8.277000427246094,-0.10605000704526901,-0.09000000357627869
1779996189659119900,15.171119873046875,8.952000617980957,-0.10905000567436218,-0.13095000386238098
1779996189676396800,15.188396728515626,10.15095043182373,-0.1279500126838684,-0.23295001685619354
1779996189693673700,15.205673828125,11.178000450134277,-0.13695000112056732,-0.3169500231742859
1779996189710950700,15.22295068359375,11.434050559997559,-0.16395001113414764,-0.32895001769065857
1779996189736865500,15.248865478515626,10.189050674438477,-0.11595000326633453,-0.2569500207901001
1779996189754142500,15.266142578125,8.995050430297852,-0.11100000888109207,-0.18300001323223114
1779996189771419100,15.283419189453125,8.332950592041016,-0.07800000160932541,-0.1189500093460083
1779996189788696000,15.300696044921875,8.548050880432129,-0.13695000112056732,-0.0799500048160553
1779996189814611500,15.326611572265625,10.132050514221191,-0.13005000352859497,-0.21195000410079956
1779996189831888100,15.34388818359375,11.110950469970703,-0.13005000352859497,-0.30300000309944153
1779996189849165000,15.3611650390625,11.355000495910645,-0.1279500126838684,-0.34800001978874207
1779996189866442000,15.37844189453125,10.7160005569458,-0.11595000326633453,-0.29295000433921814
1779996189883718400,15.395718505859374,9.618000030517578,-0.16395001113414764,-0.16200000047683716
1779996189900995300,15.412995361328125,8.614950180053711,-0.1469999998807907,-0.07800000160932541
1779996189926910700,15.43891064453125,8.601000785827637,-0.06795000284910202,-0.17805001139640808
1779996189944187400,15.4561875,9.517050743103027,-0.07800000160932541,-0.24300001561641693
1779996189961464300,15.47346435546875,10.69005012512207,-0.16395001113414764,-0.2550000250339508
1779996189987379700,15.499379638671876,11.356950759887695,-0.16905000805854797,-0.2689500153064728
1779996190004656400,15.516656494140625,10.693950653076172,-0.11595000326633453,-0.29805001616477966
1779996190021933300,15.533933349609375,9.535950660705566,-0.0970500037074089,-0.24495001137256622
1779996190039210000,15.5512099609375,8.62695026397705,-0.06795000284910202,-0.14505000412464142
1779996190056487000,15.56848681640625,8.413949966430664,-0.12300000339746475,-0.07605000585317612
1779996190073763800,15.585763916015624,9.040950775146484,-0.15405000746250153,-0.10395000129938126
1779996190091040800,15.603040771484375,10.13700008392334,-0.13305000960826874,-0.23100000619888306
1779996190116956000,15.628955810546875,11.295000076293945,-0.12495000660419464,-0.364950031042099
1779996190134232800,15.64623291015625,11.07705020904541,-0.12300000339746475,-0.3360000252723694
1779996190151509500,15.663509521484375,10.182000160217285,-0.1660500019788742,-0.21000000834465027
1779996190168786400,15.680786376953124,9.088950157165527,-0.11400000751018524,-0.15405000746250153
1779996190186063400,15.6980634765625,8.443050384521484,-0.0970500037074089,-0.1189500093460083
1779996190203339800,15.71533984375,8.632050514221191,-0.10395000129938126,-0.11595000326633453
1779996190229255200,15.741255126953124,10.093950271606445,-0.11805000901222229,-0.21405000984668732
1779996190246532000,15.758531982421875,11.03700065612793,-0.15900000929832458,-0.28395000100135803
1779996190263808800,15.775808837890626,11.245050430297852,-0.11400000751018524,-0.322050005197525
1779996190289724200,15.80172412109375,10.16295051574707,-0.15195000171661377,-0.23595000803470612
1779996190307000800,15.819000732421875,9.093000411987305,-0.10605000704526901,-0.16395001113414764
1779996190324277500,15.836277587890624,8.497950553894043,-0.09000000357627869,-0.11400000751018524
1779996190341554400,15.853554443359375,8.690999984741211,-0.08505000174045563,-0.13500000536441803
1779996190358831000,15.8708310546875,9.562050819396973,-0.10605000704526901,-0.19305001199245453
1779996190376108000,15.88810791015625,10.623000144958496,-0.14205001294612885,-0.24795001745224
1779996190393385000,15.905385009765626,11.214000701904297,-0.15900000929832458,-0.29100000858306885
1779996190410662000,15.922661865234375,11.01300048828125,-0.14505000412464142,-0.3049500286579132
1779996190427938600,15.9399384765625,10.117950439453125,-0.13695000112056732,-0.24105000495910645
1779996190445215200,15.95721533203125,9.109950065612793,-0.11400000751018524,-0.1879500150680542
1779996190462492200,15.9744921875,8.52405071258545,-0.09405000507831573,-0.1380000114440918
1779996190479769000,15.99176904296875,8.758049964904785,-0.13005000352859497,-0.13500000536441803
1779996190497045800,16.009045654296877,9.60105037689209,-0.1469999998807907,-0.18300001323223114
1779996190514322700,16.02632275390625,10.603050231933594,-0.15900000929832458,-0.28395000100135803
1779996190531599400,16.043599365234375,11.199000358581543,-0.13305000960826874,-0.3439500033855438
1779996190548876300,16.060876220703125,10.993050575256348,-0.13500000536441803,-0.322050005197525
1779996190566153000,16.078153076171876,10.158000946044922,-0.11400000751018524,-0.23805001378059387
1779996190583430000,16.095429931640624,9.127050399780273,-0.10905000567436218,-0.1570500135421753
1779996190609345300,16.12134521484375,8.538000106811523,-0.13500000536441803,-0.0799500048160553
1779996190626622000,16.1386220703125,9.0600004196167,-0.0970500037074089,-0.13500000536441803
1779996190643899000,16.15589892578125,10.053000450134277,-0.10605000704526901,-0.23100000619888306
1779996190669814300,16.181814208984374,11.13900089263916,-0.13305000960826874,-0.30000001192092896
1779996190687091000,16.199091064453125,10.998000144958496,-0.16095000505447388,-0.286050021648407
1779996190704367600,16.21636767578125,10.17300033569336,-0.11595000326633453,-0.23595000803470612
1779996190721644500,16.23364453125,9.181950569152832,-0.10200000554323196,-0.17400000989437103
1779996190738921200,16.250921142578125,8.578950881958008,-0.10200000554323196,-0.13095000386238098
1779996190756198100,16.2681982421875,8.730000495910645,-0.10905000567436218,-0.13305000960826874
1779996190773474800,16.285474853515623,9.558000564575195,-0.11595000326633453,-0.18300001323223114
1779996190790751700,16.302751708984374,10.515000343322754,-0.12495000660419464,-0.2770500183105469
1779996190816667000,16.3286669921875,11.167950630187988,-0.15195000171661377,-0.31005001068115234
1779996190833943800,16.34594384765625,10.639050483703613,-0.15195000171661377,-0.2550000250339508
1779996190851220700,16.363220703125,9.661050796508789,-0.12105000764131546,-0.18300001323223114
1779996190868497700,16.38049755859375,8.785050392150879,-0.08505000174045563,-0.15900000929832458
1779996190885774300,16.3977744140625,8.560050010681152,-0.10905000567436218,-0.11100000888109207
1779996190903051000,16.415051025390625,9.058050155639648,-0.1399500072002411,-0.1279500126838684
1779996190920328000,16.432327880859376,10.048050880432129,-0.13005000352859497,-0.21000000834465027
1779996190937604900,16.44960498046875,10.891050338745117,-0.0990000069141388,-0.31200000643730164
1779996190963519700,16.475519775390627,10.998000144958496,-0.18495000898838043,-0.2959500253200531
1779996190980796700,16.492796630859374,10.177050590515137,-0.11100000888109207,-0.24105000495910645
1779996190998073600,16.510073486328125,9.237000465393066,-0.09195000678300858,-0.16905000805854797
1779996191015350500,16.5273505859375,8.641050338745117,-0.0970500037074089,-0.10695000737905502
1779996191032627200,16.544627197265626,8.706000328063965,-0.0990000069141388,-0.11100000888109207
1779996191049904000,16.561904052734373,9.495000839233398,-0.14205001294612885,-0.17595000565052032
1779996191067180800,16.579180908203124,10.44795036315918,-0.11100000888109207,-0.25995001196861267
1779996191084457700,16.596457763671875,11.094000816345215,-0.12495000660419464,-0.30300000309944153
1779996191101734400,16.613734375,10.954950332641602,-0.13005000352859497,-0.3049500286579132
1779996191119011300,16.63101123046875,10.216050148010254,-0.12495000660419464,-0.24795001745224
1779996191136288000,16.6482880859375,9.253950119018555,-0.16095000505447388,-0.14505000412464142
1779996191153565000,16.66556494140625,8.634000778198242,-0.13500000536441803,-0.11400000751018524
1779996191170841600,16.682841552734374,8.743950843811035,-0.0970500037074089,-0.17805001139640808
1779996191188118500,16.700118408203124,9.499950408935547,-0.12300000339746475,-0.24495001137256622
1779996191205395500,16.7173955078125,10.495950698852539,-0.13305000960826874,-0.286050021648407
1779996191222672100,16.734672119140626,11.10105037689209,-0.16095000505447388,-0.3049500286579132
1779996191248587300,16.760587158203126,10.668000221252441,-0.18495000898838043,-0.24105000495910645
1779996191265864200,16.7778642578125,9.685050010681152,-0.10395000129938126,-0.22395001351833344
1779996191283141000,16.79514111328125,8.842050552368164,-0.07500000298023224,-0.17595000565052032
1779996191309056300,16.82105615234375,8.755949974060059,-0.08505000174045563,-0.1189500093460083
1779996191326333000,16.8383330078125,9.507000923156738,-0.1399500072002411,-0.13305000960826874
1779996191343609900,16.85560986328125,10.455000877380371,-0.1660500019788742,-0.21705001592636108
1779996191369525000,16.88152490234375,11.074950218200684,-0.12105000764131546,-0.31995001435279846
1779996191386802000,16.898802001953126,10.627050399780273,-0.13005000352859497,-0.29100000858306885
1779996191404078600,16.91607861328125,9.724950790405273,-0.0990000069141388,-0.20205001533031464
1779996191421355300,16.933355224609375,8.926050186157227,-0.12300000339746475,-0.14295001327991486
1779996191438632200,16.950632080078126,8.641050338745117,-0.11100000888109207,-0.10905000567436218
1779996191455909000,16.9679091796875,9.091050148010254,-0.11805000901222229,-0.16200000047683716
1779996191481824300,16.99382421875,10.4170503616333,-0.13500000536441803,-0.28095000982284546
1779996191499101000,17.011100830078124,11.020050048828125,-0.13695000112056732,-0.30300000309944153
1779996191516377900,17.0283779296875,10.921950340270996,-0.17295001447200775,-0.26205000281333923
1779996191533654800,17.04565478515625,10.216050148010254,-0.13305000960826874,-0.23805001378059387
1779996191550931500,17.062931396484377,9.283050537109375,-0.08700000494718552,-0.1879500150680542
1779996191568208400,17.08020849609375,8.701050758361816,-0.08505000174045563,-0.1380000114440918
1779996191585485300,17.0974853515625,8.81100082397461,-0.13305000960826874,-0.12105000764131546
1779996191602762000,17.114761962890626,9.498000144958496,-0.14205001294612885,-0.15405000746250153
1779996191620038700,17.13203857421875,10.393050193786621,-0.11100000888109207,-0.26205000281333923
1779996191645953800,17.157953857421877,11.046000480651855,-0.1489500105381012,-0.3049500286579132
1779996191663230700,17.175230712890624,10.627050399780273,-0.1489500105381012,-0.28095000982284546
1779996191680507600,17.192507568359375,9.766050338745117,-0.10605000704526901,-0.21000000834465027
1779996191697784300,17.209784423828125,8.950050354003906,-0.11805000901222229,-0.13305000960826874
1779996191715061200,17.227061279296876,8.677050590515137,-0.13305000960826874,-0.0970500037074089
1779996191732338000,17.244337890625,9.07395076751709,-0.11805000901222229,-0.15405000746250153
1779996191749614800,17.26161474609375,9.955050468444824,-0.08700000494718552,-0.25995001196861267
1779996191766891800,17.278891845703125,10.756950378417969,-0.10395000129938126,-0.30000001192092896
1779996191784168400,17.29616845703125,11.062950134277344,-0.1570500135421753,-0.28095000982284546
1779996191801445400,17.3134453125,10.620000839233398,-0.1660500019788742,-0.21195000410079956
1779996191827360500,17.339360595703123,9.30405044555664,-0.1279500126838684,-0.15900000929832458
1779996191844637200,17.35663720703125,8.682000160217285,-0.06105000153183937,-0.16200000047683716
1779996191861914000,17.3739140625,8.779950141906738,-0.06300000101327896,-0.1879500150680542
1779996191879190800,17.391190673828124,9.510000228881836,-0.14505000412464142,-0.2050500065088272
1779996191896467700,17.4084677734375,10.45995044708252,-0.19200000166893005,-0.22605000436306
1779996191913744400,17.425744384765625,11.041050910949707,-0.1489500105381012,-0.29100000858306885
1779996191939659800,17.45165966796875,10.624950408935547,-0.11400000751018524,-0.3169500231742859
1779996191956936700,17.468936767578125,9.712950706481934,-0.14205001294612885,-0.21000000834465027
1779996191974213400,17.48621337890625,8.9239501953125,-0.08205000311136246,-0.14505000412464142
1779996191991490300,17.503490234375,8.670000076293945,-0.09195000678300858,-0.12300000339746475
1779996192008767000,17.52076708984375,9.121950149536133,-0.12495000660419464,-0.13500000536441803
1779996192026044000,17.5380439453125,9.967050552368164,-0.13500000536441803,-0.2050500065088272
1779996192043320600,17.555320556640623,10.759050369262695,-0.11400000751018524,-0.30000001192092896
1779996192069236000,17.581236083984376,10.900050163269043,-0.13500000536441803,-0.30000001192092896
1779996192086512600,17.5985126953125,10.19205093383789,-0.12495000660419464,-0.22605000436306
1779996192103789300,17.615789306640625,9.301950454711914,-0.13695000112056732,-0.16395001113414764
1779996192129704700,17.64170458984375,8.668050765991211,-0.10200000554323196,-0.1279500126838684
1779996192146981400,17.6589814453125,9.091050148010254,-0.12495000660419464,-0.16200000047683716
1779996192164258300,17.67625830078125,9.969000816345215,-0.11400000751018524,-0.23295001685619354
1779996192181535200,17.69353515625,10.777950286865234,-0.11400000751018524,-0.29295000433921814
1779996192207450400,17.719450439453126,10.912050247192383,-0.1469999998807907,-0.30000001192092896
1779996192224727000,17.73672705078125,10.22295093536377,-0.17805001139640808,-0.2050500065088272
1779996192242004000,17.75400390625,9.306000709533691,-0.13005000352859497,-0.1380000114440918
1779996192259280600,17.77128076171875,8.69895076751709,-0.07800000160932541,-0.15405000746250153
1779996192276557600,17.7885576171875,8.782050132751465,-0.07005000114440918,-0.18300001323223114
1779996192293834200,17.805834228515625,9.493050575256348,-0.11100000888109207,-0.1879500150680542
1779996192311111200,17.823111083984376,10.414050102233887,-0.18300001323223114,-0.19500000774860382
1779996192328387800,17.840387939453127,11.005050659179688,-0.15900000929832458,-0.28095000982284546
1779996192345664800,17.857664794921874,10.897950172424316,-0.11100000888109207,-0.33195000886917114
1779996192362941700,17.874941650390625,10.206000328063965,-0.1399500072002411,-0.2770500183105469
1779996192388856600,17.900856689453125,8.979000091552734,-0.08205000311136246,-0.14295001327991486
1779996192406133500,17.918133544921876,8.719950675964355,-0.10200000554323196,-0.11100000888109207
1779996192423410200,17.93541015625,9.112950325012207,-0.13305000960826874,-0.16395001113414764
1779996192449325600,17.96132568359375,10.375950813293457,-0.12300000339746475,-0.2650500237941742
1779996192466602200,17.978602294921874,10.941000938415527,-0.16095000505447388,-0.27195000648498535
1779996192483879000,17.99587890625,10.894950866699219,-0.13695000112056732,-0.28395000100135803
1779996192501155800,18.01315576171875,10.21095085144043,-0.11400000751018524,-0.25005000829696655
1779996192518432800,18.030432861328126,9.32805061340332,-0.12105000764131546,-0.1860000044107437
1779996192535709400,18.04770947265625,8.76300048828125,-0.14505000412464142,-0.10695000737905502
1779996192552986400,18.064986328125,8.835000038146973,-0.0990000069141388,-0.1279500126838684
1779996192570263000,18.082262939453123,9.487950325012207,-0.11595000326633453,-0.19995000958442688
1779996192587540000,18.0995400390625,10.383000373840332,-0.12495000660419464,-0.28095000982284546
1779996192604817000,18.11681689453125,10.936050415039062,-0.12495000660419464,-0.31200000643730164
1779996192622093600,18.134093505859376,10.909950256347656,-0.17805001139640808,-0.2770500183105469
1779996192639370200,18.151370361328127,10.225050926208496,-0.15195000171661377,-0.21405000984668732
1779996192656647200,18.168647216796874,9.32295036315918,-0.07005000114440918,-0.19995000958442688
1779996192673924000,18.185924072265625,8.770050048828125,-0.0990000069141388,-0.17100000381469727
1779996192691200800,18.20320068359375,8.833050727844238,-0.12105000764131546,-0.13095000386238098
1779996192708477700,18.220477783203126,9.522000312805176,-0.13695000112056732,-0.13305000960826874
1779996192725754400,18.23775439453125,10.374000549316406,-0.11595000326633453,-0.23805001378059387
1779996192743031300,18.25503125,10.893000602722168,-0.10605000704526901,-0.3169500231742859
1779996192768946400,18.280946533203124,10.558050155639648,-0.15900000929832458,-0.25995001196861267
1779996192786223400,18.298223388671875,9.775050163269043,-0.14505000412464142,-0.17805001139640808
1779996192803500000,18.3155,9.040950775146484,-0.12105000764131546,-0.13500000536441803
1779996192829415200,18.341415283203126,8.866050720214844,-0.08700000494718552,-0.17400000989437103
1779996192846692000,18.358692138671874,9.502950668334961,-0.11400000751018524,-0.21405000984668732
1779996192863968800,18.37596875,10.357050895690918,-0.1489500105381012,-0.23595000803470612
1779996192889884000,18.4018837890625,10.957950592041016,-0.16095000505447388,-0.2689500153064728
1779996192907160600,18.41916064453125,10.54800033569336,-0.1399500072002411,-0.27195000648498535
1779996192924437500,18.4364375,9.768000602722168,-0.10905000567436218,-0.23805001378059387
1779996192941714200,18.453714111328125,9.02400016784668,-0.10395000129938126,-0.16200000047683716
1779996192958991000,18.4709912109375,8.809050559997559,-0.11100000888109207,-0.12105000764131546
1779996192976268000,18.48826806640625,9.145950317382812,-0.10200000554323196,-0.14505000412464142
1779996192993544700,18.505544677734374,9.937950134277344,-0.16905000805854797,-0.2070000171661377
1779996193019459800,18.5314599609375,10.845000267028809,-0.13500000536441803,-0.29805001616477966
1779996193036736500,18.548736572265625,10.821000099182129,-0.1489500105381012,-0.29100000858306885
1779996193054013400,18.566013427734376,10.19895076751709,-0.10200000554323196,-0.25995001196861267
1779996193071290000,18.5832900390625,9.394950866699219,-0.12495000660419464,-0.18300001323223114
1779996193088567000,18.600567138671874,8.871000289916992,-0.14205001294612885,-0.1380000114440918
1779996193105843700,18.61784375,8.914050102233887,-0.08505000174045563,-0.16395001113414764
1779996193123120600,18.63512060546875,9.558000564575195,-0.13500000536441803,-0.18105000257492065
1779996193140397300,18.652397216796874,10.314000129699707,-0.13305000960826874,-0.23100000619888306
1779996193157674200,18.66967431640625,10.849950790405273,-0.11100000888109207,-0.286050021648407
1779996193174951200,18.686951171875,10.756950378417969,-0.13005000352859497,-0.28395000100135803
1779996193192227800,18.704227783203127,10.146000862121582,-0.17295001447200775,-0.21195000410079956
1779996193209504800,18.7215048828125,9.376049995422363,-0.12300000339746475,-0.17100000381469727
1779996193235420000,18.747419921875,8.857050895690918,-0.09405000507831573,-0.18105000257492065
1779996193252696600,18.764696533203125,9.241950035095215,-0.10905000567436218,-0.19005000591278076
1779996193269973500,18.781973388671876,9.993000030517578,-0.13500000536441803,-0.21195000410079956
1779996193287250200,18.799250244140627,10.672950744628906,-0.16395001113414764,-0.24300001561641693
1779996193304527000,18.816527099609374,10.821000099182129,-0.13695000112056732,-0.2650500237941742
1779996193321803800,18.8338037109375,10.43595027923584,-0.1279500126838684,-0.28095000982284546
1779996193339080700,18.851080810546875,9.703950881958008,-0.10395000129938126,-0.22905001044273376
1779996193356357400,18.868357421875,9.082050323486328,-0.1279500126838684,-0.14295001327991486
1779996193382272500,18.8942724609375,9.02595043182373,-0.09195000678300858,-0.1399500072002411
1779996193399549200,18.911549072265625,9.60105037689209,-0.0970500037074089,-0.2070000171661377
1779996193416826000,18.928826171875,10.303950309753418,-0.17100000381469727,-0.25005000829696655
1779996193434102800,18.946102783203123,10.761000633239746,-0.15900000929832458,-0.26205000281333923
1779996193451379700,18.963379638671874,10.684950828552246,-0.13005000352859497,-0.286050021648407
1779996193468656600,18.98065673828125,10.089000701904297,-0.0990000069141388,-0.2569500207901001
1779996193485933300,18.997933349609376,9.426000595092773,-0.10200000554323196,-0.19500000774860382
1779996193503210000,19.0152099609375,8.967000007629395,-0.12300000339746475,-0.14295001327991486
1779996193520487000,19.03248681640625,9.05505084991455,-0.1469999998807907,-0.11595000326633453
1779996193537763600,19.049763671875,9.586050033569336,-0.12105000764131546,-0.19500000774860382
1779996193555040500,19.06704052734375,10.279950141906738,-0.11595000326633453,-0.2650500237941742
1779996193572317200,19.084317138671874,10.729950904846191,-0.11100000888109207,-0.31200000643730164
1779996193589594000,19.101593994140625,10.680000305175781,-0.1279500126838684,-0.26205000281333923
1779996193606870800,19.118870849609376,10.15095043182373,-0.17100000381469727,-0.18300001323223114
1779996193624147700,19.136147705078123,9.426000595092773,-0.0990000069141388,-0.16905000805854797
1779996193641424400,19.15342431640625,8.971050262451172,-0.10395000129938126,-0.17805001139640808
1779996193658701300,19.170701416015625,9.034049987792969,-0.11400000751018524,-0.19005000591278076
1779996193675978200,19.187978271484376,9.57705020904541,-0.12495000660419464,-0.18105000257492065
1779996193693255000,19.2052548828125,10.300050735473633,-0.11100000888109207,-0.23100000619888306
1779996193710531600,19.222531494140625,10.741950035095215,-0.16095000505447388,-0.27195000648498535
1779996193727808500,19.23980859375,10.660950660705566,-0.15195000171661377,-0.2670000195503235
1779996193745085200,19.257085205078123,10.105950355529785,-0.12300000339746475,-0.25005000829696655
1779996193762361900,19.27436181640625,9.427950859069824,-0.0970500037074089,-0.1980000138282776
1779996193779638800,19.291638671875,9.010050773620605,-0.10605000704526901,-0.15000000596046448
1779996193796915700,19.308915771484376,9.079050064086914,-0.11805000901222229,-0.12600000202655792
1779996193822830800,19.334830810546876,9.91200065612793,-0.15405000746250153,-0.1980000138282776
1779996193840107500,19.352107421875,10.504950523376465,-0.13305000960826874,-0.2740500271320343
1779996193857384400,19.369384521484374,10.704000473022461,-0.1399500072002411,-0.29805001616477966
1779996193874661400,19.386661376953125,10.434000968933105,-0.12300000339746475,-0.2670000195503235
1779996193891938000,19.40393798828125,9.82800006866455,-0.11805000901222229,-0.21705001592636108
1779996193909214700,19.421214599609375,9.238950729370117,-0.0990000069141388,-0.16200000047683716
1779996193926491400,19.438491455078125,9,-0.10395000129938126,-0.13500000536441803
1779996193943768300,19.455768310546876,9.27495002746582,-0.15195000171661377,-0.1469999998807907
1779996193961045000,19.473044921875,9.856950759887695,-0.12495000660419464,-0.21195000410079956
1779996193978322000,19.490322021484374,10.44795036315918,-0.11100000888109207,-0.29295000433921814
1779996194004237000,19.516237060546874,10.642050743103027,-0.13500000536441803,-0.2670000195503235
1779996194021514000,19.533513916015625,10.189050674438477,-0.13305000960826874,-0.21405000984668732
1779996194038790700,19.550790771484376,9.517050743103027,-0.14205001294612885,-0.1469999998807907
1779996194064705800,19.576705810546876,8.998050689697266,-0.0990000069141388,-0.16200000047683716
1779996194081982700,19.593982666015624,9.238950729370117,-0.0970500037074089,-0.17595000565052032
1779996194099259400,19.61125927734375,9.86400032043457,-0.10395000129938126,-0.23295001685619354
1779996194125174500,19.637174560546875,10.660950660705566,-0.16395001113414764,-0.26205000281333923
1779996194142451500,19.654451416015625,10.645950317382812,-0.16905000805854797,-0.2530499994754791
1779996194159728000,19.67172802734375,10.177050590515137,-0.1279500126838684,-0.23805001378059387
1779996194177005000,19.689005126953123,9.5149507522583,-0.10905000567436218,-0.20205001533031464
1779996194194282000,19.706281982421874,9.07395076751709,-0.08205000311136246,-0.16200000047683716
1779996194211558700,19.72355859375,9.070050239562988,-0.11805000901222229,-0.1380000114440918
1779996194228835300,19.74083544921875,9.531000137329102,-0.12300000339746475,-0.19305001199245453
1779996194246112000,19.758112060546875,10.165950775146484,-0.1570500135421753,-0.23295001685619354
1779996194263389000,19.775388916015626,10.645950317382812,-0.12105000764131546,-0.29295000433921814
1779996194289304000,19.801303955078126,10.468950271606445,-0.1469999998807907,-0.286050021648407
1779996194306581000,19.8185810546875,9.8899507522583,-0.11595000326633453,-0.22905001044273376
1779996194323857700,19.835857666015624,9.280050277709961,-0.12105000764131546,-0.16200000047683716
1779996194349772500,19.8617724609375,9.067049980163574,-0.1279500126838684,-0.1399500072002411
1779996194367049500,19.879049560546875,9.510000228881836,-0.11805000901222229,-0.19005000591278076
1779996194384326400,19.896326416015626,10.14900016784668,-0.09405000507831573,-0.2530499994754791
1779996194401603000,19.91360302734375,10.612950325012207,-0.13005000352859497,-0.2650500237941742
1779996194418880000,19.9308798828125,10.636950492858887,-0.16395001113414764,-0.24300001561641693
1779996194436156700,19.94815673828125,10.1850004196167,-0.14205001294612885,-0.21195000410079956
1779996194453433600,19.96543359375,9.555000305175781,-0.12105000764131546,-0.19305001199245453
1779996194470710500,19.98271044921875,9.079050064086914,-0.0990000069141388,-0.16395001113414764
1779996194487987200,19.9999873046875,9.096000671386719,-0.09405000507831573,-0.17595000565052032
1779996194505264000,20.01726416015625,9.529050827026367,-0.11805000901222229,-0.1980000138282776
1779996194522540800,20.034540771484377,10.1850004196167,-0.16395001113414764,-0.22395001351833344
1779996194539817500,20.0518173828125,10.635000228881836,-0.12300000339746475,-0.2550000250339508
1779996194557094400,20.069094482421875,10.615050315856934,-0.14505000412464142,-0.286050021648407
1779996194574371000,20.08637109375,10.177050590515137,-0.1279500126838684,-0.25995001196861267
1779996194591648000,20.10364794921875,9.53895092010498,-0.10200000554323196,-0.21195000410079956
1779996194608924700,20.120924560546875,9.121950149536133,-0.12105000764131546,-0.15900000929832458
1779996194626201300,20.138201416015626,9.105000495910645,-0.12105000764131546,-0.1279500126838684
1779996194643478300,20.155478271484377,9.546000480651855,-0.13695000112056732,-0.1469999998807907
1779996194669393400,20.181393310546873,10.378050804138184,-0.11100000888109207,-0.2740500271320343
1779996194686670000,20.198670166015624,10.636950492858887,-0.0990000069141388,-0.2880000174045563
1779996194703947000,20.215947021484375,10.419000625610352,-0.15195000171661377,-0.22905001044273376
1779996194721223700,20.2332236328125,9.897000312805176,-0.1399500072002411,-0.18105000257492065
1779996194738500600,20.25050048828125,9.31605052947998,-0.10605000704526901,-0.16395001113414764
1779996194755777300,20.26777734375,9.07395076751709,-0.0970500037074089,-0.1879500150680542
1779996194773054200,20.28505419921875,9.285000801086426,-0.09000000357627869,-0.19500000774860382
1779996194790331000,20.302330810546874,9.838050842285156,-0.1469999998807907,-0.17805001139640808
1779996194807607800,20.31960791015625,10.402050018310547,-0.15405000746250153,-0.21900001168251038
1779996194824884500,20.336884521484375,10.611000061035156,-0.13005000352859497,-0.29100000858306885
1779996194842161400,20.354161376953126,10.4239501953125,-0.10905000567436218,-0.2959500253200531
1779996194859438000,20.37143798828125,9.86205005645752,-0.10200000554323196,-0.24495001137256622
1779996194876714800,20.38871484375,9.349950790405273,-0.12105000764131546,-0.17595000565052032
1779996194893991400,20.405991455078127,9.121950149536133,-0.1469999998807907,-0.13305000960826874
1779996194911268400,20.423268310546874,9.30405044555664,-0.12495000660419464,-0.15900000929832458
1779996194928545300,20.440545166015625,9.802050590515137,-0.09195000678300858,-0.22095000743865967
1779996194954460400,20.46646044921875,10.519950866699219,-0.13305000960826874,-0.29805001616477966
1779996194971737300,20.4837373046875,10.572000503540039,-0.16095000505447388,-0.2530499994754791
1779996194989013800,20.501013671875,10.18695068359375,-0.11595000326633453,-0.21900001168251038
1779996195006290700,20.518290771484374,9.640950202941895,-0.14205001294612885,-0.1860000044107437
1779996195023567400,20.5355673828125,9.187050819396973,-0.11400000751018524,-0.17400000989437103
1779996195040844300,20.55284423828125,9.148950576782227,-0.0990000069141388,-0.16395001113414764
1779996195058121000,20.570120849609374,9.511950492858887,-0.11100000888109207,-0.17595000565052032
1779996195084036000,20.5960361328125,10.326000213623047,-0.12300000339746475,-0.25005000829696655
1779996195101313000,20.61331298828125,10.582050323486328,-0.12300000339746475,-0.2880000174045563
1779996195118589700,20.630589599609376,10.4239501953125,-0.12105000764131546,-0.2650500237941742
1779996195135866600,20.64786669921875,9.945000648498535,-0.16395001113414764,-0.2070000171661377
1779996195153143300,20.665143310546874,9.405000686645508,-0.13695000112056732,-0.17100000381469727
1779996195170420200,20.682420166015625,9.117000579833984,-0.08505000174045563,-0.17595000565052032
1779996195187697000,20.69969677734375,9.262950897216797,-0.08205000311136246,-0.2050500065088272
1779996195204973600,20.7169736328125,9.780000686645508,-0.10395000129938126,-0.22095000743865967
1779996195222250500,20.73425048828125,10.315950393676758,-0.17295001447200775,-0.21195000410079956
1779996195239527200,20.751527099609376,10.587000846862793,-0.15405000746250153,-0.23100000619888306
1779996195256803800,20.768803955078123,10.4170503616333,-0.10605000704526901,-0.2770500183105469
1779996195274080800,20.786080810546874,9.937950134277344,-0.10605000704526901,-0.23805001378059387
1779996195291357400,20.803357421875,9.409049987792969,-0.11595000326633453,-0.1860000044107437
1779996195308634000,20.820634033203124,9.133950233459473,-0.11595000326633453,-0.13095000386238098
1779996195325911000,20.8379111328125,9.262950897216797,-0.1279500126838684,-0.14505000412464142
1779996195343187700,20.855187744140625,9.75195026397705,-0.13005000352859497,-0.2050500065088272
1779996195369103000,20.88110302734375,10.462050437927246,-0.12300000339746475,-0.2670000195503235
1779996195386379800,20.8983798828125,10.572000503540039,-0.14505000412464142,-0.2689500153064728
1779996195403656400,20.915656494140624,10.252050399780273,-0.09405000507831573,-0.24795001745224
1779996195420933400,20.932933349609375,9.676950454711914,-0.12300000339746475,-0.1980000138282776
1779996195446848500,20.9588486328125,9.127050399780273,-0.13005000352859497,-0.15195000171661377
1779996195464125200,20.976125244140626,9.273000717163086,-0.0970500037074089,-0.18300001323223114
1779996195481402000,20.993402099609376,9.736950874328613,-0.11805000901222229,-0.21900001168251038
1779996195498678800,21.0106787109375,10.288050651550293,-0.13695000112056732,-0.26205000281333923
1779996195515955700,21.027955810546874,10.587000846862793,-0.13695000112056732,-0.2689500153064728
1779996195533232400,21.045232421875,10.455000877380371,-0.12495000660419464,-0.2740500271320343
1779996195559147500,21.0711474609375,9.676950454711914,-0.15900000929832458,-0.15900000929832458
1779996195576424400,21.088424560546876,9.204000473022461,-0.10200000554323196,-0.1469999998807907
1779996195593701000,21.105701171875,9.121950149536133,-0.0990000069141388,-0.1879500150680542
1779996195610977800,21.122977783203126,9.463950157165527,-0.08700000494718552,-0.23100000619888306
1779996195628254700,21.140254638671873,10.048050880432129,-0.11805000901222229,-0.23295001685619354
1779996195645531400,21.157531494140624,10.534050941467285,-0.15405000746250153,-0.21900001168251038
1779996195662808300,21.174808349609375,10.579050064086914,-0.16095000505447388,-0.22605000436306
1779996195688723500,21.200723388671875,9.919050216674805,-0.10905000567436218,-0.23295001685619354
1779996195706000100,21.218000244140626,9.354000091552734,-0.0799500048160553,-0.22395001351833344
1779996195723277000,21.235277099609377,9.127050399780273,-0.10905000567436218,-0.17100000381469727
1779996195740553700,21.2525537109375,9.283050537109375,-0.11595000326633453,-0.15900000929832458
1779996195766468900,21.27846875,10.113000869750977,-0.1570500135421753,-0.1980000138282776
1779996195783745500,21.29574560546875,10.498050689697266,-0.13305000960826874,-0.27195000648498535
1779996195801022500,21.3130224609375,10.558050155639648,-0.11805000901222229,-0.3049500286579132
1779996195818299100,21.330299072265625,10.182000160217285,-0.12495000660419464,-0.24795001745224
1779996195835576000,21.347576171875,9.646050453186035,-0.1279500126838684,-0.19305001199245453
1779996195852852700,21.364852783203126,9.253950119018555,-0.09405000507831573,-0.16395001113414764
1779996195878768000,21.39076806640625,9.268050193786621,-0.10395000129938126,-0.17100000381469727
1779996195896044800,21.408044921875,9.756000518798828,-0.1489500105381012,-0.1879500150680542
1779996195913321500,21.425321533203125,10.282950401306152,-0.16905000805854797,-0.18105000257492065
1779996195939236600,21.451236572265625,10.50105094909668,-0.0970500037074089,-0.28395000100135803
1779996195956513500,21.468513427734376,10.19895076751709,-0.10200000554323196,-0.28095000982284546
1779996195973790200,21.485790283203126,9.694050788879395,-0.11595000326633453,-0.22095000743865967
1779996195991067000,21.50306689453125,9.268050193786621,-0.12495000660419464,-0.15900000929832458
1779996196008343600,21.520343505859376,9.220050811767578,-0.11805000901222229,-0.15195000171661377
1779996196025620500,21.537620361328123,9.499950408935547,-0.1469999998807907,-0.16905000805854797
1779996196042897200,21.554897216796874,10.027050018310547,-0.13305000960826874,-0.21405000984668732
1779996196060173800,21.572173828125,10.419000625610352,-0.11805000901222229,-0.2740500271320343
1779996196077450800,21.58945068359375,10.51200008392334,-0.10905000567436218,-0.27900001406669617
1779996196094727400,21.6067275390625,10.204050064086914,-0.11805000901222229,-0.24795001745224
1779996196112004600,21.624004638671874,9.685050010681152,-0.11400000751018524,-0.19500000774860382
1779996196129281000,21.641281005859376,9.294000625610352,-0.16395001113414764,-0.1570500135421753
1779996196146558000,21.658557861328124,9.211050033569336,-0.1399500072002411,-0.15000000596046448
1779996196163835000,21.6758349609375,9.5149507522583,-0.11400000751018524,-0.19305001199245453
1779996196181111600,21.693111572265625,9.996000289916992,-0.10905000567436218,-0.25005000829696655
1779996196198388200,21.71038818359375,10.419000625610352,-0.08205000311136246,-0.28395000100135803
1779996196215665200,21.7276650390625,10.504950523376465,-0.1570500135421753,-0.25005000829696655
1779996196232942000,21.744942138671874,10.216050148010254,-0.19200000166893005,-0.19500000774860382
1779996196250218500,21.762218505859376,9.711000442504883,-0.10605000704526901,-0.19005000591278076
1779996196267495200,21.7794951171875,9.294000625610352,-0.08505000174045563,-0.21000000834465027
1779996196284772000,21.796772216796874,9.208050727844238,-0.07500000298023224,-0.19995000958442688
1779996196302048800,21.814048828125,9.5149507522583,-0.1570500135421753,-0.16395001113414764
1779996196319325700,21.83132568359375,10.017000198364258,-0.15195000171661377,-0.17805001139640808
1779996196336602600,21.8486025390625,10.390050888061523,-0.13005000352859497,-0.23295001685619354
1779996196353879000,21.865879150390626,10.455000877380371,-0.14505000412464142,-0.2770500183105469
1779996196371155700,21.88315576171875,10.17495059967041,-0.13305000960826874,-0.27195000648498535
1779996196388432600,21.9004326171875,9.735000610351562,-0.08700000494718552,-0.23595000803470612
1779996196414347800,21.92634765625,9.261000633239746,-0.13695000112056732,-0.14505000412464142
1779996196431624700,21.943624755859375,9.361050605773926,-0.0990000069141388,-0.18300001323223114
1779996196448901400,21.9609013671875,9.732000350952148,-0.1279500126838684,-0.2050500065088272
1779996196466178300,21.97817822265625,10.177050590515137,-0.1489500105381012,-0.23100000619888306
1779996196492093200,22.00409326171875,10.443000793457031,-0.12105000764131546,-0.2569500207901001
1779996196509369900,22.021369873046876,10.194000244140625,-0.10605000704526901,-0.24495001137256622
1779996196526646800,22.038646728515626,9.735000610351562,-0.11595000326633453,-0.21000000834465027
1779996196543923500,22.05592333984375,9.370950698852539,-0.1489500105381012,-0.14295001327991486
1779996196561200400,22.073200439453124,9.262950897216797,-0.12105000764131546,-0.13500000536441803
1779996196578477000,22.09047705078125,9.502950668334961,-0.11100000888109207,-0.17595000565052032
1779996196595754000,22.10775390625,9.955050468444824,-0.08700000494718552,-0.2530499994754791
1779996196613031000,22.125031005859373,10.333050727844238,-0.11100000888109207,-0.2689500153064728
1779996196630307300,22.142307373046876,10.479000091552734,-0.15900000929832458,-0.23295001685619354
1779996196647584300,22.159584228515627,10.19895076751709,-0.16395001113414764,-0.19500000774860382
1779996196664861000,22.17686083984375,9.768000602722168,-0.15405000746250153,-0.19995000958442688
1779996196682137900,22.194137939453125,9.36405086517334,-0.11805000901222229,-0.19005000591278076
1779996196699414500,22.21141455078125,9.226950645446777,-0.08505000174045563,-0.2070000171661377
1779996196716691500,22.22869140625,9.517050743103027,-0.08505000174045563,-0.23100000619888306
1779996196733968100,22.245968017578125,9.97605037689209,-0.1570500135421753,-0.21405000984668732
1779996196751244800,22.263244873046876,10.422000885009766,-0.1660500019788742,-0.22605000436306
1779996196777160000,22.289159912109376,10.362000465393066,-0.11595000326633453,-0.2880000174045563
1779996196794436600,22.3064365234375,9.949950218200684,-0.14205001294612885,-0.23805001378059387
1779996196811713500,22.323713623046874,9.481050491333008,-0.15195000171661377,-0.17100000381469727
1779996196828990200,22.340990234375,9.256050109863281,-0.10905000567436218,-0.1570500135421753
1779996196846267100,22.35826708984375,9.361050605773926,-0.07500000298023224,-0.2070000171661377
1779996196863543800,22.375543701171875,9.739950180053711,-0.1660500019788742,-0.21195000410079956
1779996196889459000,22.401458984375,10.342950820922852,-0.10605000704526901,-0.24105000495910645
1779996196906735600,22.418735595703126,10.45995044708252,-0.1469999998807907,-0.2670000195503235
1779996196924012500,22.436012451171877,10.1850004196167,-0.12105000764131546,-0.24300001561641693
1779996196941289200,22.453289306640624,9.736950874328613,-0.11595000326633453,-0.21000000834465027
1779996196958566000,22.47056591796875,9.378000259399414,-0.10905000567436218,-0.16395001113414764
1779996196975842800,22.4878427734375,9.250950813293457,-0.0970500037074089,-0.16905000805854797
1779996196993119500,22.505119384765624,9.535950660705566,-0.12495000660419464,-0.17595000565052032
1779996197019034600,22.53103466796875,10.168050765991211,-0.14505000412464142,-0.21195000410079956
1779996197036311600,22.5483115234375,10.434000968933105,-0.12105000764131546,-0.2550000250339508
1779996197053588200,22.565588134765626,10.333050727844238,-0.10605000704526901,-0.2670000195503235
1779996197079503400,22.59150341796875,9.747000694274902,-0.13005000352859497,-0.21000000834465027
1779996197096780000,22.608780029296874,9.393000602722168,-0.16905000805854797,-0.15000000596046448
1779996197114057000,22.626056884765624,9.31605052947998,-0.13695000112056732,-0.15000000596046448
1779996197139972000,22.65197216796875,9.735000610351562,-0.0970500037074089,-0.24105000495910645
1779996197157248800,22.669248779296876,10.16100025177002,-0.11805000901222229,-0.2550000250339508
1779996197174525700,22.686525634765626,10.431000709533691,-0.12495000660419464,-0.27195000648498535
1779996197191802400,22.70380224609375,10.347000122070312,-0.10905000567436218,-0.25995001196861267
1779996197209079000,22.7210791015625,9.979050636291504,-0.2070000171661377,-0.16395001113414764
1779996197226355700,22.738355712890623,9.541050910949707,-0.14205001294612885,-0.14505000412464142
1779996197243632600,22.755632568359374,9.262950897216797,-0.08700000494718552,-0.18105000257492065
1779996197260909300,22.772909423828125,9.354000091552734,-0.0970500037074089,-0.2050500065088272
1779996197286824400,22.798824462890625,9.97605037689209,-0.08505000174045563,-0.22605000436306
1779996197304101400,22.816101318359376,10.359000205993652,-0.17100000381469727,-0.21195000410079956
1779996197321378000,22.8333779296875,10.422000885009766,-0.1879500150680542,-0.21705001592636108
1779996197347293000,22.85929296875,9.960000038146973,-0.09405000507831573,-0.24105000495910645
1779996197364569900,22.87656982421875,9.522000312805176,-0.0970500037074089,-0.22395001351833344
1779996197381846500,22.893846435546877,9.2920503616333,-0.10905000567436218,-0.18300001323223114
1779996197399123500,22.91112353515625,9.402000427246094,-0.1279500126838684,-0.15195000171661377
1779996197416400100,22.928400146484375,9.718050003051758,-0.1279500126838684,-0.19005000591278076
1779996197433676800,22.9456767578125,10.18005084991455,-0.19005000591278076,-0.22605000436306
1779996197459592000,22.971592041015626,10.383000373840332,-0.10605000704526901,-0.2650500237941742
1779996197476868600,22.98886865234375,10.16295051574707,-0.10905000567436218,-0.25995001196861267
