time,seconds_elapsed,z,y,x
1779997165375661800,0.302661865234375,-0.02501799911260605,-0.011780999600887299,-0.06563200056552887
1779997165392938000,0.31993798828125,-0.013612999580800533,-0.009352000430226326,-0.04238700121641159
1779997165410214400,0.33721435546875,-0.008303999900817871,-0.008933000266551971,-0.026986999437212944
1779997165427490800,0.35449072265625,0.005109999794512987,-0.0063680000603199005,-0.01954299956560135
1779997165444767000,0.37176708984375,0.016735000535845757,-0.003806999884545803,-0.016335999593138695
1779997165462043600,0.389043701171875,0.02274399995803833,-0.005078000016510487,-0.01268799975514412
1779997165479319800,0.40631982421875,0.02034899964928627,-0.007205999922007322,-0.00872000027447939
1779997165496596200,0.42359619140625,0.021203000098466873,-0.007201999891549349,-0.006870000157505274
1779997165513872600,0.44087255859375,0.02320599928498268,-0.006382999941706657,-0.006515000015497208
1779997165531149000,0.458149169921875,0.020481999963521957,-0.006407999899238348,-0.005969000048935413
1779997165548425500,0.475425537109375,0.01924699917435646,-0.006909000221639872,-0.005146999843418598
1779997165565702000,0.492701904296875,0.016759000718593597,-0.007151999976485968,-0.004825000185519457
1779997165582978000,0.50997802734375,0.01820399984717369,-0.0054709999822080135,-0.0057299998588860035
1779997165600254700,0.527254638671875,0.011203999631106853,-0.004918000195175409,-0.005530000198632479
1779997165617531100,0.54453125,0.007515000179409981,-0.0031469999812543392,-0.006142999976873398
1779997165634807600,0.5618076171875,0.005013999994844198,-0.002486000070348382,-0.0062790000811219215
1779997165652083700,0.579083740234375,0.0074709998443722725,-0.0015399999683722854,-0.0056779999285936356
1779997165669360000,0.596360107421875,0.009514999575912952,-0.0010359999723732471,-0.005636999849230051
1779997165686636500,0.613636474609375,-0.0012600000482052565,-0.0016969999996945262,-0.0038250000216066837
1779997165703913000,0.630912841796875,-0.016069000586867332,-0.0030129998922348022,-0.0008009999874047935
1779997165721189400,0.648189453125,-0.018247999250888824,-0.0015829999465495348,-0.0007680000271648169
1779997165738465800,0.6654658203125,-0.008143999613821507,0.00015999999595806003,-0.0023799999617040157
1779997165755742000,0.682741943359375,-0.0010509999701753259,-0.0010580000234767795,-0.0029009999707341194
1779997165773018400,0.700018310546875,0.0043669999577105045,-0.0016599999507889152,-0.0034519999753683805
1779997165790294800,0.717294677734375,0.005423999857157469,-0.0016110000433400273,-0.00368899991735816
1779997165807571000,0.734571044921875,-0.000881000014487654,-0.0019239999819546938,-0.003280000062659383
1779997165824847600,0.75184765625,-0.0024399999529123306,0.00004400000034365803,-0.004242999944835901
1779997165842124000,0.7691240234375,0.001272000023163855,0.0006409999914467335,-0.0060339998453855515
1779997165859400200,0.786400146484375,0.010846000164747238,-0.0005719999899156392,-0.006668999791145325
1779997165876676600,0.803676513671875,0.005830000154674053,-0.0017059999518096447,-0.005799999926239252
1779997165893953000,0.820953125,-0.0026100000832229853,-0.001896000001579523,-0.004898000042885542
1779997165911229400,0.8382294921875,-0.017149999737739563,-0.002220999915152788,-0.004244999960064888
1779997165928505600,0.855505615234375,-0.007977999746799469,-0.0002469999890308827,-0.00493700010702014
1779997165945782000,0.872781982421875,0.005537000019103289,-0.0007450000266544521,-0.00572500005364418
1779997165963058700,0.89005859375,0.010971000418066978,-0.0030670000705868006,-0.005042000208050013
1779997165980334800,0.9073349609375,0.01476799976080656,-0.0014519999967887998,-0.006837999913841486
1779997165997611300,0.924611328125,0.013944000005722046,0.0007409999961964786,-0.00913699995726347
1779997166014888000,0.941887939453125,0.01075000036507845,-0.00013699999544769526,-0.008553000167012215
1779997166032164000,0.9591640625,0.01065799966454506,-0.0010319999419152737,-0.0064559997990727425
1779997166049440500,0.9764404296875,0.009309000335633755,-0.001297999988310039,-0.0055740000680089
1779997166066717000,0.993717041015625,0.008892999961972237,-0.0014179999707266688,-0.005226000212132931
1779997166083993300,1.010993408203125,0.002489000093191862,-0.002630000002682209,-0.0023109999019652605
1779997166101269800,1.028269775390625,-0.004827000200748444,-0.0026149998884648085,0.0010979999788105488
1779997166118546200,1.045546142578125,-0.017753999680280685,-0.0003330000035930425,0.0026680000592023134
1779997166135822600,1.062822509765625,-0.019300999119877815,0.000691999972332269,0.0034940000623464584
1779997166153099000,1.08009912109375,-0.007656000088900328,0.0016680000117048621,0.0035250000655651093
1779997166170375400,1.09737548828125,0.013272999785840511,0.0023429999127984047,0.0023709998931735754
1779997166187651600,1.114651611328125,0.002865999937057495,-0.00046499999007210135,0.0038010000716894865
1779997166204928000,1.131927978515625,-0.010571000166237354,-0.0025820001028478146,0.005903999786823988
1779997166222204400,1.149204345703125,-0.0037899999879300594,-0.0003380000125616789,0.0035230000503361225
1779997166239480800,1.166480712890625,-0.0034459999296814203,-0.0008159999852068722,0.003326999954879284
1779997166256757200,1.18375732421875,-0.006364999804645777,-0.00253800000064075,0.0049749999307096004
1779997166282671900,1.209671875,-0.013535999692976475,0.0002640000020619482,0.003575999988242984
1779997166299948300,1.2269482421875,-0.01619100011885166,-0.00022600000374950469,0.003882999997586012
1779997166317224700,1.244224609375,-0.014012999832630157,-0.0003870000073220581,0.005241999868303537
1779997166334501000,1.261501220703125,-0.0033019999973475933,0.001398000051267445,0.0036230001132935286
1779997166351777500,1.278777587890625,0.0031190000008791685,0.0009069999796338379,0.0014120000414550304
1779997166369054000,1.296053955078125,0.004075999837368727,-0.00019700000120792538,0.0003420000139158219
1779997166386330000,1.313330078125,0.007763999979943037,0.00030700000934302807,-0.0008270000107586384
1779997166403606500,1.3306064453125,0.0032210000790655613,0.0003110000106971711,-0.0009369999752379954
1779997166420883000,1.347883056640625,-0.005237000063061714,-0.002263000002130866,0.00016500000492669642
1779997166438159400,1.365159423828125,-0.0015770000172778964,-0.0012570000253617764,-0.0016289999475702643
1779997166455436000,1.38243603515625,0.01129200030118227,0.0020409999415278435,-0.005841000005602837
1779997166472712200,1.399712158203125,0.0191079992800951,0.0019570000004023314,-0.006533000152558088
1779997166489988600,1.416988525390625,0.011528000235557556,-0.0008270000107586384,-0.003364000003784895
1779997166507264800,1.4342646484375,0.003765000030398369,-0.001576000009663403,-0.0015269999857991934
1779997166524541400,1.45154150390625,-0.0010600000387057662,-0.0003060000017285347,-0.0007600000244565308
1779997166541817600,1.468817626953125,0.0013510000426322222,0.0011180000146850944,-0.0012390000047162175
1779997166559094000,1.486093994140625,-0.000514000013936311,0.0016090000281110406,-0.0014179999707266688
1779997166576370400,1.503370361328125,0.0039969999343156815,0.0018840000266209245,-0.0028729999903589487
1779997166593646800,1.520646728515625,0.005212000105530024,0.0025969999842345715,-0.003561000106856227
1779997166610923300,1.53792333984375,0.001829999964684248,0.001943000010214746,-0.0020620001014322042
1779997166628199700,1.55519970703125,-0.0016110000433400273,0.0017920000245794654,-0.0005280000041238964
1779997166645476000,1.57247607421875,-0.0018990000244230032,0.0015810000477358699,0.00003099999958067201
1779997166662752500,1.58975244140625,0.004029000177979469,0.0017770000267773867,-0.000846999988425523
1779997166680029000,1.60702880859375,0.0042119999416172504,0.003524000057950616,-0.001307999948039651
1779997166697305000,1.62430517578125,-0.0031870000530034304,0.002369999885559082,0.0018680000212043524
1779997166714581800,1.641581787109375,-0.011075000278651714,-0.000295000005280599,0.005534000229090452
1779997166731858200,1.658858154296875,-0.01399100013077259,0.0013800000306218863,0.005022000055760145
1779997166749134300,1.67613427734375,-0.012118999846279621,0.003283000085502863,0.0033160001039505005
1779997166766411000,1.693410888671875,-0.0008249999955296516,0.004627999849617481,0.0021349999587982893
1779997166783687400,1.7106875,0.007077000103890896,0.005909999832510948,0.0006389999762177467
1779997166800963600,1.727963623046875,0.009978000074625015,0.00443299999460578,0.0007789999945089221
1779997166818240300,1.745240234375,0.016964999958872795,0.004904000088572502,-0.000598000013269484
1779997166835516400,1.762516357421875,0.014929999597370625,0.00747800013050437,-0.0014799999771639705
1779997166852792800,1.779792724609375,0.01066299993544817,0.007528999820351601,-0.0012150000547990203
1779997166870069200,1.7970693359375,0.019164999946951866,0.007089999970048666,-0.0014540000120177865
1779997166887345700,1.814345703125,0.059741001576185226,0.0063749998807907104,-0.002167999977245927
1779997166904622000,1.8316220703125,0.11095400154590607,0.0033650000113993883,0.000155999994603917
1779997166921898500,1.8488984375,0.23447999358177185,-0.012010999955236912,-0.00038400001358240843
1779997166939175000,1.8661748046875,0.7795360088348389,-0.044186998158693314,-0.03178099915385246
1779997166956451300,1.883451416015625,0.997763991355896,0.017867999151349068,-0.08469899743795395
1779997166973727500,1.9007275390625,0.8937479853630066,-0.015199000015854836,-0.09094999730587006
1779997166991004000,1.91800390625,-0.2628509998321533,0.0004309999931138009,0.0012629999546334147
1779997167008280600,1.935280517578125,-1.1576249599456787,-0.007036000024527311,0.1530739963054657
1779997167025557000,1.952556884765625,-1.64593505859375,-0.010029000230133533,0.22925099730491638
1779997167042833400,1.96983349609375,-1.5703309774398804,0.08257099986076355,0.1639620065689087
1779997167060109800,1.98710986328125,-0.8546609878540039,0.17764699459075928,0.015320000238716602
1779997167077386000,2.004385986328125,1.3075400590896606,-0.05597800016403198,-0.04562100023031235
1779997167094662700,2.02166259765625,1.9845279455184937,-0.19486799836158752,-0.0583840012550354
1779997167111938800,2.038938720703125,1.076035976409912,-0.00990699976682663,-0.09364700317382812
1779997167129215200,2.05621533203125,0.011528000235557556,0.048562001436948776,-0.004251999780535698
1779997167146492000,2.073491943359375,-0.9477059841156006,0.0009219999774359167,0.14219200611114502
1779997167163768000,2.09076806640625,-1.5303469896316528,-0.011762999929487705,0.22783899307250977
1779997167181044500,2.10804443359375,-1.6358319520950317,0.062049999833106995,0.17426399886608124
1779997167198320600,2.125320556640625,-1.5886470079421997,0.14625099301338196,0.07659800350666046
1779997167215597300,2.142597412109375,0.23708400130271912,-0.07738599926233292,0.05586300045251846
1779997167232873700,2.159873779296875,0.7214130163192749,-0.06836400181055069,0.055240001529455185
1779997167250150000,2.17714990234375,1.316017985343933,0.03562700003385544,-0.06260800361633301
1779997167267426600,2.194426513671875,1.6072399616241455,0.03144099935889244,-0.1382869929075241
1779997167284703000,2.211702880859375,1.2493549585342407,-0.0056050000712275505,-0.12030699849128723
1779997167301979400,2.2289794921875,0.49744299054145813,-0.11303599923849106,0.05958399921655655
1779997167319255600,2.246255615234375,-0.42846500873565674,-0.13078099489212036,0.20646700263023376
1779997167336532200,2.2635322265625,-2.24481201171875,0.21915900707244873,0.14819300174713135
1779997167353808400,2.280808349609375,-1.9112670421600342,0.2658030092716217,0.09109199792146683
1779997167371085000,2.2980849609375,0.9259009957313538,-0.1465660035610199,0.0989840030670166
1779997167388361500,2.315361572265625,1.2761839628219604,-0.13160400092601776,-0.04137599840760231
1779997167405637600,2.3326376953125,1.256898045539856,0.0440329983830452,-0.14547500014305115
1779997167422914300,2.349914306640625,0.8849440217018127,0.05074400082230568,-0.10880099982023239
1779997167440190700,2.367190673828125,0.26295599341392517,-0.0331839993596077,0.04097599908709526
1779997167457467000,2.384466796875,-0.4640220105648041,-0.05747000128030777,0.15814700722694397
1779997167474743600,2.40174365234375,-2.1439049243927,0.13120700418949127,0.14812800288200378
1779997167492019700,2.419019775390625,-0.9218109846115112,0.04835300147533417,0.07758499681949615
1779997167509296400,2.43629638671875,0.11379700154066086,-0.06622400134801865,0.08130499720573425
1779997167526572500,2.453572509765625,0.5843009948730469,0.0034570000134408474,-0.010600999929010868
1779997167543849000,2.470848876953125,1.3471959829330444,-0.01266700029373169,-0.0825280025601387
1779997167561125400,2.48812548828125,0.9952880144119263,0.008189000189304352,-0.12001100182533264
1779997167578401800,2.50540185546875,0.4423989951610565,-0.05841600149869919,-0.02440500073134899
1779997167595678200,2.52267822265625,-0.2884800136089325,-0.1248830035328865,0.12819699943065643
1779997167612954600,2.53995458984375,-1.150941014289856,0.049966998398303986,0.13212500512599945
1779997167630231000,2.55723095703125,-2.3791329860687256,0.21306100487709045,0.08118999749422073
1779997167647507500,2.574507568359375,0.23545899987220764,-0.037078000605106354,0.0942550003528595
1779997167664784100,2.5917841796875,0.7986040115356445,-0.10553500056266785,0.01568100042641163
1779997167682060300,2.609060302734375,1.0725020170211792,0.013139000162482262,-0.09563399851322174
1779997167699336700,2.626336669921875,0.9498639702796936,0.03984199836850166,-0.111565001308918
1779997167716613400,2.64361328125,0.5117369890213013,-0.018185000866651535,-0.016651999205350876
1779997167733889800,2.660889892578125,-0.021098999306559563,-0.04881500080227852,0.08693400025367737
1779997167751166000,2.678166015625,-1.4245660305023193,0.07459499686956406,0.12285599857568741
1779997167768442600,2.695442626953125,-1.0984209775924683,0.05429999902844429,0.08371999859809875
1779997167785719000,2.712718994140625,-0.16710400581359863,-0.01943499967455864,0.05793200060725212
1779997167802995500,2.729995361328125,0.11995100229978561,0.04035799950361252,0.01457700040191412
1779997167820271900,2.74727197265625,0.8748639822006226,0.02918500080704689,-0.05328100174665451
1779997167837548300,2.76454833984375,0.8221250176429749,0.03530700132250786,-0.0920649990439415
1779997167854824700,2.78182470703125,0.5250110030174255,-0.01179600041359663,-0.04735900089144707
1779997167872101000,2.79910107421875,0.04584600031375885,-0.08751700073480606,0.05280900001525879
1779997167889377500,2.81637744140625,-0.5521150231361389,0.00520800007507205,0.08783300220966339
1779997167906654000,2.833654052734375,-1.6124049425125122,0.14880900084972382,0.06200699880719185
1779997167923930400,2.850930419921875,-0.23372900485992432,0.03160500153899193,0.06597399711608887
1779997167941206800,2.868206787109375,0.2701599895954132,-0.024591999128460884,0.029333999380469322
1779997167958483200,2.885483154296875,1.1323879957199097,-0.061236001551151276,-0.04605799913406372
1779997167975759600,2.902759521484375,0.9199889898300171,-0.029670000076293945,-0.09335099905729294
1779997167993036000,2.9200361328125,0.39322400093078613,-0.007834999822080135,-0.03511400148272514
1779997168010312400,2.9373125,-0.2073889970779419,0.0022849999368190765,0.04843299835920334
1779997168027589000,2.954589111328125,-1.0052410364151,0.0567220002412796,0.0793910026550293
1779997168044865300,2.971865234375,-1.3032610416412354,0.05487100034952164,0.059960998594760895
1779997168062141700,2.9891416015625,-0.029496999457478523,-0.06649400293827057,0.03938300162553787
1779997168079418400,3.00641845703125,0.036010999232530594,-0.004002000205218792,0.004912999924272299
1779997168096694500,3.023694580078125,0.4728640019893646,0.029152000322937965,-0.02412799932062626
1779997168113971000,3.040970947265625,1.0711840391159058,-0.04140099883079529,-0.06086200103163719
1779997168131247600,3.05824755859375,0.6770960092544556,-0.04481000080704689,-0.04177200049161911
1779997168148523800,3.075523681640625,0.1398490071296692,-0.04224399849772453,0.0462770015001297
1779997168165800400,3.092800537109375,-0.7844870090484619,0.04117700085043907,0.08597499877214432
1779997168183076900,3.110076904296875,-1.4753789901733398,0.12069100141525269,0.06320399791002274
1779997168200353000,3.12735302734375,0.06849899888038635,-0.07598000019788742,0.04353899881243706
1779997168217629700,3.144629638671875,-0.08417700231075287,-0.02065199986100197,0.017782999202609062
1779997168234906000,3.161906005859375,0.2845019996166229,0.048767998814582825,-0.011501000262796879
1779997168252182500,3.1791826171875,0.674839973449707,0.013535999692976475,-0.04202200099825859
1779997168269459000,3.196458984375,0.7971010208129883,-0.04703100025653839,-0.04088100045919418
1779997168286735400,3.2137353515625,0.3236370086669922,-0.06241299957036972,0.02755099907517433
1779997168304011800,3.23101171875,-0.28486600518226624,0.0014550000196322799,0.07261200249195099
1779997168321288200,3.2482880859375,-1.5231070518493652,0.1305059939622879,0.07470099627971649
1779997168338564600,3.265564697265625,-0.1035659983754158,-0.03587900102138519,0.060391999781131744
1779997168355841000,3.282841064453125,0.21060700714588165,-0.048027001321315765,0.01713399961590767
1779997168373117700,3.30011767578125,-0.01409399975091219,0.05942700058221817,-0.01739099994301796
1779997168390393900,3.317393798828125,0.7341079711914062,-0.002498999936506152,-0.037981998175382614
1779997168407670500,3.33467041015625,0.5401620268821716,-0.01864900067448616,-0.04978099837899208
1779997168424947000,3.351947021484375,0.22225399315357208,-0.03811100125312805,0.009283999912440777
1779997168442223400,3.369223388671875,-0.17951600253582,-0.03116700053215027,0.05253700166940689
1779997168459499800,3.386499755859375,-1.2098859548568726,0.09549900144338608,0.057819999754428864
1779997168476776200,3.403776123046875,-0.23008400201797485,-0.002308000111952424,0.05291900038719177
1779997168494052600,3.421052490234375,0.021257000043988228,-0.01312899962067604,0.024104999378323555
1779997168511329000,3.4383291015625,0.4322679936885834,-0.01348199974745512,-0.011934000067412853
1779997168528605400,3.45560546875,0.4961870014667511,-0.0014169999631121755,-0.03312399983406067
1779997168545881900,3.4728818359375,0.356469988822937,0.011025000363588333,-0.03656499832868576
1779997168563158500,3.490158447265625,0.09601400047540665,-0.01693600043654442,0.005222999956458807
1779997168580434700,3.5074345703125,-0.21380400657653809,-0.019990000873804092,0.04266300052404404
1779997168597711400,3.52471142578125,-0.7794740200042725,0.038586001843214035,0.04702199995517731
1779997168614987800,3.54198779296875,-0.46640899777412415,0.01387299969792366,0.04194999858736992
1779997168632264200,3.55926416015625,0.15757900476455688,-0.02585900016129017,0.0170460008084774
1779997168649540600,3.57654052734375,0.26220300793647766,0.005284999962896109,-0.017242999747395515
1779997168666817300,3.5938173828125,0.3691830039024353,0.024299999698996544,-0.033573001623153687
1779997168684093400,3.611093505859375,0.4358389973640442,-0.00974200014024973,-0.031199000775814056
1779997168701369900,3.628369873046875,0.2574079930782318,-0.04028400033712387,0.008516999892890453
1779997168718646500,3.645646484375,-0.2551330029964447,-0.004699000157415867,0.040814999490976334
1779997168735922700,3.662922607421875,-0.7883260250091553,0.053553998470306396,0.03818200156092644
1779997168753199400,3.680199462890625,-0.22247099876403809,-0.012791000306606293,0.033727001398801804
1779997168770475800,3.697475830078125,-0.02438100054860115,0.006196000147610903,0.0008980000275187194
1779997168787752200,3.714752197265625,0.24765299260616302,0.016956999897956848,-0.024528000503778458
1779997168805028600,3.732028564453125,0.43377700448036194,0.0004889999981969595,-0.039090998470783234
1779997168822305300,3.74930517578125,0.45988601446151733,-0.021802999079227448,-0.02898699976503849
1779997168839581700,3.766581787109375,0.17930200695991516,-0.022593999281525612,0.0016250000335276127
1779997168856858000,3.783858154296875,-0.5168970227241516,0.03242700174450874,0.035638000816106796
1779997168874134500,3.801134521484375,-0.3760420083999634,0.004660000093281269,0.031537000089883804
1779997168891411200,3.8184111328125,-0.3390119969844818,0.005305000115185976,0.02163900062441826
1779997168908687400,3.835687255859375,-0.08793000131845474,0.019680000841617584,0.004532000049948692
1779997168925963800,3.8529638671875,0.38401898741722107,-0.013145999982953072,-0.01463400013744831
1779997168943240400,3.870240478515625,0.4084649980068207,-0.0038189999759197235,-0.03205699846148491
1779997168960517000,3.88751708984375,0.28812798857688904,0.0021619999315589666,-0.027688000351190567
1779997168977793300,3.904793212890625,0.07316700369119644,-0.006961999926716089,0.002213000087067485
1779997169003708200,3.930708251953125,-0.4441069960594177,0.015703000128269196,0.03050900064408779
1779997169020984300,3.947984375,-0.36017701029777527,-0.0002739999908953905,0.025728000327944756
1779997169038261000,3.965260986328125,-0.23191699385643005,0.010645999573171139,0.013786000199615955
1779997169055537400,3.982537353515625,0.17924100160598755,-0.005080000031739473,-0.0038870000280439854
1779997169072813800,3.999813720703125,0.3942199945449829,-0.007348000071942806,-0.02690199948847294
1779997169090090200,4.01709033203125,0.37033700942993164,-0.0032730000093579292,-0.03254399821162224
1779997169107366700,4.03436669921875,0.20633600652217865,-0.004455000162124634,-0.013337000273168087
1779997169133281500,4.060281494140625,-0.31966298818588257,0.0077749998308718204,0.027360999956727028
1779997169150558000,4.077557861328125,-0.394459992647171,0.005026999861001968,0.03077000007033348
1779997169167834000,4.094834228515625,-0.344419002532959,0.006457999814301729,0.021185999736189842
1779997169185110800,4.11211083984375,0.006163000129163265,-0.0014809999847784638,0.005621000193059444
1779997169202387500,4.129387451171875,0.29177001118659973,-0.005785000044852495,-0.017268000170588493
1779997169219664000,4.146663818359375,0.39778199791908264,-0.007708999793976545,-0.031546998769044876
1779997169236940300,4.163940185546875,0.3233560025691986,-0.006606000009924173,-0.027031000703573227
1779997169254216700,4.181216796875,0.0175819993019104,0.0009529999806545675,0.0003370000049471855
1779997169271493000,4.1984931640625,-0.2875480055809021,0.0055610002018511295,0.02720700018107891
1779997169288769500,4.21576953125,-0.400503009557724,0.006060999818146229,0.030301999300718307
1779997169306046200,4.233046142578125,-0.3326910138130188,0.007899000309407711,0.02091200090944767
1779997169323322600,4.250322509765625,0.012954999692738056,-0.0012870000209659338,0.00571299996227026
1779997169340599000,4.26759912109375,0.26783499121665955,-0.0017040000529959798,-0.015805000439286232
1779997169357875500,4.28487548828125,0.4050759971141815,-0.007215999998152256,-0.029603000730276108
1779997169375152000,4.302152099609375,0.30889299511909485,-0.006072999909520149,-0.02493100054562092
1779997169392428300,4.31942822265625,0.006182000041007996,0.001689000055193901,0.0009790000040084124
1779997169409705000,4.336705078125,-0.2670229971408844,0.002268000040203333,0.02432600036263466
1779997169426981400,4.3539814453125,-0.40486299991607666,0.007666999939829111,0.026823999360203743
1779997169444257800,4.3712578125,-0.30773699283599854,0.005135999992489815,0.019809000194072723
1779997169461534200,4.3885341796875,0.0016659999964758754,-0.0005280000041238964,0.004395000170916319
1779997169478811000,4.405810791015625,0.2672330141067505,-0.001563000027090311,-0.016482999548316002
1779997169496087600,4.423087646484375,0.3997899889945984,-0.009460999630391598,-0.028351999819278717
1779997169513363700,4.44036376953125,0.28943198919296265,-0.005059999879449606,-0.023083999752998352
1779997169530640400,4.457640380859375,0.010203000158071518,0.0019549999851733446,0.0009869999485090375
1779997169547916800,4.474916748046875,-0.2660059928894043,0.003191000083461404,0.024330999702215195
1779997169565193200,4.492193115234375,-0.39724498987197876,0.00811699964106083,0.02814199961721897
1779997169582469600,4.5094697265625,-0.2959809899330139,0.0033569999504834414,0.019096000120043755
1779997169599746300,4.526746337890625,-0.00015300000086426735,-0.0003650000144261867,0.00420599989593029
1779997169617022500,4.5440224609375,0.26968100666999817,-0.004470000043511391,-0.016387000679969788
1779997169634299100,4.561299072265625,0.3874480128288269,-0.008515000343322754,-0.02800999954342842
1779997169651575600,4.578575439453125,0.2808539867401123,-0.0053980001248419285,-0.023427000269293785
1779997169668852200,4.595852294921875,0.009576000273227692,0.0011520000407472253,-0.00040600000647827983
1779997169703405000,4.630405029296875,-0.38332399725914,0.006990000139921904,0.02642899937927723
1779997169720681500,4.647681396484375,-0.28672799468040466,0.00431999983265996,0.019173000007867813
1779997169737958000,4.6649580078125,0.006138000171631575,-0.0004250000056345016,0.004269000142812729
1779997169755234300,4.682234375,0.26455798745155334,-0.002644999884068966,-0.0149940000846982
1779997169772511000,4.699510986328125,0.376103013753891,-0.007460999768227339,-0.026991000398993492
1779997169789787400,4.716787353515625,0.27318599820137024,-0.003346000099554658,-0.022059999406337738
1779997169807063800,4.734063720703125,0.004170000087469816,0.0012779999524354935,0.0018850000342354178
1779997169824340500,4.751340576171875,-0.2578200101852417,0.0025659999810159206,0.024459000676870346
1779997169841617000,4.768616943359375,-0.375108003616333,0.009171999990940094,0.025225000455975533
1779997169867531500,4.794531494140625,-0.14336499571800232,0.002549000084400177,0.012027000077068806
1779997169884808200,4.81180810546875,0.14530199766159058,-0.0023240000009536743,-0.006366000045090914
1779997169902084600,4.829084716796875,0.33966198563575745,-0.005584000144153833,-0.02357500046491623
1779997169919361000,4.846361083984375,0.3427329957485199,-0.006635999772697687,-0.025654999539256096
1779997169936637400,4.863637451171875,0.1458519995212555,-0.0019120000069960952,-0.009948000311851501
1779997169953914000,4.8809140625,-0.14044399559497833,0.003396000014618039,0.014919999986886978
1779997169971190300,4.898190185546875,-0.33735600113868713,0.006473999936133623,0.025922000408172607
1779997169988467000,4.915467041015625,-0.3484799861907959,0.0061599998734891415,0.02135000005364418
1779997170005743400,4.932743408203125,-0.13809500634670258,0.0023590000346302986,0.010932999663054943
1779997170023019800,4.950019775390625,0.14691400527954102,-0.002776999957859516,-0.006670000031590462
1779997170040296400,4.96729638671875,0.3350769877433777,-0.006754999980330467,-0.023003999143838882
1779997170057572900,4.98457275390625,0.3325510025024414,-0.008163999766111374,-0.02646300010383129
1779997170074849300,5.001849365234375,0.13811099529266357,-0.0013830000534653664,-0.01319700013846159
1779997170092125700,5.019125732421875,-0.14134199917316437,0.0021379999816417694,0.011793999932706356
1779997170109402400,5.03640234375,-0.3287160098552704,0.0045079998672008514,0.02745700068771839
1779997170126678800,5.0536787109375,-0.33746400475502014,0.005973000079393387,0.021095000207424164
1779997170143955500,5.07095556640625,-0.13100600242614746,0.002087000058963895,0.011458000168204308
1779997170161232000,5.08823193359375,0.145019993185997,-0.0019940000493079424,-0.006422999780625105
1779997170178508000,5.105508056640625,0.32609298825263977,-0.004683999810367823,-0.022833000868558884
1779997170195784700,5.12278466796875,0.32274100184440613,-0.006697999779134989,-0.02525700069963932
1779997170213061400,5.140061279296875,0.13101500272750854,0.00011500000255182385,-0.010343999601900578
1779997170230337500,5.157337646484375,-0.14091700315475464,0.0033660000190138817,0.01576399989426136
1779997170247614200,5.1746142578125,-0.3242979943752289,0.006901999935507774,0.024917999282479286
1779997170273528800,5.20052880859375,-0.24886800348758698,0.004176999907940626,0.018086999654769897
1779997170290805200,5.21780517578125,0.017480000853538513,-0.0007340000011026859,0.0022980000358074903
1779997170308082000,5.23508203125,0.25184398889541626,-0.004654999822378159,-0.015273000113666058
1779997170325358300,5.2523583984375,0.3458879888057709,-0.006628999952226877,-0.025536000728607178
1779997170342634800,5.269634765625,0.23646500706672668,-0.0052629997953772545,-0.01787400059401989
1779997170359911400,5.286911376953125,-0.010754999704658985,0.0009309999877586961,0.0007089999853633344
1779997170377187800,5.304187744140625,-0.24863600730895996,0.003326999954879284,0.018588999286293983
1779997170394464300,5.32146435546875,-0.34249401092529297,0.005677000153809786,0.02285899966955185
1779997170411740700,5.33874072265625,-0.2355699986219406,0.0036200000904500484,0.01632699929177761
1779997170429017300,5.356017333984375,0.023795999586582184,-0.0004900000058114529,0.002549000084400177
1779997170446293800,5.373293701171875,0.250436007976532,-0.0027129999361932278,-0.01486899983137846
1779997170463570200,5.390570068359375,0.3329249918460846,-0.006457999814301729,-0.024320000782608986
1779997170480846800,5.407846923828125,0.22413699328899384,-0.006391999777406454,-0.01792600005865097
1779997170498123300,5.425123291015625,-0.017304999753832817,-0.00024900000425986946,0.0019650000613182783
1779997170524038000,5.451037841796875,-0.3099609911441803,0.005193999968469143,0.02173900045454502
1779997170541314600,5.468314453125,-0.3038010001182556,0.0050849998369812965,0.018533000722527504
1779997170558591000,5.485591064453125,-0.1051350012421608,0.003280000062659383,0.008937999606132507
1779997170575867600,5.50286767578125,0.14868900179862976,-0.0018439999548718333,-0.007652999833226204
1779997170593144000,5.52014404296875,0.3088879883289337,-0.004676999989897013,-0.02122100070118904
1779997170610420500,5.53742041015625,0.2921789884567261,-0.00583899999037385,-0.02216999977827072
1779997170627697000,5.55469677734375,0.10467799752950668,-0.0021669999696314335,-0.005766000133007765
1779997170644973300,5.571973388671875,-0.1466439962387085,0.004112999886274338,0.014278000220656395
1779997170662250000,5.58925,-0.309596985578537,0.005491000134497881,0.02230899967253208
1779997170679526400,5.6065263671875,-0.29589998722076416,0.004701000172644854,0.018476000055670738
1779997170696802800,5.623802734375,-0.09737300127744675,0.001016999944113195,0.007664000149816275
1779997170714079500,5.64107958984375,0.15281200408935547,-0.003713000100106001,-0.008112000301480293
1779997170731356000,5.65835595703125,0.3072640001773834,-0.006382999941706657,-0.022127000615000725
1779997170748632600,5.675632568359375,0.2855769991874695,-0.006113999988883734,-0.022557999938726425
1779997170765909000,5.692908935546875,0.09768400341272354,-0.00056900002527982,-0.006167000159621239
1779997170783185400,5.710185302734375,-0.1506350040435791,0.0035910001024603844,0.014302000403404236
1779997170800461800,5.7274619140625,-0.3070339858531952,0.005450000055134296,0.022451000288128853
1779997170817738200,5.74473828125,-0.28898999094963074,0.0045980000868439674,0.018874000757932663
1779997170835015000,5.762014892578125,-0.0896959975361824,0.0004670000053010881,0.007892999798059464
1779997170852291300,5.779291259765625,0.15583600103855133,-0.0033629999961704016,-0.008755999617278576
1779997170869567700,5.796567626953125,0.3048099875450134,-0.004040999803692102,-0.02177399955689907
1779997170886844400,5.813844482421875,0.2779810130596161,-0.004513000138103962,-0.02108200080692768
1779997170904120800,5.831120849609375,0.09011700004339218,-0.00014400000509340316,-0.004404999781399965
1779997170921397200,5.848397216796875,-0.15392200648784637,0.0033400000538676977,0.01534000039100647
1779997170938674000,5.865673828125,-0.304298996925354,0.005659999791532755,0.02217100001871586
1779997170955950300,5.882950439453125,-0.2813679873943329,0.0052559999749064445,0.01789099909365177
1779997170973226800,5.900226806640625,-0.08204799890518188,0.002073999959975481,0.006701999809592962
1779997170990503400,5.91750341796875,0.15881599485874176,-0.0013899999903514981,-0.00861200038343668
1779997171007779800,5.93477978515625,0.30120399594306946,-0.004002999980002642,-0.021273000165820122
1779997171025056300,5.95205615234375,0.27064600586891174,-0.006008000113070011,-0.020966000854969025
1779997171042332700,5.969332763671875,0.08211699873209,-0.002211000071838498,-0.005096999928355217
1779997171059609300,5.986609375,-0.15577499568462372,0.0027439999394118786,0.013110999949276447
1779997171076886000,6.003885986328125,-0.2997159957885742,0.004116999916732311,0.02074499987065792
1779997171094162200,6.021162109375,-0.2718369960784912,0.0055320002138614655,0.017271000891923904
1779997171111438800,6.03843896484375,-0.07397200167179108,0.0021619999315589666,0.00735200010240078
1779997171128715500,6.055715576171875,0.16060300171375275,-0.0018700000364333391,-0.008527999743819237
1779997171145992000,6.072991943359375,0.29656699299812317,-0.004424999933689833,-0.02068299986422062
1779997171163268400,6.090268310546875,0.26073598861694336,-0.005830999929457903,-0.020562000572681427
1779997171180544800,6.107544677734375,0.07425499707460403,-0.0017920000245794654,-0.0052089998498559
1779997171197821400,6.124821533203125,-0.157601997256279,0.0023870000150054693,0.013562999665737152
1779997171223736000,6.150736083984375,-0.3031289875507355,0.003973999992012978,0.020634999498724937
1779997171241012500,6.168012451171875,-0.17899399995803833,0.001955999992787838,0.012504000216722488
1779997171258289200,6.1852890625,0.05496300011873245,-0.0022950000129640102,-0.0015429999912157655
1779997171275565600,6.202565673828125,0.24554699659347534,-0.004098000004887581,-0.01686299964785576
1779997171292842000,6.219842041015625,0.2949430048465729,-0.005787000060081482,-0.02208700031042099
1779997171310118400,6.237118408203125,0.17302800714969635,-0.0038189999759197235,-0.012298000045120716
1779997171327395000,6.25439501953125,-0.0513789989054203,0.0003760000108741224,0.006868999917060137
1779997171344671500,6.27167138671875,-0.24422399699687958,0.00442600017413497,0.019161999225616455
1779997171361948000,6.288947998046875,-0.29824399948120117,0.005282999947667122,0.019664999097585678
1779997171379224600,6.306224609375,-0.17063499987125397,0.003074999898672104,0.01142400037497282
1779997171396501000,6.3235009765625,0.06019800156354904,-0.0012730000307783484,-0.0017869999865069985
1779997171413777400,6.34077734375,0.2453629970550537,-0.004809000063687563,-0.01667499914765358
1779997171431054000,6.35805419921875,0.28882700204849243,-0.004978999961167574,-0.02251500077545643
1779997171448330500,6.37533056640625,0.1643020063638687,-0.002471999963745475,-0.012380000203847885
1779997171465607000,6.39260693359375,-0.05715399980545044,0.0017229999648407102,0.0059739998541772366
1779997171482883300,6.40988330078125,-0.24397699534893036,0.004612000193446875,0.018755000084638596
1779997171500160000,6.427159912109375,-0.2916420102119446,0.005708000157028437,0.020400000736117363
1779997171517436700,6.444436767578125,-0.16175200045108795,0.0045079998672008514,0.012507000006735325
1779997171534712800,6.461712890625,0.06518100202083588,-0.00013899999612476677,-0.0010939999483525753
1779997171551989500,6.478989501953125,0.2451069951057434,-0.0031640001107007265,-0.016193000599741936
1779997171569266000,6.496265869140625,0.2824999988079071,-0.00355600006878376,-0.021261999383568764
1779997171586542600,6.51354248046875,0.15656399726867676,-0.00228899996727705,-0.010634000413119793
1779997171603819000,6.530819091796875,-0.06189100071787834,0.0014309999532997608,0.0071299998089671135
1779997171621095400,6.548095458984375,-0.24254299700260162,0.003544999985024333,0.019021999090909958
1779997171638372000,6.5653720703125,-0.2847369909286499,0.003990999888628721,0.01895100064575672
1779997171655648800,6.582648681640625,-0.15253299474716187,0.0018139999592676759,0.00989499967545271
1779997171672925200,6.59992529296875,0.07099200040102005,-0.002130999928340316,-0.0029700000304728746
1779997171690201600,6.61720166015625,0.245059996843338,-0.005371000152081251,-0.016284000128507614
1779997171707478300,6.634478271484375,0.2771869897842407,-0.005874999798834324,-0.021090000867843628
1779997171724754700,6.651754638671875,0.1484680026769638,-0.0032999999821186066,-0.01056199986487627
1779997171742031000,6.669031005859375,-0.06780000030994415,0.0018050000071525574,0.006473999936133623
1779997171759307800,6.686307861328125,-0.2431579977273941,0.004064999986439943,0.01733900047838688
1779997171776584200,6.703584228515625,-0.27880001068115234,0.003648000070825219,0.017860999330878258
1779997171793860600,6.720860595703125,-0.14419099688529968,0.001990000018849969,0.010001000016927719
1779997171811137000,6.738136962890625,0.07574400305747986,-0.0012649999698624015,-0.0031190000008791685
1779997171828413400,6.755413330078125,0.2442220002412796,-0.004280999768525362,-0.016826000064611435
1779997171845690000,6.772690185546875,0.2702690064907074,-0.004424000158905983,-0.021028999239206314
1779997171871605000,6.79860498046875,0.036639001220464706,-0.00035099999513477087,-0.0016289999475702643
1779997171888881400,6.81588134765625,-0.17121300101280212,0.003131000092253089,0.014015999622642994
1779997171906157800,6.83315771484375,-0.27897998690605164,0.005781000014394522,0.019332999363541603
1779997171923434200,6.850434326171875,-0.22330600023269653,0.0043379999697208405,0.015436000190675259
1779997171940711000,6.8677109375,-0.028209999203681946,0.0008239999879151583,0.004071999806910753
1779997171957987600,6.884987548828125,0.17504900693893433,-0.002445999998599291,-0.009976999834179878
1779997171975264000,6.902263916015625,0.2745710015296936,-0.004488000180572271,-0.019555000588297844
1779997171992540400,6.91954052734375,0.21431800723075867,-0.0030380000825971365,-0.016472000628709793
1779997172009817000,6.936817138671875,0.029146000742912292,-0.0002589999930933118,-0.0010849999962374568
1779997172027093800,6.95409375,-0.17388899624347687,0.002845000009983778,0.013763999566435814
1779997172044370000,6.971369873046875,-0.27628999948501587,0.0035689999349415302,0.0191079992800951
1779997172061646600,6.988646484375,-0.21530300378799438,0.0023610000498592854,0.014871000312268734
1779997172078923000,7.005923095703125,-0.02175999991595745,-0.00012199999764561653,0.0031109999399632215
1779997172096199700,7.02319970703125,0.1771859973669052,-0.0036510000936686993,-0.010924000293016434
1779997172113476000,7.04047607421875,0.2711009979248047,-0.003868000116199255,-0.02124599926173687
1779997172130752500,7.05775244140625,0.20785999298095703,-0.004133999813348055,-0.01576700061559677
1779997172148029000,7.07502880859375,0.023339999839663506,-0.0005150000215508044,0.0002969999914057553
1779997172173943800,7.10094384765625,-0.24144700169563293,0.005611000116914511,0.01720999926328659
1779997172191220500,7.118220458984375,-0.2619450092315674,0.0056329998187720776,0.01631000079214573
1779997172208496600,7.13549658203125,-0.12072999775409698,0.003145999973639846,0.008395999670028687
1779997172225773300,7.152773193359375,0.0898900032043457,-0.002222999930381775,-0.0032530000898987055
1779997172243050000,7.170050048828125,0.2421730011701584,-0.005098000168800354,-0.015723999589681625
1779997172260326400,7.187326416015625,0.25325900316238403,-0.005623999983072281,-0.017976000905036926
1779997172277602800,7.204602783203125,0.11764799803495407,-0.002093000104650855,-0.008058999665081501
1779997172294879200,7.221879150390625,-0.08728399872779846,0.002194999950006604,0.007833999581634998
1779997172312156000,7.239156005859375,-0.2401210069656372,0.004658999852836132,0.01707400009036064
1779997172329432600,7.2564326171875,-0.25462600588798523,0.00457700015977025,0.01587899960577488
1779997172346708700,7.273708740234375,-0.11194799840450287,0.0019460000330582261,0.007852000184357166
1779997172363985400,7.2909853515625,0.09463000297546387,-0.0011020000092685223,-0.00457100011408329
1779997172381261800,7.30826171875,0.24118700623512268,-0.004610000178217888,-0.015930000692605972
1779997172398538200,7.325538330078125,0.24623499810695648,-0.004238999914377928,-0.018668999895453453
1779997172415815000,7.34281494140625,0.10998699814081192,-0.001449999981559813,-0.008387000299990177
1779997172433091600,7.360091552734375,-0.09186699986457825,-0.000009000000318337698,0.008477999828755856
1779997172450367700,7.37736767578125,-0.23903800547122955,0.002749999985098839,0.01793299987912178
1779997172467644400,7.39464453125,-0.24867400527000427,0.002678999910131097,0.016313999891281128
1779997172484920800,7.4119208984375,-0.10537099838256836,0.0030670000705868006,0.006140000186860561
1779997172502197200,7.429197265625,0.09789499640464783,-0.00044800000614486635,-0.006304999813437462
1779997172519474000,7.446473876953125,0.23976700007915497,-0.003208999987691641,-0.01726900041103363
1779997172536750300,7.463750244140625,0.24039900302886963,-0.004631999880075455,-0.017191000282764435
1779997172554027000,7.481027099609375,0.10324099659919739,-0.0012410000199452043,-0.006432999856770039
1779997172571303400,7.498303466796875,-0.09697400033473969,0.0032889998983591795,0.008274000138044357
1779997172588579800,7.515579833984375,-0.23902499675750732,0.004389000125229359,0.0174189992249012
1779997172605856500,7.5328564453125,-0.24345900118350983,0.004238000139594078,0.016534000635147095
1779997172623133000,7.5501328125,-0.09817799925804138,0.001028000027872622,0.00788899976760149
1779997172640409600,7.56740966796875,0.10223100334405899,-0.0015750000020489097,-0.0057219997979700565
1779997172657686000,7.58468603515625,0.23834200203418732,-0.004172999877482653,-0.016589999198913574
1779997172674962700,7.601962646484375,0.23496900498867035,-0.005528999958187342,-0.017444999888539314
1779997172692238800,7.61923876953125,0.09504500031471252,-0.003269999986514449,-0.0061240000650286674
1779997172709515500,7.636515625,-0.10044600069522858,0.003355999942868948,0.009403999894857407
1779997172726792200,7.653792236328125,-0.23852699995040894,0.004916999954730272,0.018717000260949135
1779997172744068400,7.671068359375,-0.23729699850082397,0.003963000141084194,0.015730999410152435
1779997172761344800,7.6883447265625,-0.09223199635744095,0.0009539999882690609,0.006430000066757202
1779997172778621400,7.705621337890625,0.10570599883794785,-0.0021200000774115324,-0.006616999860852957
1779997172795897900,7.72289794921875,0.23782099783420563,-0.00392200006172061,-0.01795399934053421
1779997172813174500,7.740174560546875,0.2298250049352646,-0.003965000156313181,-0.017131000757217407
1779997172830451000,7.757450927734375,0.0901309996843338,-0.0030479999259114265,-0.004238000139594078
1779997172847727400,7.774727294921875,-0.10462500154972076,0.0011879999656230211,0.010010999627411366
1779997172865004000,7.792004150390625,-0.2370699942111969,0.004269999917596579,0.01657800003886223
1779997172882280700,7.80928076171875,-0.23301799595355988,0.003996000159531832,0.014809000305831432
1779997172899557000,7.82655712890625,-0.08524499833583832,0.002085000043734908,0.006351000163704157
1779997172916833500,7.84383349609375,0.10927099734544754,-0.0015620000194758177,-0.006527000106871128
1779997172934110000,7.86110986328125,0.2363000065088272,-0.003335000015795231,-0.01659500040113926
1779997172951386600,7.87838671875,0.22532899677753448,-0.0019549999851733446,-0.01665700040757656
1779997172968663300,7.895663330078125,0.0831189975142479,-0.0036120000295341015,-0.0053900000639259815
1779997172985939700,7.912939697265625,-0.10724999755620956,0.0018729999428614974,0.007141999900341034
1779997173003216100,7.930216064453125,-0.23588800430297852,0.0029730000533163548,0.01707799918949604
1779997173020492500,7.947492431640625,-0.22487400472164154,0.00419999985024333,0.01537100039422512
1779997173037769200,7.964769287109375,-0.07858899980783463,0.001411000033840537,0.006990999914705753
1779997173055045600,7.982045654296875,0.11226700246334076,-0.0013680000556632876,-0.00546699995175004
1779997173072322300,7.999322265625,0.23297399282455444,-0.00420599989593029,-0.01668200083076954
1779997173089598700,8.0165986328125,0.21807000041007996,-0.002858000108972192,-0.017734000459313393
1779997173106875100,8.033875244140624,0.07723399996757507,-0.0008709999965503812,-0.005669999867677689
1779997173132790000,8.0597900390625,-0.18477199971675873,0.002592999953776598,0.014454999938607216
1779997173150066700,8.077066650390625,-0.2454420030117035,0.003918000031262636,0.01664000004529953
1779997173167342800,8.0943427734375,-0.15829400718212128,0.0022909999825060368,0.011529999785125256
1779997173184619500,8.11161962890625,0.024653000757098198,-0.00039599998854100704,0.000691999972332269
1779997173201896200,8.128896240234376,0.1878100037574768,-0.0030479999259114265,-0.012241999618709087
1779997173219172900,8.1461728515625,0.24020099639892578,-0.003470000112429261,-0.017802000045776367
1779997173236449000,8.163448974609375,0.1532679945230484,-0.0019399999873712659,-0.01097199972718954
1779997173253725700,8.1807255859375,-0.02264999970793724,0.0008379999781027436,0.0026000000070780516
1779997173271002000,8.198002197265625,-0.18587900698184967,0.003306000027805567,0.013787999749183655
1779997173288278500,8.215278564453126,-0.241006001830101,0.0033279999624937773,0.01567699946463108
1779997173305555200,8.23255517578125,-0.15101400017738342,0.0022319999989122152,0.009917999617755413
1779997173331469800,8.2584697265625,0.11849000304937363,-0.002111000008881092,-0.006835999898612499
1779997173348746200,8.275746337890626,0.229093998670578,-0.005102999974042177,-0.01600099913775921
1779997173366023000,8.29302294921875,0.20583699643611908,-0.004108000081032515,-0.01606000028550625
1779997173383299600,8.310299560546875,0.06403099745512009,-0.0007149999728426337,-0.005173000041395426
1779997173400576000,8.327575927734374,-0.11693699657917023,0.002833999926224351,0.009871999733150005
1779997173417852400,8.344852294921875,-0.22886699438095093,0.004786999896168709,0.016654999926686287
1779997173435129000,8.362129150390626,-0.20775899291038513,0.005667000077664852,0.012904999777674675
1779997173452405500,8.379405517578125,-0.059059999883174896,0.0007810000097379088,0.004647000227123499
1779997173469682000,8.396681884765625,0.12024799734354019,-0.0028299998957663774,-0.00598399993032217
1779997173486958600,8.41395849609375,0.22618600726127625,-0.004197999835014343,-0.015545000322163105
1779997173504235000,8.431235107421875,0.2001979947090149,-0.0037579999770969152,-0.014798000454902649
1779997173521511400,8.448511474609376,0.05738599970936775,-0.0006569999968633056,-0.0030640000477433205
1779997173538788000,8.4657880859375,-0.11962299793958664,0.0022589999716728926,0.010354000143706799
1779997173556064500,8.483064453125,-0.22759799659252167,0.004495999775826931,0.016951000317931175
1779997173573341000,8.5003408203125,-0.20161199569702148,0.003667999990284443,0.013706999830901623
1779997173590617600,8.51761767578125,-0.0521249994635582,0.0008030000026337802,0.00393499992787838
1779997173607894000,8.53489404296875,0.12337300181388855,-0.000097999996796716,-0.007728999946266413
1779997173625170700,8.552170654296875,0.22530099749565125,-0.0017979999538511038,-0.015922000631690025
1779997173642447000,8.569447021484375,0.19483299553394318,-0.003907000180333853,-0.013035999611020088
1779997173659723500,8.5867236328125,0.05270100012421608,-0.002372999908402562,-0.002535999985411763
1779997173677000200,8.604000244140625,-0.12257000058889389,-0.00012700000661425292,0.009453999809920788
1779997173694276600,8.621276611328126,-0.22560499608516693,0.0029170000925660133,0.014014000073075294
1779997173711553000,8.638552978515625,-0.19510400295257568,0.0032450000289827585,0.011559000238776207
1779997173728829700,8.65582958984375,-0.04546099901199341,0.000391999987186864,0.0036069999914616346
1779997173746106000,8.673106201171874,0.12690900266170502,-0.0037559999618679285,-0.007542999926954508
1779997173763382500,8.690382568359375,0.22313599288463593,-0.00394799979403615,-0.015495999716222286
1779997173780659200,8.7076591796875,0.18890400230884552,-0.003329999977722764,-0.014282000251114368
1779997173797935600,8.724935546875,0.0456789992749691,-0.0008929999894462526,-0.0023759999312460423
1779997173815212000,8.7422119140625,-0.1255439966917038,0.00254100002348423,0.010027999989688396
1779997173832488700,8.75948876953125,-0.2243569940328598,0.0024939998984336853,0.01641100086271763
1779997173849765000,8.77676513671875,-0.19017000496387482,0.0038040000945329666,0.012736000120639801
1779997173867041500,8.79404150390625,-0.0407710000872612,-0.000666000007186085,0.0037990000564604998
1779997173884318200,8.811318115234375,0.12896600365638733,-0.0032969999592751265,-0.007662999909371138
1779997173901595000,8.828594970703126,0.22006399929523468,-0.003628999926149845,-0.016301000490784645
1779997173918871000,8.84587109375,0.18326300382614136,-0.0017480000387877226,-0.014821999706327915
1779997173936147700,8.863147705078125,0.039987001568078995,-0.0001230000052601099,-0.001791000016964972
1779997173953424400,8.88042431640625,-0.12788499891757965,0.0006350000039674342,0.012624000199139118
1779997173970700800,8.89770068359375,-0.22196200489997864,0.004095000214874744,0.015468000434339046
1779997173987977200,8.914977294921876,-0.1851149946451187,0.0047900001518428326,0.010409999638795853
1779997174005254000,8.93225390625,-0.03457599878311157,0.001623000018298626,0.002795000094920397
1779997174022530300,8.9495302734375,0.1310809999704361,-0.002099999925121665,-0.008036999963223934
1779997174039807000,8.966806884765624,0.21933600306510925,-0.004865999799221754,-0.015277000144124031
1779997174057083400,8.98408349609375,0.179299995303154,-0.0014550000196322799,-0.01423100009560585
1779997174074359800,9.00135986328125,0.03532100096344948,0.0003060000017285347,-0.0020119999535381794
1779997174091636500,9.018636474609375,-0.12904700636863708,0.003449999960139394,0.010261000134050846
1779997174108913000,9.035912841796875,-0.21975800395011902,0.003280000062659383,0.016112999990582466
1779997174126189600,9.053189453125,-0.17888100445270538,0.0029539999086409807,0.011932999826967716
1779997174143466000,9.070466064453125,-0.03013800084590912,0.000754999986384064,0.002812999999150634
1779997174160742700,9.08774267578125,0.13356399536132812,-0.0019539999775588512,-0.008574999868869781
1779997174178018800,9.105018798828125,0.21648499369621277,-0.004581000190228224,-0.01537800021469593
1779997174195295500,9.12229541015625,0.17395199835300446,-0.001986999996006489,-0.01421900000423193
1779997174212572200,9.139572265625,0.03073599934577942,-0.0011190000222995877,-0.0017869999865069985
1779997174229848600,9.1568486328125,-0.13138100504875183,0.0019890000112354755,0.011629999615252018
1779997174247125000,9.174125,-0.21728099882602692,0.0020379999186843634,0.016913000494241714
1779997174264401700,9.191401611328125,-0.17397800087928772,0.003447999944910407,0.01217699982225895
1779997174281678300,9.20867822265625,-0.025467999279499054,0.001006999984383583,0.0024969999212771654
1779997174298954800,9.225954833984375,0.1350329965353012,-0.0013970000436529517,-0.008023999631404877
1779997174316231200,9.243231201171875,0.21416999399662018,-0.004288000054657459,-0.014515000395476818
1779997174333507600,9.260507568359374,0.16890999674797058,-0.004033000208437443,-0.012365000322461128
1779997174350784300,9.2777841796875,0.02540300041437149,-0.0007179999956861138,-0.0015200000489130616
1779997174368060700,9.295060791015626,-0.13363200426101685,0.0030620000325143337,0.008674999698996544
1779997174385337300,9.31233740234375,-0.21471500396728516,0.004141999874264002,0.01380900014191866
1779997174402613800,9.32961376953125,-0.16864700615406036,0.0028800000436604023,0.01056000031530857
1779997174419890200,9.34689013671875,-0.020346999168395996,-0.0007980000227689743,0.0024319998919963837
1779997174437166800,9.364166748046875,0.13603800535202026,-0.002002999885007739,-0.008410000242292881
1779997174454443300,9.381443359375,0.21086999773979187,-0.004433999769389629,-0.01459600031375885
1779997174471720000,9.398719970703125,0.16295799612998962,-0.0020979999098926783,-0.012059999629855156
1779997174488996000,9.41599609375,0.01984499953687191,-0.00011700000322889537,-0.0011709999525919557
1779997174506272800,9.433272705078124,-0.13510900735855103,0.002604000037536025,0.009624999947845936
1779997174523549200,9.450549072265625,-0.21217699348926544,0.0037720000836998224,0.013497999869287014
1779997174540825900,9.467825927734374,-0.16221100091934204,0.002274000085890293,0.01027199998497963
1779997174558102300,9.485102294921875,-0.015169000253081322,-0.00031800000579096377,0.0014819999923929572
1779997174575379000,9.50237890625,0.13734999299049377,-0.002678999910131097,-0.009056000038981438
1779997174592655000,9.519655029296874,0.20834000408649445,-0.0033100000582635403,-0.01485699974000454
1779997174609931800,9.536931884765625,0.15752199292182922,-0.002948000095784664,-0.011423000134527683
1779997174627208400,9.55420849609375,0.015548000112175941,-0.0008270000107586384,0.0007800000021234155
1779997174644484900,9.57148486328125,-0.13654500246047974,0.0018560000462457538,0.01155100017786026
1779997174661761300,9.58876123046875,-0.20888400077819824,0.0029360000044107437,0.015382000245153904
1779997174679038000,9.606037841796875,-0.1565299928188324,0.0034229999873787165,0.011540999636054039
1779997174696314400,9.623314453125,-0.010332999750971794,0.000455000001238659,0.002549000084400177
1779997174713590800,9.6405908203125,0.13944999873638153,-0.0008820000221021473,-0.008922000415623188
1779997174730867500,9.657867431640625,0.20556199550628662,-0.002618999918922782,-0.014910999685525894
1779997174748144000,9.67514404296875,0.15224599838256836,-0.0023270000237971544,-0.011381000280380249
1779997174765420500,9.692420654296875,0.010603999719023705,0.000003000000106112566,0.0001939999929163605
1779997174782697000,9.709697021484375,-0.13854800164699554,0.001967000076547265,0.01081900019198656
1779997174799973600,9.7269736328125,-0.20659300684928894,0.003684000112116337,0.013942999765276909
1779997174817250300,9.744250244140625,-0.1521809995174408,0.002739999908953905,0.009664000011980534
1779997174834526700,9.761526611328126,-0.005799999926239252,0.0003239999932702631,0.000965000013820827
1779997174851803100,9.77880322265625,0.1403069943189621,-0.0029060000088065863,-0.00901699997484684
1779997174869079600,9.79607958984375,0.20302200317382812,-0.0031479999888688326,-0.014116999693214893
1779997174886356200,9.813356201171874,0.14722700417041779,-0.002652999944984913,-0.010005000047385693
1779997174903632600,9.830632568359375,0.005770999938249588,0.00004999999873689376,0.0009599999757483602
1779997174920909300,9.847909423828124,-0.1402129977941513,0.002647999906912446,0.010619999840855598
1779997174938185700,9.865185791015625,-0.20433999598026276,0.003558000084012747,0.01321600005030632
1779997174955462400,9.88246240234375,-0.1464489996433258,0.0018939999863505363,0.00941499974578619
1779997174972738600,9.899738525390624,-0.0010989999864250422,-0.0007140000234358013,0.0009590000263415277
1779997174990015200,9.91701513671875,0.14215600490570068,-0.0030219999607652426,-0.00967200007289648
1779997175007292000,9.9342919921875,0.20093800127506256,-0.003809999907389283,-0.014077000319957733
1779997175024568300,9.951568359375,0.1423729956150055,-0.0022720000706613064,-0.01020899973809719
1779997175041845000,9.968844970703126,0.0017579999985173345,-0.00012700000661425292,0.0008290000259876251
1779997175059121400,9.986121337890625,-0.1413639932870865,0.0021899999119341373,0.011327000334858894
1779997175076397800,10.003397705078125,-0.2012380063533783,0.003367000026628375,0.014433999545872211
1779997175093674200,10.02067431640625,-0.14091600477695465,0.0019120000069960952,0.010080000385642052
1779997175110951000,10.037950927734375,0.0034749999176710844,0.00015100000018719584,0.0005549999768845737
1779997175128227300,10.055227294921876,0.14350099861621857,-0.0029009999707341194,-0.009814999997615814
1779997175145503700,10.072503662109375,0.1982399970293045,-0.003260999917984009,-0.015432000160217285
1779997175162780400,10.089780517578125,0.1378989964723587,-0.0018309999722987413,-0.010629000142216682
1779997175180057000,10.10705712890625,-0.0021120000164955854,-0.00021499999274965376,0.0011729999678209424
1779997175197333500,10.12433349609375,-0.14195199310779572,0.0013930000131949782,0.010679000057280064
1779997175214610000,10.14160986328125,-0.19840900599956512,0.002997000003233552,0.013074999675154686
1779997175231886600,10.158886474609375,-0.13668100535869598,0.0019049999536946416,0.009108000434935093
1779997175249163300,10.176163330078126,0.006874999962747097,-0.00010699999984353781,0.00031599999056197703
1779997175266439400,10.193439453125,0.14371100068092346,-0.002263000002130866,-0.009956000372767448
1779997175283716000,10.210716064453125,0.1950789988040924,-0.002942000050097704,-0.014259000308811665
1779997175300992800,10.22799267578125,0.13281500339508057,-0.00216299993917346,-0.009317000396549702
1779997175318269200,10.245269287109375,-0.006273000035434961,0.00008199999865610152,0.0018850000342354178
1779997175335545600,10.262545654296876,-0.1428540050983429,0.0029239999130368233,0.0112119996920228
1779997175352822300,10.279822265625,-0.19602499902248383,0.004474999848753214,0.013174000196158886
1779997175370098700,10.2970986328125,-0.13218200206756592,0.0021490000654011965,0.00936300028115511
1779997175387375000,10.314375,0.010174999944865704,0.00007300000288523734,0.00019799999427050352
1779997175404651800,10.33165185546875,0.1441510021686554,-0.0027089999057352543,-0.009456999599933624
1779997175421928400,10.348928466796876,0.19199299812316895,-0.003456000005826354,-0.01464099995791912
1779997175439204600,10.36620458984375,0.1283009946346283,-0.0025690000038594007,-0.009153000079095364
1779997175456481300,10.383481201171875,-0.009940999560058117,0.0006270000012591481,0.0018749999580904841
1779997175473757700,10.4007578125,-0.1435289978981018,0.0028639999218285084,0.010821999981999397
1779997175491034400,10.418034423828125,-0.19258999824523926,0.0039900001138448715,0.012644000351428986
1779997175508310800,10.435310791015626,-0.1270740032196045,0.0021699999924749136,0.008781000040471554
1779997175525587500,10.45258740234375,0.014476999640464783,-0.0005119999987073243,0.0004130000015720725
1779997175551502000,10.478502197265625,0.18119299411773682,-0.003604999976232648,-0.012753999792039394
1779997175568778500,10.495778564453126,0.16870899498462677,-0.0022950000129640102,-0.013062999583780766
1779997175586055200,10.51305517578125,0.059769999235868454,-0.0008559999987483025,-0.004275999963283539
1779997175603331800,10.530331787109375,-0.08534800261259079,0.0014809999847784638,0.007000000216066837
1779997175620608300,10.547608154296874,-0.18018899857997894,0.003269999986514449,0.01231599971652031
1779997175637884700,10.564884765625,-0.16941900551319122,0.003063000040128827,0.011390999890863895
1779997175655161300,10.582161376953126,-0.054864998906850815,0.001500000013038516,0.004852999933063984
1779997175672437800,10.599437744140625,0.08889500051736832,-0.0009790000040084124,-0.00471699982881546
1779997175689714400,10.61671435546875,0.17949800193309784,-0.0023240000009536743,-0.01279400009661913
1779997175706990800,10.633990966796874,0.16447199881076813,-0.0014489999739453197,-0.012821000069379807
1779997175724267300,10.651267333984375,0.05468500033020973,-0.0005949999904260039,-0.003317000111564994
1779997175741544000,10.6685439453125,-0.08778499811887741,0.0014430000446736813,0.007625999860465527
1779997175758820400,10.6858203125,-0.1789039969444275,0.002314999932423234,0.013061000034213066
1779997175776097000,10.703096923828125,-0.16506099700927734,0.002604000037536025,0.010758000425994396
1779997175793373400,10.72037353515625,-0.05155299976468086,0.00031400000443682075,0.003911999985575676
1779997175810649900,10.73764990234375,0.09085000306367874,-0.0018530000234022737,-0.0054339999333024025
1779997175827926500,10.754926513671874,0.17778900265693665,-0.0035600000992417336,-0.01279400009661913
1779997175845203000,10.772202880859375,0.1600479930639267,-0.003490000031888485,-0.012527000159025192
1779997175862479400,10.789479248046876,0.05000400170683861,-0.0011109999613836408,-0.003435000078752637
1779997175879756000,10.806756103515625,-0.09051399677991867,0.0011259999591857195,0.007857000455260277
1779997175897032400,10.824032470703125,-0.17823900282382965,0.0027749999426305294,0.012059999629855156
1779997175914308900,10.841308837890624,-0.1620199978351593,0.002005999907851219,0.010270999744534492
1779997175931585500,10.85858544921875,-0.04654400050640106,0.0005300000193528831,0.0033319999929517508
1779997175948862200,10.8758623046875,0.09230799973011017,-0.001905999961309135,-0.005791999865323305
1779997175966138600,10.893138671875,0.1765889972448349,-0.003823000006377697,-0.011951000429689884
1779997175983415000,10.9104150390625,0.15667599439620972,-0.002624999964609742,-0.010916000232100487
1779997176000691700,10.927691650390624,0.046339001506567,-0.0004290000069886446,-0.0025319999549537897
1779997176017968000,10.944968017578125,-0.09248899668455124,0.0027489999774843454,0.007567999884486198
1779997176035244500,10.96224462890625,-0.1766429990530014,0.0035200000274926424,0.01279400009661913
1779997176052521000,10.97952099609375,-0.15653400123119354,0.0033629999961704016,0.010344999842345715
1779997176069797600,10.996797607421875,-0.04284000024199486,0.0010160000529140234,0.002856000093743205
1779997176087074300,11.01407421875,0.09467600286006927,-0.001505000051110983,-0.006045999936759472
1779997176104350700,11.031350830078125,0.1753000020980835,-0.002443999983370304,-0.012432999908924103
1779997176121627100,11.048627197265626,0.15279999375343323,-0.0036700000055134296,-0.011428000405430794
1779997176138903800,11.06590380859375,0.04236600175499916,-0.0016339999856427312,-0.003114999970421195
1779997176156180200,11.08318017578125,-0.09373000264167786,0.0011360000353306532,0.006914000026881695
1779997176173456600,11.10045654296875,-0.17442600429058075,0.0033050000201910734,0.011711999773979187
1779997176190733300,11.1177333984375,-0.1530199944972992,0.002139999996870756,0.01039199996739626
1779997176208009700,11.135009765625,-0.037735000252723694,0.00020799999765586108,0.0038429999258369207
1779997176225286100,11.1522861328125,0.0963750034570694,-0.001281999982893467,-0.006014000158756971
1779997176242562800,11.169562744140626,0.17302900552749634,-0.0020840000361204147,-0.013012000359594822
1779997176259839500,11.186839599609375,0.14833800494670868,-0.002749999985098839,-0.010879999957978725
1779997176277116000,11.204115966796875,0.038221001625061035,-0.0013899999903514981,-0.0019470000406727195
1779997176294392300,11.221392333984374,-0.09590999782085419,0.0015219999477267265,0.0075079998932778835
1779997176311669000,11.2386689453125,-0.17364999651908875,0.003220000071451068,0.011926000006496906
1779997176328945700,11.255945556640626,-0.1485549956560135,0.002724000019952655,0.009840000420808792
1779997176346222000,11.27322216796875,-0.03436499834060669,0.0005949999904260039,0.0029410000424832106
1779997176363498800,11.290498779296875,0.09767600148916245,-0.0015200000489130616,-0.005685000214725733
1779997176380775200,11.307775146484374,0.17136099934577942,-0.0021210000850260258,-0.011920999735593796
1779997176398051600,11.325051513671875,0.1441659927368164,-0.001230000052601099,-0.010755999945104122
1779997176415328000,11.342327880859376,0.03373900055885315,0.0001049999991664663,-0.0016509999986737967
1779997176432604700,11.359604736328125,-0.09784799814224243,0.0016120000509545207,0.00786300003528595
1779997176449881300,11.37688134765625,-0.17166200280189514,0.0029460000805556774,0.011757999658584595
1779997176467157800,11.39415771484375,-0.1445769965648651,0.0024470000062137842,0.00940100010484457
1779997176484434200,11.41143408203125,-0.030517999082803726,-0.00007999999797903001,0.002136999974027276
1779997176501710600,11.428710693359376,0.0994890034198761,-0.002768999896943569,-0.006467999890446663
1779997176518987300,11.4459873046875,0.16959799826145172,-0.003111999947577715,-0.012331999838352203
1779997176536264000,11.463263916015626,0.1405249983072281,-0.0024129999801516533,-0.010483000427484512
1779997176553540400,11.480540283203124,0.030324000865221024,-0.0003699999942909926,-0.0015790000325068831
1779997176570816800,11.497816650390625,-0.09847600013017654,0.0015109999803826213,0.008267000317573547
1779997176588093400,11.515093505859374,-0.16937200725078583,0.0028429999947547913,0.01281999982893467
1779997176605369900,11.532369873046875,-0.13999700546264648,0.0024190000258386135,0.010400000028312206
1779997176622646300,11.549646240234376,-0.026322999969124794,0.000539999979082495,0.0027379998937249184
1779997176639923000,11.5669228515625,0.10078199952840805,-0.0013379999436438084,-0.005814999807626009
1779997176657199600,11.58419970703125,0.1683329939842224,-0.003318999893963337,-0.011633999645709991
1779997176674475800,11.601475830078124,0.13683100044727325,-0.0031840000301599503,-0.00976799987256527
1779997176691752400,11.61875244140625,0.027091000229120255,-0.0009139999747276306,-0.001069999998435378
1779997176709029000,11.636029052734376,-0.09998399764299393,0.0015069999499246478,0.007278000004589558
1779997176726305500,11.653305419921875,-0.16811500489711761,0.0024580000899732113,0.010758000425994396
1779997176743582000,11.67058203125,-0.13602900505065918,0.0020069999154657125,0.009105999954044819
1779997176760858600,11.687858642578124,-0.02266000024974346,-0.00005500000042957254,0.0025220001116394997
1779997176778135000,11.705135009765625,0.1023470014333725,-0.002191999927163124,-0.006692999973893166
1779997176795411500,11.722411376953126,0.16601699590682983,-0.002704000100493431,-0.012374999932944775
1779997176812688100,11.739688232421875,0.13283400237560272,-0.002406999934464693,-0.009719000197947025
1779997176829964500,11.756964599609375,0.02241699956357479,-0.0002390000008745119,-0.0008340000058524311
1779997176847241200,11.7742412109375,-0.10161100327968597,0.0021559998858720064,0.007670999970287085
1779997176864517600,11.791517578125,-0.16603100299835205,0.003229999914765358,0.010983999818563461
1779997176881794300,11.808794189453126,-0.1324480026960373,0.0017099999822676182,0.008829000405967236
1779997176899070700,11.82607080078125,-0.019308999180793762,-0.00038499999209307134,0.0016299999551847577
1779997176916347100,11.84334716796875,0.10311400145292282,-0.0019180000526830554,-0.006792000029236078
1779997176933623800,11.860623779296875,0.1638530045747757,-0.0017630000365898013,-0.012310000136494637
1779997176950900200,11.877900146484375,0.1283089965581894,-0.001550000044517219,-0.009728999808430672
1779997176968176600,11.8951767578125,0.0189449992030859,0.00009200000204145908,-0.00033000000985339284
1779997176985453300,11.912453369140625,-0.10250400006771088,0.0022789998911321163,0.00860700011253357
1779997177002730000,11.92972998046875,-0.16415099799633026,0.00367900007404387,0.011187000200152397
1779997177020006100,11.947006103515625,-0.1281830072402954,0.0030950000509619713,0.008538000285625458
1779997177037282800,11.96428271484375,-0.015929000452160835,0.0006910000229254365,0.0019539999775588512
1779997177054559500,11.9815595703125,0.10443399846553802,-0.0016370000084862113,-0.005921000149101019
1779997177071836000,11.9988359375,0.1622599959373474,-0.00204299995675683,-0.01142099965363741
1779997177089112300,12.0161123046875,0.12531200051307678,-0.0014600000577047467,-0.009223000146448612
1779997177106389000,12.033388916015625,0.015432000160217285,-0.0001049999991664663,-0.0005039999959990382
1779997177123665400,12.05066552734375,-0.10402499884366989,0.001259000040590763,0.008341999724507332
1779997177140941800,12.06794189453125,-0.16208800673484802,0.0025029999669641256,0.011246999725699425
1779997177158218500,12.085218505859375,-0.12461599707603455,0.001984999980777502,0.007031999994069338
1779997177175495200,12.1024951171875,-0.012817000038921833,-0.0005670000100508332,0.0005310000269673765
1779997177192771300,12.119771240234375,0.10525199770927429,-0.003438000101596117,-0.006500000134110451
1779997177210048000,12.137048095703125,0.159962996840477,-0.003986999858170748,-0.01179100014269352
1779997177227324700,12.15432470703125,0.12066499888896942,-0.0025510000996291637,-0.009345999918878078
1779997177244601000,12.17160107421875,0.011640000157058239,-0.00030499999411404133,-0.000493000028654933
1779997177261877500,12.18887744140625,-0.10478000342845917,0.0011050000321120024,0.008387000299990177
1779997177279154200,12.206154296875,-0.16036300361156464,0.002788000041618943,0.011264000087976456
1779997177296430800,12.223430908203126,-0.12030799686908722,0.00344299990683794,0.007973999716341496
1779997177313707300,12.240707275390625,-0.009320000186562538,0.0006459999713115394,0.00043200000072829425
1779997177330983700,12.257983642578125,0.10592000186443329,-0.003145999973639846,-0.007124000228941441
1779997177348260400,12.27526025390625,0.15753300487995148,-0.0038769999518990517,-0.01159099955111742
1779997177365536800,12.292536865234375,0.11686199903488159,-0.002328000031411648,-0.009434999898076057
1779997177382813400,12.3098134765625,0.008313000202178955,-0.0004939999780617654,-0.0014949999749660492
1779997177400089900,12.32708984375,-0.10614299774169922,0.0009079999872483313,0.007542000152170658
1779997177426004700,12.353004638671875,-0.14905300736427307,0.0024429999757558107,0.009882999584078789
1779997177443281200,12.37028125,-0.06573600322008133,0.0018060000147670507,0.004294999875128269
1779997177460557600,12.3875576171875,0.05545800179243088,0.00101500004529953,-0.0031969998963177204
1779997177477834200,12.404834228515625,0.14348700642585754,-0.001339999958872795,-0.008911999873816967
1779997177495111000,12.42211083984375,0.14640399813652039,-0.0019940000493079424,-0.00965999998152256
1779997177512387000,12.439386962890625,0.06454899907112122,-0.00012700000661425292,-0.003782999934628606
1779997177529663700,12.456663818359376,-0.05493900179862976,0.0022789998911321163,0.0055669997818768024
1779997177546940400,12.4739404296875,-0.14266900718212128,0.002351999981328845,0.010313999839127064
1779997177564217000,12.491217041015625,-0.1465570032596588,0.0011480000102892518,0.010940000414848328
1779997177581493500,12.508493408203124,-0.062171000987291336,0.0011680000461637974,0.0051380000077188015
1779997177598770000,12.52577001953125,0.05720200017094612,-0.0011399999493733048,-0.003601999953389168
1779997177616046600,12.543046630859376,0.14268800616264343,-0.0027459999546408653,-0.010614000260829926
1779997177633323000,12.560322998046875,0.1432880014181137,-0.0029949999880045652,-0.009446999989449978
1779997177650599400,12.577599365234375,0.06166199967265129,-0.00047500000800937414,-0.0036720000207424164
1779997177667876000,12.5948759765625,-0.05683799833059311,0.0016349999932572246,0.0049749999307096004
1779997177685152800,12.61215283203125,-0.14127999544143677,0.0035860000643879175,0.011452999897301197
1779997177702429200,12.62942919921875,-0.14358699321746826,0.002830999903380871,0.01029099989682436
1779997177719705600,12.64670556640625,-0.05922500044107437,0.0007910000276751816,0.003918999806046486
1779997177736982000,12.66398193359375,0.05843700096011162,-0.00027200000477023423,-0.004790999926626682
1779997177754258700,12.6812587890625,0.14129799604415894,-0.0017940000398084521,-0.011718999594449997
1779997177771535000,12.69853515625,0.14058400690555573,-0.0027439999394118786,-0.011621999554336071
1779997177788811800,12.715811767578124,0.05816999822854996,-0.003160000080242753,-0.005280999932438135
1779997177806088200,12.733088134765625,-0.05807900056242943,-0.0008859999943524599,0.0032049999572336674
1779997177823364900,12.75036474609375,-0.14063400030136108,0.0018700000364333391,0.007577000185847282
1779997177840641300,12.767641357421875,-0.13989199697971344,0.0019239999819546938,0.0077840001322329044
1779997177857917700,12.784917724609375,-0.055456001311540604,0.00028700000257231295,0.0043310001492500305
1779997177875194400,12.8021943359375,0.060492001473903656,-0.0013470000121742487,-0.0024850000627338886
1779997177892470800,12.819470703125,0.1402750015258789,-0.0017810000572353601,-0.009477999992668629
1779997177909747500,12.83674755859375,0.13653600215911865,-0.001101000001654029,-0.009651999920606613
1779997177927023900,12.85402392578125,0.054010000079870224,0.00037900000461377203,-0.00266700005158782
1779997177944300300,12.87130029296875,-0.06077900156378746,0.0011490000179037452,0.0055669997818768024
1779997177961577000,12.888576904296874,-0.13934899866580963,0.0028280001133680344,0.010670999996364117
1779997177978853600,12.905853515625,-0.1367879956960678,0.0022690000478178263,0.009854000061750412
1779997177996130000,12.923130126953126,-0.052076999098062515,-0.00018000000272877514,0.004416999872773886
1779997178013406500,12.940406494140625,0.06211800128221512,-0.003011999884620309,-0.003080999944359064
1779997178030683100,12.95768310546875,0.13871300220489502,-0.0036120000295341015,-0.00970499962568283
1779997178047959600,12.97495947265625,0.13300999999046326,-0.0017630000365898013,-0.010460999794304371
1779997178065236200,12.992236328125,0.050119999796152115,0.00017299999308306724,-0.0030960000585764647
1779997178082512600,13.0095126953125,-0.06293699890375137,0.0012839999981224537,0.006326000206172466
1779997178099789000,13.0267890625,-0.13876500725746155,0.0029279999434947968,0.010838000103831291
1779997178117065700,13.044065673828126,-0.1340630054473877,0.003481999970972538,0.00850600004196167
1779997178134342100,13.061342041015624,-0.04841899871826172,0.0020490000024437904,0.0030700000934302807
1779997178151618800,13.078618896484375,0.06408800184726715,-0.0009340000106021762,-0.0038670001085847616
1779997178168895200,13.095895263671874,0.13841800391674042,-0.002804999938234687,-0.008817000314593315
1779997178186172000,13.113171875,0.1306779980659485,-0.002139999996870756,-0.009344000369310379
1779997178203448300,13.1304482421875,0.04729900136590004,-0.000526999996509403,-0.003324999939650297
1779997178220724700,13.147724853515625,-0.06421799957752228,0.0009759999811649323,0.004788000136613846
1779997178238001400,13.16500146484375,-0.1375569999217987,0.0020800000056624413,0.009763999842107296
1779997178255277800,13.18227783203125,-0.1299079954624176,0.0020580000709742308,0.009336999617516994
1779997178272554500,13.199554443359375,-0.04504600167274475,0.0013299999991431832,0.004342000000178814
1779997178289831200,13.2168310546875,0.0658000037074089,-0.00004099999932805076,-0.00356299988925457
1779997178307107600,13.234107666015625,0.13714000582695007,-0.001762000028975308,-0.008967000059783459
1779997178324384000,13.251384033203125,0.12773999571800232,-0.0015360000543296337,-0.008968000300228596
1779997178341660400,13.268660400390624,0.04452599957585335,0.00008800000068731606,-0.002753000007942319
1779997178358937000,13.28593701171875,-0.06581400334835052,0.0008730000117793679,0.005613999906927347
1779997178376213800,13.3032138671875,-0.13625599443912506,0.0017579999985173345,0.010228999890387058
1779997178393490200,13.320490234375,-0.1277099996805191,0.0012910000514239073,0.008090999908745289
1779997178410766600,13.3377666015625,-0.04199400171637535,0.000391999987186864,0.0018469999777153134
1779997178428043300,13.355043212890624,0.06709200143814087,-0.0016240000259131193,-0.005900000222027302
1779997178445319700,13.372319580078125,0.13614200055599213,-0.003195999888703227,-0.011509999632835388
1779997178462596000,13.38959619140625,0.12485499680042267,-0.0040870001539587975,-0.009995000436902046
1779997178479872800,13.406872802734375,0.041262999176979065,-0.0019650000613182783,-0.0027719999197870493
1779997178497149400,13.4241494140625,-0.06718900054693222,0.0009110000100918114,0.0048870001919567585
1779997178514425900,13.44142578125,-0.13596099615097046,0.002331000054255128,0.008857999928295612
1779997178531702300,13.458702392578125,-0.1244330033659935,0.0022700000554323196,0.007621000055223703
1779997178548979000,13.47597900390625,-0.03869500011205673,0.0005339999916031957,0.0031419999431818724
1779997178566255000,13.493255126953125,0.06907399743795395,-0.0013930000131949782,-0.0034890000242739916
1779997178583531800,13.51053173828125,0.13548199832439423,-0.0026400000788271427,-0.00849900022149086
1779997178600808400,13.527808349609375,0.1221499964594841,-0.0025059999898076057,-0.008464000187814236
1779997178618085000,13.545085205078125,0.03803899884223938,-0.00048099999548867345,-0.00279999990016222
1779997178635361500,13.562361572265624,-0.06883099675178528,0.0018479999853298068,0.0047160000540316105
1779997178652638000,13.579637939453125,-0.13435600697994232,0.0029440000653266907,0.00964100006967783
1779997178669914600,13.59691455078125,-0.12127500027418137,0.0020240000449121,0.00865899957716465
1779997178687191300,13.61419140625,-0.03544899821281433,-0.00004400000034365803,0.002759000053629279
1779997178704467500,13.631467529296875,0.07048700004816055,-0.002005999907851219,-0.0038610000628978014
1779997178721744100,13.648744140625,0.13397499918937683,-0.0014880000380799174,-0.00937500037252903
1779997178739020800,13.666020751953125,0.1186320036649704,-0.000977999996393919,-0.008845999836921692
1779997178756297200,13.683297119140626,0.034956999123096466,0.00036899998667649925,-0.0020620001014322042
1779997178773573600,13.70057373046875,-0.07003799825906754,0.0019209999591112137,0.00583899999037385
1779997178790850300,13.717850341796876,-0.13326500356197357,0.001892999978736043,0.01029600016772747
1779997178808126700,13.735126708984374,-0.11840900033712387,0.001964000053703785,0.00817199982702732
1779997178825403100,13.752403076171875,-0.03264399990439415,0.0009379999828524888,0.0019369999645277858
1779997178842679800,13.7696796875,0.07139100134372711,-0.0011599999852478504,-0.005510000046342611
1779997178859956500,13.78695654296875,0.13228000700473785,-0.002107999986037612,-0.009971000254154205
1779997178877232600,13.804232666015626,0.11555600166320801,-0.0016299999551847577,-0.008856999687850475
1779997178894509300,13.82150927734375,0.0318400003015995,-0.0009660000214353204,-0.001711999997496605
1779997178911786000,13.838785888671875,-0.07144500315189362,0.0008740000193938613,0.0057310000993311405
1779997178929062100,13.856062255859374,-0.1323550045490265,0.0021929999347776175,0.009244999848306179
1779997178946338800,13.8733388671875,-0.1155410036444664,0.002730000065639615,0.008315999992191792
1779997178963615500,13.890615478515626,-0.03014500066637993,0.0012110000243410468,0.00241199997253716
1779997178980892000,13.907891845703125,0.07220999896526337,-0.0008449999731965363,-0.005065999925136566
1779997178998168300,13.925168212890625,0.13108399510383606,-0.001879999996162951,-0.00991700030863285
1779997179015445000,13.942445068359374,0.1126210018992424,-0.002492000116035342,-0.00774999987334013
1779997179032721700,13.9597216796875,0.028584999963641167,-0.0012499999720603228,-0.000990999978967011
1779997179049998000,13.976998046875,-0.07255999743938446,0.0018149999668821692,0.0054270001128315926
1779997179067274500,13.9942744140625,-0.13083399832248688,0.002718999981880188,0.00878200028091669
1779997179084551200,14.01155126953125,-0.11206600069999695,0.0022249999456107616,0.007980999536812305
1779997179101827300,14.028827392578124,-0.02674799971282482,0.0009260000078938901,0.0023900000378489494
1779997179119104000,14.04610400390625,0.07402800023555756,-0.0019209999591112137,-0.004774000030010939
1779997179136380700,14.063380615234376,0.13061299920082092,-0.002429000101983547,-0.009258000180125237
1779997179153657300,14.0806572265625,0.11039300262928009,-0.0018350000027567148,-0.008426000364124775
1779997179170933800,14.097933837890626,0.0264040008187294,-0.0013269999762997031,-0.0017679999582469463
1779997179188210200,14.115210205078125,-0.07317599654197693,0.0004900000058114529,0.005874000024050474
1779997179205486800,14.13248681640625,-0.12925000488758087,0.001972000114619732,0.008991999551653862
1779997179222763500,14.149763427734374,-0.10955999791622162,0.0026660000439733267,0.007809000089764595
1779997179240039700,14.167039794921875,-0.024250999093055725,0.0012080000014975667,0.002865999937057495
1779997179257316400,14.18431640625,0.07472000271081924,-0.0008079999824985862,-0.0038950000889599323
1779997179274593000,14.201593017578125,0.1288979947566986,-0.0012959999730810523,-0.009065000340342522
1779997179291869700,14.21886962890625,0.10776399821043015,-0.0008159999852068722,-0.008507000282406807
1779997179309145900,14.236145751953124,0.023215999826788902,-0.0003819999983534217,-0.0019729998894035816
1779997179326422500,14.253422607421875,-0.07443899661302567,0.0005590000073425472,0.005295999813824892
1779997179343699200,14.27069921875,-0.12845000624656677,0.0005489999894052744,0.007984000258147717
1779997179360975400,14.287975341796875,-0.10673700273036957,-0.00011999999696854502,0.006386000197380781
1779997179378252000,14.305251953125,-0.021741999313235283,-0.000025999999706982635,0.00060299999313429
1779997179395528700,14.32252880859375,0.07526499778032303,-0.001395000028423965,-0.005497000180184841
1779997179412805400,14.339805419921875,0.12725600600242615,-0.0018240000354126096,-0.00876300036907196
1779997179430081800,14.357081787109376,0.1042110025882721,-0.0006820000126026571,-0.00646300008520484
1779997179447358200,14.374358154296875,0.02045699954032898,0.0008009999874047935,-9.999999974752427e-7
1779997179464635000,14.391634765625,-0.07634499669075012,0.0022479998879134655,0.0059710000641644
1779997179481911300,14.408911376953125,-0.12714199721813202,0.0016550000291317701,0.00849200040102005
1779997179499187700,14.426187744140625,-0.10333500057458878,0.0006510000093840063,0.00648100022226572
1779997179516464400,14.44346435546875,-0.018224000930786133,-0.0014199999859556556,0.0006890000076964498
1779997179533741000,14.460740966796875,0.07703399658203125,-0.0033209999091923237,-0.006142999976873398
1779997179551017500,14.478017578125,0.12601499259471893,-0.003911999985575676,-0.009584999643266201
1779997179568294000,14.4952939453125,0.10180900245904922,-0.0022609999869018793,-0.007666000165045261
1779997179585570600,14.512570556640625,0.0175160001963377,0.00017299999308306724,-0.0008859999943524599
1779997179602847000,14.529846923828124,-0.07726799696683884,0.002713999943807721,0.0065020001493394375
1779997179620123400,14.547123291015625,-0.12583300471305847,0.003790999995544553,0.010095999576151371
1779997179637400000,14.564400146484376,-0.10104099661111832,0.0033450000919401646,0.008541000075638294
1779997179654676500,14.581676513671875,-0.016436999663710594,0.0013500000350177288,0.00254400004632771
1779997179671953000,14.598952880859375,0.07695099711418152,-0.00027099999715574086,-0.00494399992749095
1779997179689229600,14.6162294921875,0.12443099915981293,-0.0019470000406727195,-0.009328000247478485
1779997179706506200,14.63350634765625,0.09856300055980682,-0.001934999949298799,-0.008433000184595585
1779997179723782700,14.65078271484375,0.015527999959886074,-0.0010849999962374568,-0.0015040000434964895
1779997179741059000,14.66805908203125,-0.07699699699878693,0.001474000047892332,0.005468999966979027
1779997179758335700,14.685335693359375,-0.12463799864053726,0.0023849999997764826,0.008809000253677368
1779997179775612400,14.7026123046875,-0.09814699739217758,0.002203000010922551,0.007091999985277653
1779997179792888800,14.719888916015625,-0.014023999683558941,0.0008859999943524599,0.0016799999866634607
1779997179810165200,14.737165283203124,0.07781899720430374,0.0003499999875202775,-0.004616000223904848
1779997179827442000,14.75444189453125,0.122639000415802,-0.0013699999544769526,-0.008263000287115574
1779997179844718600,14.771718505859376,0.09589499980211258,-0.001297999988310039,-0.006934000179171562
1779997179861995000,14.7889951171875,0.013438000343739986,-0.0009449999779462814,-0.00036700000055134296
1779997179879271400,14.806271484375,-0.07769700139760971,0.0006189999985508621,0.005661000031977892
1779997179896547800,14.8235478515625,-0.12241899967193604,0.0011490000179037452,0.008318999782204628
1779997179913824500,14.840824462890625,-0.0947360023856163,0.0007479999912902713,0.005795999895781279
1779997179931101200,14.85810107421875,-0.010844999924302101,-0.0009120000177063048,0.0006079999729990959
1779997179948377600,14.875377685546875,0.07921600341796875,-0.001973999897018075,-0.0058120000176131725
1779997179965654000,14.892654052734375,0.12183400243520737,-0.002896999940276146,-0.009015999734401703
1779997179982930700,14.9099306640625,0.0929189994931221,-0.002122000092640519,-0.00674000009894371
1779997180008845300,14.93584521484375,-0.03688500076532364,-0.00048600000445730984,0.002678999910131097
1779997180026122000,14.9531220703125,-0.10777000337839127,0.0013729999773204327,0.007431999780237675
1779997180043398700,14.970398681640624,-0.11590000241994858,0.0017209999496117234,0.00785799976438284
1779997180060674800,14.9876748046875,-0.05421600118279457,0.0012799999676644802,0.003381999908015132
1779997180077951500,15.004951416015626,0.03854399919509888,-0.0010049999691545963,-0.0025309999473392963
1779997180095228200,15.022228271484375,0.10843800008296967,-0.00278700003400445,-0.0069670001976192
1779997180112504600,15.039504638671875,0.11363500356674194,-0.0019239999819546938,-0.007662000134587288
1779997180129781000,15.056781005859374,0.0521400012075901,0.00013299999409355223,-0.0035379999317228794
1779997180147057700,15.0740576171875,-0.03919599950313568,0.001373999984934926,0.003286000108346343
1779997180164334300,15.091334228515626,-0.10819300264120102,0.0019000000320374966,0.008076000027358532
1779997180181610500,15.108610595703125,-0.11314599961042404,0.002237000036984682,0.00788700021803379
1779997180198887200,15.12588720703125,-0.051711998879909515,0.0004619999963324517,0.004153999965637922
1779997180216163800,15.143163818359374,0.04018399864435196,-0.0005329999839887023,-0.0023690001107752323
1779997180233440300,15.160440185546875,0.10745900124311447,-0.0018850000342354178,-0.0071310000494122505
1779997180250716700,15.177716552734376,0.11229400336742401,-0.0010019999463111162,-0.007728999946266413
1779997180267993300,15.194993408203125,0.05029800161719322,0.0006210000137798488,-0.003350999904796481
1779997180285270000,15.21227001953125,-0.04033400118350983,0.0020179999992251396,0.002819000044837594
1779997180302546700,15.229546630859375,-0.10749199986457825,0.0019809999503195286,0.007968000136315823
1779997180319822800,15.24682275390625,-0.11115200072526932,0.0013689999468624592,0.008150000125169754
1779997180337099500,15.264099609375,-0.0487390011548996,0.000977999996393919,0.0032369999680668116
1779997180354376200,15.281376220703125,0.04181800037622452,0.0002300000051036477,-0.0029299999587237835
1779997180371652400,15.29865234375,0.10763700306415558,-0.002225999953225255,-0.00810300000011921
1779997180388929000,15.315928955078125,0.10976599901914597,-0.002662000013515353,-0.00828699953854084
1779997180406205700,15.333205810546875,0.04790300130844116,-0.0014359999913722277,-0.004294999875128269
1779997180423482400,15.350482421875,-0.041537001729011536,0.00036899998667649925,0.0026229999493807554
1779997180440758500,15.367758544921875,-0.10643699765205383,0.0014100000262260437,0.008124000392854214
1779997180458035200,15.38503515625,-0.10840799659490585,0.0019359999569132924,0.007292000111192465
1779997180475311600,15.4023115234375,-0.0460520014166832,0.001290000043809414,0.0029949999880045652
1779997180492588300,15.41958837890625,0.04334799945354462,0.00016199999663513154,-0.002893999917432666
1779997180509864700,15.43686474609375,0.10603799670934677,-0.0011080000549554825,-0.007340000011026859
1779997180527141400,15.454141357421875,0.1067499965429306,-0.0020359999034553766,-0.007007000036537647
1779997180544417800,15.471417724609376,0.044390998780727386,-0.0010349999647587538,-0.0023399998899549246
1779997180561694200,15.488694091796875,-0.04356599971652031,0.0011749999830499291,0.003160000080242753
1779997180578971000,15.505970947265626,-0.10634499788284302,0.0018619999755173922,0.007395000196993351
1779997180596247300,15.523247314453124,-0.1063850000500679,0.0014720000326633453,0.007234000135213137
1779997180613524000,15.54052392578125,-0.043251000344753265,-0.00019299999985378236,0.0028299998957663774
1779997180630800400,15.55780029296875,0.04451499879360199,-0.0011190000222995877,-0.0032029999420046806
1779997180648077000,15.5750771484375,0.10557200014591217,-0.0024510000366717577,-0.008138000033795834
1779997180665353700,15.592353759765626,0.10435900092124939,-0.001990000018849969,-0.007542999926954508
1779997180682630100,15.609630126953125,0.04178899899125099,-0.0008779999916441739,-0.003003000048920512
1779997180699906600,15.626906494140625,-0.04538600146770477,0.0007140000234358013,0.0025059999898076057
1779997180717183200,15.644183349609374,-0.10588899999856949,0.002102999947965145,0.007002000231295824
1779997180734460000,15.6614599609375,-0.10375700145959854,0.0023159999400377274,0.007505999878048897
1779997180751736300,15.678736328125,-0.040369998663663864,0.0005119999987073243,0.0036800000816583633
1779997180769012700,15.6960126953125,0.04628099873661995,-0.0012799999676644802,-0.0026340000331401825
1779997180786289400,15.713289306640625,0.10508400201797485,-0.0019039999460801482,-0.007261999882757664
1779997180803566000,15.730566162109374,0.10201700031757355,-0.0017920000245794654,-0.007327999919652939
1779997180820842500,15.747842529296875,0.039051998406648636,-0.0007639999967068434,-0.0026990000624209642
1779997180838119000,15.765118896484376,-0.046539001166820526,0.0008759999764151871,0.003287999890744686
1779997180855395600,15.7823955078125,-0.1051580011844635,0.001478999969549477,0.007375000044703484
1779997180872672000,15.799672119140626,-0.10149099677801132,0.0016870000399649143,0.007143999915570021
1779997180889948400,15.816948486328124,-0.03792399913072586,0.0009769999887794256,0.0027469999622553587
1779997180907225000,15.83422509765625,0.04782100021839142,0.000050999999075429514,-0.002644000109285116
1779997180924501500,15.85150146484375,0.10449700057506561,-0.0012679999927058816,-0.00684799998998642
1779997180941778200,15.868778076171875,0.10006099939346313,-0.001449999981559813,-0.0068709999322891235
1779997180959054600,15.8860546875,0.03653499856591225,-0.00018699999782256782,-0.001896000001579523
1779997180976331300,15.903331298828125,-0.047968000173568726,0.0009769999887794256,0.003891000058501959
1779997180993607700,15.920607666015625,-0.10457900166511536,0.0014669999945908785,0.007135000079870224
1779997181010884000,15.937884033203124,-0.0991550013422966,0.0015259999781847,0.005969999823719263
1779997181028160800,15.955160888671875,-0.03478400036692619,-0.000056000000768108293,0.0020600000862032175
1779997181045437400,15.9724375,0.04915500059723854,-0.0015930000226944685,-0.0034920000471174717
1779997181062713900,15.9897138671875,0.10400000214576721,-0.002704000100493431,-0.007747999858111143
1779997181079990300,16.006990234375,0.09760800004005432,-0.0021510000806301832,-0.007269000168889761
1779997181097267000,16.024266845703124,0.03399600088596344,-0.00039400000241585076,-0.002251999918371439
1779997181114543400,16.04154345703125,-0.04907099902629852,0.001636000000871718,0.003854000009596348
1779997181131820000,16.058820068359374,-0.10358799993991852,0.0020039998926222324,0.0077240001410245895
1779997181149096700,16.0760966796875,-0.09637600183486938,0.001690999954007566,0.007253000047057867
1779997181166373000,16.093373046875,-0.03250499814748764,0.000060999998822808266,0.00240899994969368
1779997181183649500,16.1106494140625,0.050370000302791595,-0.0013510000426322222,-0.003524000057950616
1779997181200926000,16.127926025390625,0.10274600237607956,-0.0020129999611526728,-0.007615000009536743
1779997181218202600,16.14520263671875,0.09474100172519684,-0.0021559998858720064,-0.007158000022172928
1779997181235479300,16.162479248046875,0.03096099942922592,-0.0009330000029876828,-0.0021430000197142363
1779997181252755700,16.179755615234374,-0.05074600130319595,0.0007680000271648169,0.003949000034481287
1779997181270032100,16.1970322265625,-0.10342299938201904,0.001563000027090311,0.007797999773174524
1779997181287308800,16.214308837890623,-0.0950080007314682,0.002085000043734908,0.007122000213712454
1779997181304585500,16.23158544921875,-0.0303530003875494,0.0009899999713525176,0.0023499999660998583
1779997181321862000,16.24886181640625,0.05121299996972084,0.00032699998700991273,-0.003217000048607588
1779997181339138600,16.266138671875,0.1021760031580925,-0.0006319999811239541,-0.006742999888956547
1779997181356415000,16.2834150390625,0.0926399976015091,-0.0016169999726116657,-0.005948999896645546
1779997181373691400,16.30069140625,0.028852000832557678,-0.0006520000169984996,-0.001509999972768128
1779997181390968000,16.317968017578124,-0.051892999559640884,0.001062000053934753,0.003920999821275473
1779997181408244500,16.335244384765623,-0.1025099977850914,0.0025049999821931124,0.007065000012516975
1779997181425521200,16.352521240234374,-0.09239300340414047,0.00229199999012053,0.006422999780625105
1779997181442797600,16.369797607421877,-0.027583999559283257,0.0016580000519752502,0.002426000079140067
1779997181460074000,16.387073974609375,0.053008999675512314,0.00002700000004551839,-0.00318100000731647
1779997181477350400,16.404350341796874,0.10243400186300278,-0.0008370000286959112,-0.006591999903321266
1779997181494627000,16.421626953125,0.09142599999904633,-0.0008159999852068722,-0.0059540001675486565
1779997181511903700,16.43890380859375,0.02703999914228916,-0.0004970000009052455,-0.0013599999947473407
1779997181529180400,16.456180419921875,-0.05219800025224686,0.0009069999796338379,0.004207999911159277
1779997181546456600,16.47345654296875,-0.10098099708557129,0.0016139999497681856,0.006560000125318766
1779997181563733200,16.490733154296876,-0.08946400135755539,0.0018240000354126096,0.005231999792158604
1779997181581010000,16.508010009765623,-0.024584000930190086,-0.00003199999991920777,0.0016129999421536922
1779997181598286300,16.525286376953126,0.05469999834895134,-0.0019600000232458115,-0.0035359999164938927
1779997181615562800,16.542562744140625,0.10172799974679947,-0.0022619999945163727,-0.007660999894142151
1779997181632839400,16.55983935546875,0.08909899741411209,-0.0018179999897256494,-0.006626000162214041
1779997181658754300,16.58575439453125,-0.015977000817656517,0.00015799999528098851,0.0009079999872483313
1779997181676030700,16.60303076171875,-0.08355700224637985,0.00020300000323913991,0.005876999814063311
1779997181693307100,16.62030712890625,-0.10177899897098541,0.0005890000029467046,0.006657999940216541
1779997181710583800,16.637583740234376,-0.05967700108885765,0.0003129999968223274,0.0036869999021291733
1779997181727860500,16.654860595703123,0.017358999699354172,-0.000590000010561198,-0.0010219999821856618
1779997181745137000,16.672136962890626,0.08381500095129013,-0.0015899999998509884,-0.006409000139683485
1779997181762413300,16.689413330078125,0.10073400288820267,-0.001962000038474798,-0.00698600010946393
1779997181779690000,16.70668994140625,0.05812700092792511,-0.0009110000100918114,-0.0038840000052005053
1779997181796966700,16.723966552734375,-0.018122000619769096,0.0006799999973736703,0.0016740000573918223
1779997181814243000,16.7412431640625,-0.08408699929714203,0.0014809999847784638,0.006572000216692686
1779997181831519500,16.75851953125,-0.10028199851512909,0.0015350000467151403,0.0072559998370707035
1779997181848796200,16.775796142578123,-0.0576849989593029,0.0006760000251233578,0.0036230001132935286
1779997181866072800,16.79307275390625,0.018696999177336693,0.00029200001154094934,-0.0017900000093504786
1779997181883349000,16.810348876953125,0.08390799909830093,-0.0013689999468624592,-0.006147999782115221
1779997181900625700,16.827625732421875,0.09844499826431274,-0.0019480000482872128,-0.007443999871611595
1779997181917902300,16.84490234375,0.05589599907398224,-0.0014250000240281224,-0.003512999974191189
1779997181935178500,16.862178466796873,-0.02017500065267086,0.0008989999769255519,0.002294000005349517
1779997181952455200,16.879455078125,-0.08459600061178207,0.0019030000548809767,0.006521999835968018
1779997181969731800,16.89673193359375,-0.09914000332355499,0.0020210000220686197,0.007185999769717455
1779997181987008500,16.914008544921874,-0.05521799996495247,0.0013830000534653664,0.003819999983534217
1779997182004285000,16.931284912109376,0.021105999127030373,-0.00004600000102072954,-0.000859999970998615
1779997182021561300,16.948561279296875,0.08403299748897552,-0.0009609999833628535,-0.006140000186860561
1779997182038838000,16.965838134765626,0.09772100299596786,-0.0010100000072270632,-0.007476999890059233
1779997182056114400,16.983114501953125,0.053849998861551285,-0.0005830000154674053,-0.0038030000869184732
1779997182073391000,17.00039111328125,-0.021320000290870667,0.00036700000055134296,0.0021089999936521053
1779997182090667500,17.01766748046875,-0.083746999502182,0.0013960000360384583,0.006326999980956316
1779997182107944200,17.034944091796874,-0.09672000259160995,0.002194999950006604,0.006959000136703253
1779997182125220400,17.052220458984376,-0.05245700106024742,0.0010089999996125698,0.004007000010460615
1779997182142497000,17.0694970703125,0.022464999929070473,0.0001610000035725534,-0.0004079999926034361
1779997182159773700,17.086773681640626,0.08419899642467499,-0.0010319999419152737,-0.00532800005748868
1779997182177050400,17.10405029296875,0.09563300013542175,-0.0014009999576956034,-0.006688999943435192
1779997182194326800,17.121326904296875,0.051493000239133835,-0.000678999989759177,-0.0035409999545663595
1779997182211603200,17.138603271484374,-0.022776000201702118,0.0004450000124052167,0.001970000099390745
1779997182228880000,17.1558798828125,-0.08347799628973007,0.0013569999719038606,0.0060339998453855515
1779997182246156300,17.17315625,-0.09467499703168869,0.0012000000569969416,0.006413999944925308
1779997182263432700,17.1904326171875,-0.04987100139260292,0.00029600001289509237,0.0033519999124109745
1779997182280709400,17.20770947265625,0.024437999352812767,-0.000805000017862767,-0.0015170000260695815
1779997182297986000,17.224986083984376,0.084197998046875,-0.0020210000220686197,-0.006304999813437462
1779997182315262500,17.242262451171875,0.09379500150680542,-0.0019320000428706408,-0.006868000142276287
1779997182332539000,17.259538818359374,0.0488240011036396,-0.0009420000133104622,-0.00380899989977479
1779997182349815600,17.276815673828125,-0.025148000568151474,0.0006719999946653843,0.0021430000197142363
1779997182367092000,17.294092041015624,-0.08397699892520905,0.0011569999624043703,0.0065910001285374165
1779997182384368600,17.31136865234375,-0.09298799932003021,0.0014430000446736813,0.007114999927580357
1779997182401645000,17.32864501953125,-0.04735000059008598,0.0006680000224150717,0.0030990000814199448
1779997182418921700,17.345921630859376,0.026016000658273697,-0.0005290000117383897,-0.0016280000563710928
1779997182436198100,17.3631982421875,0.08345899730920792,-0.0014609999489039183,-0.006095000077039003
1779997182453474800,17.380474853515626,0.09177599847316742,-0.001867000013589859,-0.00675999978557229
1779997182470751200,17.397751220703125,0.046498000621795654,-0.0011690000537782907,-0.0035089999437332153
1779997182488027600,17.415027587890624,-0.02645700052380562,0.0005660000024363399,0.001429000054486096
1779997182505304300,17.43230419921875,-0.08361499756574631,0.001306000049225986,0.005547000095248222
1779997182522580700,17.449580810546873,-0.09165900200605392,0.0010140000376850367,0.006128000095486641
1779997182539857400,17.466857421875,-0.04498099908232689,0.0005339999916031957,0.003335000015795231
1779997182565772000,17.49277197265625,0.0600849986076355,-0.0005629999795928597,-0.003942999988794327
1779997182583048700,17.510048583984375,0.09384199976921082,-0.0015849999617785215,-0.006837000139057636
1779997182600325400,17.527325439453126,0.07271800190210342,-0.0011289999820291996,-0.004912000149488449
1779997182617601500,17.5446015625,0.008902999572455883,0.0001320000010309741,-0.0004889999981969595
1779997182634878200,17.561878173828124,-0.06017899885773659,0.001155999954789877,0.004242999944835901
1779997182652155000,17.57915478515625,-0.0935949981212616,0.0019650000613182783,0.006033000070601702
1779997182669431300,17.596431396484373,-0.07188399881124496,0.0016400000313296914,0.004333000164479017
1779997182686707700,17.613707763671876,-0.007884000428020954,0.000155999994603917,0.0002969999914057553
1779997182703984400,17.630984375,0.06032099947333336,-0.0005119999987073243,-0.00418600020930171
1779997182721261000,17.648260986328125,0.09251300245523453,-0.000977999996393919,-0.007234999909996986
1779997182738537500,17.665537353515624,0.07022099941968918,-0.0012130000395700336,-0.004770999774336815
1779997182755814000,17.68281396484375,0.00698600010946393,-0.0005210000090301037,0.00046800001291558146
1779997182773090600,17.700090576171874,-0.06067899987101555,0.0009169999975711107,0.005009000189602375
1779997182790367200,17.7173671875,-0.09228300303220749,0.0018629999831318855,0.006459999829530716
1779997182807643400,17.734643310546875,-0.06909099966287613,0.0012169999536126852,0.004592999815940857
1779997182824920000,17.751920166015626,-0.004960999824106693,-0.0003429999924264848,0.0005150000215508044
1779997182842196700,17.76919677734375,0.061694998294115067,-0.001521000056527555,-0.004110999871045351
1779997182859473400,17.786473388671876,0.09197500348091125,-0.002466999925673008,-0.006498000118881464
1779997182876749600,17.80374951171875,0.06812900304794312,-0.0018720000516623259,-0.004873000085353851
1779997182894026200,17.821026123046874,0.004525000229477882,-0.00046999999904073775,-0.0004769999941345304
1779997182911303000,17.838302978515625,-0.061285000294446945,0.0006169999833218753,0.004887999966740608
1779997182928579300,17.855579345703124,-0.09094700217247009,0.0008290000259876251,0.00687999976798892
1779997182945856000,17.87285595703125,-0.06632199883460999,0.0007600000244565308,0.004645999986678362
1779997182963132400,17.89013232421875,-0.002768999896943569,0.0000779999973019585,-0.0001140000022132881
1779997182980409000,17.9074091796875,0.06245899945497513,-0.0010209999745711684,-0.004195000045001507
1779997182997685500,17.924685546875,0.09098400175571442,-0.0019809999503195286,-0.0056329998187720776
1779997183014962000,17.9419619140625,0.06581100076436996,-0.0011780000058934093,-0.004038999788463116
1779997183032238600,17.959238525390624,0.0025690000038594007,-0.00003899999865097925,0.0006050000083632767
1779997183049515000,17.976514892578123,-0.062474001199007034,0.0013909999979659915,0.004815000109374523
1779997183066791700,17.993791748046874,-0.09068600088357925,0.0009919999865815043,0.006054999772459269
1779997183084068000,18.011068115234377,-0.06545399874448776,0.0012469999492168427,0.0040790000930428505
1779997183101344800,18.0283447265625,-0.001728000002913177,-0.000375000003259629,0.00013499999477062374
1779997183118621400,18.045621337890626,0.062105000019073486,-0.0015670000575482845,-0.0045460001565515995
1779997183135897600,18.062897705078125,0.0889580026268959,-0.0016540000215172768,-0.006864999886602163
1779997183153174300,18.08017431640625,0.06352999806404114,-0.000610999995842576,-0.005249000154435635
1779997183170451000,18.097450927734375,0.0001140000022132881,0.00018200000340584666,-0.00027099999715574086
1779997183187727000,18.11472705078125,-0.06287000328302383,0.0009710000013001263,0.004854000173509121
1779997183205003800,18.132003662109376,-0.0895100012421608,0.0016430000541731715,0.006744000129401684
1779997183222280200,18.1492802734375,-0.06325999647378922,0.0012679999927058816,0.005311000160872936
1779997183239556600,18.166556640625,0.00019999999494757503,0.0002749999985098839,0.0002209999947808683
1779997183256833300,18.183833251953125,0.06276500225067139,-0.00020599999697878957,-0.005140999797731638
1779997183274110000,18.20110986328125,0.08848699927330017,-0.0012420000275596976,-0.007067999802529812
1779997183291386400,18.218386474609375,0.061799999326467514,-0.00046300000394694507,-0.005109999794512987
1779997183308662800,18.235662841796874,-0.0009169999975711107,-0.00021899999410379678,0.0003910000086762011
1779997183325939500,18.252939453125,-0.06266199797391891,0.0016449999529868364,0.005011000204831362
1779997183343216000,18.270216064453123,-0.08733800053596497,0.001601999974809587,0.006907999981194735
1779997183360492800,18.287492919921874,-0.06017100065946579,0.0018420000560581684,0.004598999861627817
1779997183377769200,18.304769287109377,0.002597999991849065,0.0011269999668002129,0.000007999999979801942
1779997183395045600,18.322045654296875,0.06381499767303467,-0.00020900000527035445,-0.004102999810129404
1779997183412322300,18.339322265625,0.087117999792099,-0.0018949999939650297,-0.005051000043749809
1779997183429598700,18.3565986328125,0.05962200090289116,-0.0014420000370591879,-0.003601999953389168
1779997183446875100,18.373875244140624,-0.0034839999862015247,-0.00015700000221841037,0.000526999996509403
1779997183464151800,18.39115185546875,-0.06379500031471252,0.0010730000212788582,0.00433199992403388
1779997183481428500,18.408428466796874,-0.08631300181150436,0.0009159999899566174,0.005247999913990498
1779997183498705000,18.425704833984376,-0.057881999760866165,0.0007900000200606883,0.0035119999665766954
1779997183515981300,18.442981201171875,0.005005999933928251,-0.0013569999719038606,0.00023099999816622585
1779997183533258000,18.460258056640626,0.06400299817323685,-0.0019020000472664833,-0.004062999971210957
1779997183550534400,18.477534423828125,0.08557900041341782,-0.0020979999098926783,-0.00608400022611022
1779997183567810800,18.494810791015624,0.056992001831531525,-0.0008699999889358878,-0.004557000007480383
1779997183585087500,18.51208740234375,-0.005282999947667122,0.00004199999966658652,-0.00021100000594742596
1779997183602364000,18.529364013671874,-0.06456200033426285,0.0014560000272467732,0.003628999926149845
1779997183619640600,18.546640625,-0.0851449966430664,0.0013020000187680125,0.005537999793887138
1779997183636917000,18.5639169921875,-0.05518199875950813,0.00036100001307204366,0.0035059999208897352
1779997183654193700,18.581193603515626,0.006899999920278788,-0.0006619999767281115,-0.0004349999944679439
1779997183671470000,18.598469970703125,0.06481999903917313,-0.0006019999855197966,-0.0050130002200603485
1779997183688746500,18.61574658203125,0.08403299748897552,-0.000666000007186085,-0.00646300008520484
1779997183706023200,18.633023193359374,0.05472400039434433,0.0004149999876972288,-0.004327000118792057
1779997183723299800,18.6502998046875,-0.0067460001446306705,0.0005080000264570117,0.001006999984383583
1779997183740576300,18.667576171875,-0.06443899869918823,0.0014230000087991357,0.0052640000358223915
1779997183757852700,18.684852783203127,-0.08385399729013443,0.0012039999710395932,0.0066999997943639755
1779997183775129300,18.70212939453125,-0.05404900014400482,0.001892999978736043,0.003650000086054206
1779997183792405800,18.71940576171875,0.007780000101774931,0.00035600000410340726,-0.0007520000217482448
1779997183809682400,18.736682373046875,0.06410399824380875,-0.000818000000435859,-0.004807000048458576
1779997183826958800,18.753958740234374,0.08231300115585327,-0.0017229999648407102,-0.006165000144392252
1779997183844235500,18.771235595703125,0.05209499970078468,-0.0011919999960809946,-0.003421999979764223
1779997183861512200,18.78851220703125,-0.008403999730944633,-0.0005970000056549907,0.0013310000067576766
1779997183878788400,18.805788330078126,-0.06469699740409851,0.0006510000093840063,0.004769999999552965
1779997183896065000,18.82306494140625,-0.08318900316953659,0.001973999897018075,0.005847000051289797
1779997183913341700,18.840341796875,-0.05218299850821495,0.0015559999737888575,0.004112000111490488
1779997183930618000,18.8576181640625,0.009151999838650227,-0.0002410000015515834,0.00013000000035390258
1779997183947894500,18.87489453125,0.06476700305938721,-0.0011500000255182385,-0.0038850000128149986
1779997183965171200,18.892171142578125,0.08145999908447266,-0.001921999966725707,-0.0053449999541044235
1779997183982447900,18.90944775390625,0.050220001488924026,-0.00040099999750964344,-0.0034719998948276043
1779997183999724000,18.92672412109375,-0.0103169996291399,0.00040600000647827983,0.0008529999759048223
1779997184017000700,18.944000732421873,-0.06481099873781204,0.0011020000092685223,0.004629999864846468
1779997184034277400,18.96127734375,-0.08107899874448776,0.0013559999642893672,0.005297999829053879
1779997184051553800,18.9785537109375,-0.04924900084733963,0.0011230000527575612,0.003198999911546707
1779997184068830200,18.995830322265626,0.011528000235557556,-0.000455000001238659,-0.00042699999175965786
1779997184086107000,19.01310693359375,0.06550700217485428,-0.0012860000133514404,-0.0042039998807013035
1779997184103383300,19.03038330078125,0.0805559977889061,-0.0012440000427886844,-0.005803999956697226
1779997184120659700,19.04765966796875,0.04785500094294548,-0.0005029999883845448,-0.0036639999598264694
1779997184137936400,19.064936279296877,-0.012202000245451927,0.00040499999886378646,0.0008449999731965363
1779997184155213000,19.082213134765624,-0.06539099663496017,0.0006799999973736703,0.005096999928355217
1779997184172489500,19.099489501953126,-0.07954899966716766,0.001214000047184527,0.0053159999661147594
1779997184189766100,19.11676611328125,-0.04672599956393242,0.0005719999899156392,0.0034280000254511833
1779997184207042600,19.13404248046875,0.013690000399947166,-0.0009730000165291131,-0.0007019999902695417
1779997184224319200,19.1513193359375,0.06601099669933319,-0.001706999959424138,-0.004660999868065119
1779997184241595600,19.168595703125,0.07930900156497955,-0.0013989999424666166,-0.0062500000931322575
1779997184258872000,19.1858720703125,0.04623999819159508,-0.0009079999872483313,-0.0038469999562948942
1779997184276148700,19.203148681640624,-0.013527999632060528,0.00009500000305706635,0.0008299999753944576
1779997184293425400,19.22042529296875,-0.06496600061655045,0.0005959999980404973,0.004730000160634518
1779997184310701800,19.237701904296873,-0.07784800231456757,0.0010710000060498714,0.005247000139206648
1779997184327978200,19.254978271484376,-0.04462999850511551,-0.000590000010561198,0.002553999889642
1779997184345255000,19.2722548828125,0.015250000171363354,-0.00018600000475998968,-0.0026020000223070383
1779997184362531300,19.28953125,0.06569699943065643,-0.00008099999831756577,-0.005098000168800354
1779997184379807700,19.306807861328124,0.07788100093603134,-0.0002809999859891832,-0.005113000050187111
1779997184397084400,19.32408447265625,0.04403600096702576,0.000048999998398358,-0.0021359999664127827
1779997184414360800,19.34136083984375,-0.015180000104010105,0.0010519999777898192,0.0030350000597536564
1779997184431637200,19.35863720703125,-0.06567700207233429,0.0028299998957663774,0.0071749999187886715
1779997184448914000,19.375913818359376,-0.07763999700546265,0.003432000055909157,0.006709999870508909
1779997184466190000,19.393190185546874,-0.04341199994087219,0.0013920000055804849,0.003234999952837825
1779997184483466800,19.410466796875,0.015773000195622444,-0.0012649999698624015,-0.0019359999569132924
1779997184500743400,19.427743408203124,0.065699003636837,-0.004472000058740377,-0.005743999965488911
1779997184518020000,19.44502001953125,0.07637699693441391,-0.0037299999967217445,-0.00634300010278821
1779997184535296500,19.462296630859374,0.04179900139570236,-0.002693000016734004,-0.003982999827712774
1779997184552573000,19.479572998046876,-0.016995999962091446,-0.00014099999680183828,0.0007040000054985285
1779997184569849600,19.496849609375,-0.06655800342559814,0.002449000021442771,0.005950999911874533
1779997184587126000,19.5141259765625,-0.0765329971909523,0.005127999931573868,0.0067819999530911446
1779997184604402400,19.53140234375,-0.04192100092768669,0.003128000069409609,0.0061530000530183315
1779997184621679000,19.54867919921875,0.01737700030207634,0.0016189999878406525,0.001959000015631318
1779997184638955800,19.565955810546875,0.065932996571064,0.0012019999558106065,-0.0033009999897331
1779997184656232200,19.583232177734374,0.07516200095415115,0.0004879999905824661,-0.005570999812334776
1779997184673508600,19.600508544921876,0.040421999990940094,-0.0013330000219866633,-0.004381999839097261
1779997184690785300,19.617785400390623,-0.01808200031518936,-0.002512000035494566,-0.001297999988310039
1779997184708062000,19.63506201171875,-0.06541600078344345,-0.0017989999614655972,0.0015290000010281801
1779997184725338400,19.65233837890625,-0.07452400028705597,-0.00034699999378062785,0.002369999885559082
1779997184742614800,19.66961474609375,-0.03906700015068054,0.00035099999513477087,0.0019369999645277858
1779997184759891500,19.686891357421874,0.018668999895453453,0.0009270000155083835,-0.0007880000048317015
1779997184777168000,19.70416796875,0.06561200320720673,-0.0002610000083222985,-0.003963000141084194
1779997184794444500,19.721444580078124,0.07377000153064728,-0.000014000000192027073,-0.004348000045865774
1779997184811721000,19.738720947265627,0.037845999002456665,0.0008580000139772892,-0.0021569998934865
1779997184828997400,19.755997314453126,-0.019514000043272972,0.0002809999859891832,0.000737000023946166
1779997184846274000,19.773274169921876,-0.0652339980006218,-0.000598000013269484,0.0041600000113248825
1779997184863550500,19.790550537109375,-0.07239300012588501,-0.0007399999885819852,0.004346999805420637
1779997184880827000,19.807826904296874,-0.03711799904704094,-0.001978999935090542,0.0008800000068731606
1779997184898103600,19.825103515625,0.020261000841856003,-0.0044189998880028725,-0.0026650000363588333
1779997184915380000,19.8423798828125,0.06530400365591049,-0.004333999939262867,-0.005547000095248222
1779997184932656600,19.85965673828125,0.07178500294685364,-0.0019180000526830554,-0.006407999899238348
1779997184949933300,19.876933349609374,0.036090001463890076,-0.0003600000054575503,-0.003169999923557043
1779997184967209700,19.894209716796876,-0.02080399915575981,-0.0001539999939268455,0.002309999894350767
1779997184984486100,19.911486083984375,-0.06493499875068665,0.0012789999600499868,0.006200000178068876
1779997185001762600,19.928762451171874,-0.07097399979829788,0.0017500000540167093,0.006163000129163265
1779997185019039200,19.946039306640625,-0.03485599905252457,0.002205000026151538,0.003011999884620309
1779997185036316000,19.96331591796875,0.021273000165820122,0.0018189999973401427,-0.0008410000009462237
1779997185053592300,19.98059228515625,0.06472600251436234,0.0003600000054575503,-0.003984000068157911
1779997185070868700,19.99786865234375,0.06985899806022644,-0.0018739999504759908,-0.004259000066667795
1779997185088145400,20.0151455078125,0.03379800170660019,-0.0007779999868944287,-0.0019600000232458115
1779997185105421800,20.032421875,-0.02244899980723858,0.0007639999967068434,0.0020759999752044678
1779997185122698200,20.0496982421875,-0.06533800065517426,0.0013310000067576766,0.00468500005081296
1779997185139975000,20.066974853515624,-0.06940899789333344,0.0014769999543204904,0.004606000147759914
1779997185157251300,20.084251220703123,-0.033013999462127686,0.0016090000281110406,0.002271000063046813
1779997185174528000,20.101528076171874,0.023016000166535378,0.0005189999938011169,-0.0011749999830499291
1779997185191804400,20.118804443359377,0.06521700322628021,-0.0004579999949783087,-0.0036230001132935286
1779997185209080800,20.136080810546876,0.06862899661064148,-0.0008040000102482736,-0.004437000025063753
1779997185226357500,20.153357421875,0.03172200173139572,0.0007479999912902713,-0.0021120000164955854
1779997185243634000,20.170634033203125,-0.02380399964749813,0.001117000007070601,0.0017359999474138021
1779997185260910600,20.18791064453125,-0.06527599692344666,0.0025140000507235527,0.0041229999624192715
1779997185278187000,20.20518701171875,-0.06819300353527069,0.0010349999647587538,0.004871999844908714
1779997185295463700,20.222463623046874,-0.03014099970459938,-0.0008299999753944576,0.0025430000387132168
1779997185312740000,20.239739990234376,0.02438100054860115,-0.0015780000248923898,-0.0019580000080168247
1779997185330016500,20.2570166015625,0.06532599776983261,-0.0014179999707266688,-0.005388000048696995
1779997185347293200,20.274293212890626,0.06728299707174301,-0.002452000044286251,-0.005260000005364418
1779997185364569600,20.291569580078125,0.029992999508976936,-0.0016710000345483422,-0.0027149999514222145
1779997185381846300,20.30884619140625,-0.025344999507069588,-0.0001630000042496249,0.0014260000316426158
1779997185399122700,20.326122802734375,-0.06538199633359909,0.0004180000105407089,0.004410000052303076
1779997185416399000,20.343399169921874,-0.06657599657773972,0.0011859999503940344,0.0045830002054572105
1779997185433675800,20.36067578125,-0.029015999287366867,0.0006309999735094607,0.0019249999895691872
1779997185450952400,20.377952392578123,0.026006000116467476,-0.00036100001307204366,-0.001816999982111156
1779997185468228900,20.395228759765626,0.06485900282859802,-0.0007539999787695706,-0.004277000203728676
1779997185485505300,20.41250537109375,0.06572099775075912,-0.0009929999941959977,-0.004778999835252762
1779997185502782000,20.429781982421876,0.027959000319242477,-0.000060999998822808266,-0.0019990000873804092
1779997185520058600,20.44705859375,-0.026006000116467476,-0.00011500000255182385,0.0024590000975877047
1779997185537335000,20.4643349609375,-0.06433600187301636,0.0007680000271648169,0.005249000154435635
1779997185554611500,20.481611572265624,-0.06510400027036667,0.0017160000279545784,0.004674000199884176
1779997185571888000,20.49888818359375,-0.026889000087976456,0.000805000017862767,0.0021490000654011965
1779997185589164500,20.51616455078125,0.027177000418305397,-0.00011000000085914508,-0.0016609999584034085
1779997185606441000,20.53344091796875,0.06458800286054611,-0.0006440000142902136,-0.004585000220686197
1779997185623717600,20.550717529296875,0.06428299844264984,-0.00046300000394694507,-0.005206000059843063
1779997185640994000,20.567994140625,0.026285000145435333,-0.0004239999980200082,-0.00204299995675683
1779997185658270500,20.5852705078125,-0.027015000581741333,0.00025099999038502574,0.001972000114619732
1779997185675547100,20.602547119140624,-0.06467600166797638,-0.0003870000073220581,0.004478000104427338
1779997185692823600,20.619823486328126,-0.06338299810886383,0.00042799999937415123,0.004461000207811594
1779997185710100000,20.637099853515625,-0.02540300041437149,0.00023499999952036887,0.0016169999726116657
1779997185727376600,20.654376708984376,0.028230000287294388,-0.00113800005055964,-0.002256999956443906
1779997185744653300,20.6716533203125,0.06439299881458282,-0.0016339999856427312,-0.004238999914377928
1779997185761929700,20.6889296875,0.06300999969244003,-0.0016840000171214342,-0.003746999893337488
1779997185779206400,20.706206298828125,0.024615999311208725,-0.0009749999735504389,-0.0006750000175088644
1779997185796482800,20.72348291015625,-0.028108999133110046,0.0007280000136233866,0.0021200000774115324
1779997185813759200,20.74075927734375,-0.0641380026936531,0.001474000047892332,0.004087999928742647
1779997185831035600,20.75803564453125,-0.06153099983930588,0.0015559999737888575,0.004172999877482653
1779997185848312300,20.775312255859376,-0.022954000160098076,-0.000037000001611886546,0.0017130000051110983
1779997185874227200,20.801227294921876,0.0508899986743927,-0.0020940001122653484,-0.0029509998857975006
1779997185891503600,20.818503662109375,0.06818799674510956,-0.001914000022225082,-0.0047980002127587795
1779997185908780300,20.8357802734375,0.04522300139069557,-0.0012120000319555402,-0.003567999927327037
