time,seconds_elapsed,z,y,x
1779997165375661800,0.302661865234375,9.689309120178223,-0.33750298619270325,-1.4743709564208984
1779997165392938000,0.31993798828125,9.688497543334961,-0.33523300290107727,-1.4802039861679077
1779997165410214400,0.33721435546875,9.687417984008789,-0.3343200087547302,-1.4874659776687622
1779997165427490800,0.35449072265625,9.686308860778809,-0.33651700615882874,-1.4941749572753906
1779997165444767000,0.37176708984375,9.685867309570312,-0.3388260006904602,-1.4965139627456665
1779997165462043600,0.389043701171875,9.685791015625,-0.3397200107574463,-1.496806025505066
1779997165479319800,0.40631982421875,9.685693740844727,-0.3410719931125641,-1.4971239566802979
1779997165496596200,0.42359619140625,9.68558406829834,-0.34262600541114807,-1.4974709749221802
1779997165513872600,0.44087255859375,9.685471534729004,-0.3440749943256378,-1.4978649616241455
1779997165531149000,0.458149169921875,9.685373306274414,-0.3452880084514618,-1.4982349872589111
1779997165548425500,0.475425537109375,9.685284614562988,-0.34654998779296875,-1.49850594997406
1779997165565702000,0.492701904296875,9.685216903686523,-0.3480280041694641,-1.4986079931259155
1779997165582978000,0.50997802734375,9.68521785736084,-0.34911200404167175,-1.4983489513397217
1779997165600254700,0.527254638671875,9.6852445602417,-0.34955498576164246,-1.4980789422988892
1779997165617531100,0.54453125,9.6852445602417,-0.3494639992713928,-1.4980980157852173
1779997165634807600,0.5618076171875,9.685200691223145,-0.3490299880504608,-1.4984790086746216
1779997165652083700,0.579083740234375,9.685100555419922,-0.34860900044441223,-1.4992330074310303
1779997165669360000,0.596360107421875,9.684934616088867,-0.3482480049133301,-1.5003880262374878
1779997165686636500,0.613636474609375,9.684687614440918,-0.34779199957847595,-1.5020790100097656
1779997165703913000,0.630912841796875,9.684320449829102,-0.3475799858570099,-1.5044840574264526
1779997165721189400,0.648189453125,9.683802604675293,-0.34815898537635803,-1.507675051689148
1779997165738465800,0.6654658203125,9.683161735534668,-0.34956398606300354,-1.5114439725875854
1779997165755742000,0.682741943359375,9.682455062866211,-0.3516879975795746,-1.5154659748077393
1779997165773018400,0.700018310546875,9.681740760803223,-0.35420098900794983,-1.5194250345230103
1779997165790294800,0.717294677734375,9.681072235107422,-0.3566479980945587,-1.523116946220398
1779997165807571000,0.734571044921875,9.680452346801758,-0.3587630093097687,-1.5265660285949707
1779997165824847600,0.75184765625,9.679876327514648,-0.3602460026741028,-1.5298789739608765
1779997165842124000,0.7691240234375,9.6793851852417,-0.3607749938964844,-1.5328730344772339
1779997165859400200,0.786400146484375,9.679031372070312,-0.3606809973716736,-1.5351250171661377
1779997165876676600,0.803676513671875,9.678833961486816,-0.360383003950119,-1.5364400148391724
1779997165893953000,0.820953125,9.6787109375,-0.35967400670051575,-1.5373849868774414
1779997165911229400,0.8382294921875,9.67850399017334,-0.3585839867591858,-1.538944959640503
1779997165928505600,0.855505615234375,9.678114891052246,-0.35720500349998474,-1.5417070388793945
1779997165945782000,0.872781982421875,9.677591323852539,-0.3559879958629608,-1.5452539920806885
1779997165963058700,0.89005859375,9.677005767822266,-0.3554390072822571,-1.5490230321884155
1779997165980334800,0.9073349609375,9.676370620727539,-0.3556019961833954,-1.5529390573501587
1779997165997611300,0.924611328125,9.675690650939941,-0.3561460077762604,-1.5570470094680786
1779997166014888000,0.941887939453125,9.675036430358887,-0.35710200667381287,-1.5608949661254883
1779997166032164000,0.9591640625,9.674564361572266,-0.3587459921836853,-1.563452959060669
1779997166049440500,0.9764404296875,9.674450874328613,-0.3610529899597168,-1.5636329650878906
1779997166066717000,0.993717041015625,9.674735069274902,-0.3636159896850586,-1.561257004737854
1779997166083993300,1.010993408203125,9.6753511428833,-0.3658350110054016,-1.5568920373916626
1779997166101269800,1.028269775390625,9.676233291625977,-0.36733299493789673,-1.5510280132293701
1779997166118546200,1.045546142578125,9.677289962768555,-0.3681879937648773,-1.5442030429840088
1779997166135822600,1.062822509765625,9.678383827209473,-0.3686400055885315,-1.5372309684753418
1779997166153099000,1.08009912109375,9.679376602172852,-0.3686720132827759,-1.5309909582138062
1779997166170375400,1.09737548828125,9.680170059204102,-0.3683150112628937,-1.526087999343872
1779997166187651600,1.114651611328125,9.680721282958984,-0.3680489957332611,-1.5226689577102661
1779997166204928000,1.131927978515625,9.68099308013916,-0.368135005235672,-1.5209310054779053
1779997166222204400,1.149204345703125,9.680980682373047,-0.3680790066719055,-1.5210200548171997
1779997166239480800,1.166480712890625,9.680749893188477,-0.3675459921360016,-1.5226130485534668
1779997166256757200,1.18375732421875,9.680407524108887,-0.36697301268577576,-1.52491295337677
1779997166274033700,1.20103369140625,9.680074691772461,-0.3669629991054535,-1.527029037475586
1779997166291310000,1.21831005859375,9.679808616638184,-0.3676689863204956,-1.5285530090332031
1779997166308586500,1.23558642578125,9.679604530334473,-0.36853599548339844,-1.5296260118484497
1779997166325862700,1.252862548828125,9.679472923278809,-0.3690420091152191,-1.5303410291671753
1779997166343139300,1.270139404296875,9.67945384979248,-0.3692130148410797,-1.5304299592971802
1779997166360415700,1.287415771484375,9.679546356201172,-0.36935698986053467,-1.529818058013916
1779997166377692000,1.30469189453125,9.679688453674316,-0.36903300881385803,-1.5289870500564575
1779997166394968600,1.321968505859375,9.679802894592285,-0.3677220046520233,-1.5285799503326416
1779997166412244700,1.33924462890625,9.679797172546387,-0.365788996219635,-1.5290600061416626
1779997166429521200,1.356521240234375,9.67961311340332,-0.3639239966869354,-1.5306719541549683
1779997166446797800,1.3737978515625,9.679231643676758,-0.3622890114784241,-1.5334670543670654
1779997166464074000,1.391073974609375,9.678709983825684,-0.3605459928512573,-1.537160038948059
1779997166481350400,1.408350341796875,9.678131103515625,-0.3591339886188507,-1.5411250591278076
1779997166498626800,1.425626708984375,9.67757511138916,-0.35879600048065186,-1.544693946838379
1779997166515903200,1.4429033203125,9.677083969116211,-0.35971900820732117,-1.5475620031356812
1779997166533179600,1.4601796875,9.676709175109863,-0.3608959913253784,-1.5496419668197632
1779997166550456000,1.4774560546875,9.67651653289795,-0.3611220121383667,-1.550799012184143
1779997166567732200,1.494732177734375,9.676555633544922,-0.3601740002632141,-1.5507769584655762
1779997166585009000,1.5120087890625,9.67681884765625,-0.35893601179122925,-1.5494099855422974
1779997166602285000,1.52928515625,9.677279472351074,-0.35787901282310486,-1.5467599630355835
1779997166619561500,1.5465615234375,9.67785930633545,-0.35666900873184204,-1.5434060096740723
1779997166636838000,1.563837890625,9.678471565246582,-0.35470500588417053,-1.5400099754333496
1779997166654114300,1.5811142578125,9.679060935974121,-0.3522930145263672,-1.5368609428405762
1779997166671390700,1.598390625,9.679585456848145,-0.350490003824234,-1.5339839458465576
1779997166688667100,1.615667236328125,9.679999351501465,-0.3498629927635193,-1.5315159559249878
1779997166705943600,1.632943603515625,9.680272102355957,-0.3498840034008026,-1.529790997505188
1779997166723220000,1.650219970703125,9.680340766906738,-0.34988200664520264,-1.5293660163879395
1779997166740496400,1.667496337890625,9.680171966552734,-0.34918200969696045,-1.5305880308151245
1779997166757772800,1.684772705078125,9.67981243133545,-0.3476940095424652,-1.5331840515136719
1779997166775049200,1.70204931640625,9.679364204406738,-0.3452740013599396,-1.5365279912948608
1779997166792325400,1.719325439453125,9.678942680358887,-0.3414340019226074,-1.5400179624557495
1779997166809601800,1.736601806640625,9.678653717041016,-0.33594998717308044,-1.5430059432983398
1779997166826878200,1.753878173828125,9.678619384765625,-0.32934701442718506,-1.5446380376815796
1779997166844154600,1.771154541015625,9.678958892822266,-0.3230690062046051,-1.5438460111618042
1779997166861431000,1.78843115234375,9.6797513961792,-0.31863701343536377,-1.5397640466690063
1779997166878707500,1.80570751953125,9.681078910827637,-0.31666600704193115,-1.531715989112854
1779997166895983900,1.82298388671875,9.683175086975098,-0.3167339861392975,-1.518149971961975
1779997166913260300,1.84026025390625,9.686468124389648,-0.3187530040740967,-1.4959440231323242
1779997166930536400,1.857536376953125,9.69182014465332,-0.318217009305954,-1.4592339992523193
1779997166947813000,1.874813232421875,9.701760292053223,-0.2965030074119568,-1.3865619897842407
1779997166965089500,1.892089599609375,9.716506958007812,-0.285396009683609,-1.2443740367889404
1779997166982365700,1.90936572265625,9.732477188110352,-0.26639899611473083,-1.0232690572738647
1779997166999642400,1.926642333984375,9.746795654296875,-0.2312069982290268,-0.757207989692688
1779997167016918800,1.943918701171875,9.76053524017334,-0.16381700336933136,-0.4991520047187805
1779997167034195200,1.9611953125,9.773273468017578,-0.05291299894452095,-0.30391401052474976
1779997167051471600,1.9784716796875,9.782479286193848,0.06155499815940857,-0.19494900107383728
1779997167068747800,1.995747802734375,9.786791801452637,0.08402000367641449,-0.15399299561977386
1779997167086024200,2.013024169921875,9.784597396850586,0.05511699989438057,-0.17057600617408752
1779997167103300600,2.030300537109375,9.782722473144531,0.112977996468544,-0.22372299432754517
1779997167120577000,2.047576904296875,9.782576560974121,0.18108800053596497,-0.28053098917007446
1779997167137853700,2.064853759765625,9.783020973205566,0.2182770073413849,-0.30571499466896057
1779997167155129900,2.0821298828125,9.782790184020996,0.20758099853992462,-0.2870349884033203
1779997167172406300,2.09940625,9.784607887268066,0.17391499876976013,-0.23561100661754608
1779997167189682700,2.1166826171875,9.787646293640137,0.16889700293540955,-0.18582700192928314
1779997167206958800,2.133958740234375,9.790006637573242,0.20334100723266602,-0.1683569997549057
1779997167224235500,2.151235595703125,9.787883758544922,0.18505799770355225,-0.19254499673843384
1779997167241512000,2.168511962890625,9.786656379699707,0.15097199380397797,-0.2352519929409027
1779997167258788400,2.185788330078125,9.787535667419434,0.09178800135850906,-0.2729969918727875
1779997167276064800,2.203064697265625,9.788228988647461,0.021927999332547188,-0.28975799679756165
1779997167293341200,2.220341064453125,9.788361549377441,-0.019248999655246735,-0.2792719900608063
1779997167310617300,2.237617431640625,9.788089752197266,-0.014298999682068825,-0.24766400456428528
1779997167327894000,2.25489404296875,9.787629127502441,0.04861300066113472,-0.21087700128555298
1779997167345170400,2.27217041015625,9.789569854736328,0.12853799760341644,-0.18582700192928314
1779997167371085000,2.2980849609375,9.788260459899902,0.05883000046014786,-0.19262899458408356
1779997167388361500,2.315361572265625,9.786696434020996,0.10446000099182129,-0.23542499542236328
1779997167405637600,2.3326376953125,9.786200523376465,0.2009499967098236,-0.28300899267196655
1779997167422914300,2.349914306640625,9.785812377929688,0.25977998971939087,-0.305292010307312
1779997167440190700,2.367190673828125,9.785733222961426,0.2548219859600067,-0.2868089973926544
1779997167457467000,2.384466796875,9.788480758666992,0.21125100553035736,-0.241347998380661
1779997167474743600,2.40174365234375,9.791345596313477,0.18385499715805054,-0.20277899503707886
1779997167492019700,2.419019775390625,9.792256355285645,0.20502500236034393,-0.19948500394821167
1779997167509296400,2.43629638671875,9.790179252624512,0.20880499482154846,-0.23101399838924408
1779997167526572500,2.453572509765625,9.789850234985352,0.146029993891716,-0.2682349979877472
1779997167543849000,2.470848876953125,9.791065216064453,0.05971600115299225,-0.29714199900627136
1779997167561125400,2.48812548828125,9.792218208312988,0.017765000462532043,-0.3082599937915802
1779997167578401800,2.50540185546875,9.791861534118652,0.0238489992916584,-0.3011929988861084
1779997167595678200,2.52267822265625,9.790124893188477,0.07442300021648407,-0.27717599272727966
1779997167612954600,2.53995458984375,9.789854049682617,0.1584790050983429,-0.24640299379825592
1779997167630231000,2.55723095703125,9.791726112365723,0.18088200688362122,-0.22116200625896454
1779997167647507500,2.574507568359375,9.79096508026123,0.1353980004787445,-0.22422699630260468
1779997167664784100,2.5917841796875,9.789205551147461,0.18710799515247345,-0.2610880136489868
1779997167682060300,2.609060302734375,9.788132667541504,0.2418760061264038,-0.3096269965171814
1779997167699336700,2.626336669921875,9.788617134094238,0.2362930029630661,-0.3327380120754242
1779997167716613400,2.64361328125,9.790067672729492,0.16516000032424927,-0.3210330009460449
1779997167733889800,2.660889892578125,9.792893409729004,0.06967700272798538,-0.286763995885849
1779997167751166000,2.678166015625,9.795079231262207,0.01898300088942051,-0.2566710114479065
1779997167768442600,2.695442626953125,9.796075820922852,0.04498400166630745,-0.24967999756336212
1779997167785719000,2.712718994140625,9.795068740844727,0.04415399953722954,-0.2653619945049286
1779997167802995500,2.729995361328125,9.794605255126953,-0.006550999823957682,-0.2872920036315918
1779997167820271900,2.74727197265625,9.794662475585938,-0.051242001354694366,-0.30968600511550903
1779997167837548300,2.76454833984375,9.794845581054688,-0.061632998287677765,-0.32318300008773804
1779997167854824700,2.78182470703125,9.7948637008667,-0.04751700162887573,-0.32034000754356384
1779997167872101000,2.79910107421875,9.794947624206543,-0.024385999888181686,-0.30108800530433655
1779997167889377500,2.81637744140625,9.796002388000488,-0.0026519999373704195,-0.2742069959640503
1779997167906654000,2.833654052734375,9.797232627868652,-0.005584999918937683,-0.2561289966106415
1779997167923930400,2.850930419921875,9.796855926513672,-0.008971000090241432,-0.2605400085449219
1779997167941206800,2.868206787109375,9.795523643493652,0.004112000111490488,-0.28609898686408997
1779997167958483200,2.885483154296875,9.794882774353027,-0.007290999870747328,-0.31551098823547363
1779997167975759600,2.902759521484375,9.795042037963867,-0.004149000160396099,-0.3339560031890869
1779997167993036000,2.9200361328125,9.79488754272461,0.011075999587774277,-0.3352530002593994
1779997168010312400,2.9373125,9.794477462768555,0.03544799983501434,-0.3181860148906708
1779997168027589000,2.954589111328125,9.794851303100586,0.07350700348615646,-0.2921049892902374
1779997168044865300,2.971865234375,9.796404838562012,0.09576400369405746,-0.2694459855556488
1779997168062141700,2.9891416015625,9.79638671875,0.06833299994468689,-0.2670609951019287
1779997168079418400,3.00641845703125,9.79501724243164,0.09860300272703171,-0.29092898964881897
1779997168096694500,3.023694580078125,9.794245719909668,0.11650200188159943,-0.32399699091911316
1779997168113971000,3.040970947265625,9.794194221496582,0.08549399673938751,-0.3463340103626251
1779997168131247600,3.05824755859375,9.794608116149902,0.05876300111413002,-0.3478949964046478
1779997168148523800,3.075523681640625,9.795028686523438,0.049966998398303986,-0.33414900302886963
1779997168165800400,3.092800537109375,9.79518985748291,0.07139600068330765,-0.3138740062713623
1779997168183076900,3.110076904296875,9.796314239501953,0.11208599805831909,-0.2956019937992096
1779997168200353000,3.12735302734375,9.796491622924805,0.08585900068283081,-0.29040399193763733
1779997168217629700,3.144629638671875,9.795857429504395,0.080144003033638,-0.30253899097442627
1779997168234906000,3.161906005859375,9.794892311096191,0.11517699807882309,-0.3300040066242218
1779997168252182500,3.1791826171875,9.794790267944336,0.11474599689245224,-0.3506940007209778
1779997168269459000,3.196458984375,9.794967651367188,0.08038999885320663,-0.35362398624420166
1779997168286735400,3.2137353515625,9.795881271362305,0.050648000091314316,-0.3401489853858948
1779997168304011800,3.23101171875,9.796794891357422,0.043313998728990555,-0.3211199939250946
1779997168321288200,3.2482880859375,9.797651290893555,0.06502100080251694,-0.3067780137062073
1779997168338564600,3.265564697265625,9.79784107208252,0.05592299997806549,-0.3034619987010956
1779997168355841000,3.282841064453125,9.797568321228027,0.04220199957489967,-0.3117870092391968
1779997168373117700,3.30011767578125,9.796980857849121,0.04034300148487091,-0.3306249976158142
1779997168390393900,3.317393798828125,9.796870231628418,0.0443120002746582,-0.3469510078430176
1779997168407670500,3.33467041015625,9.796854019165039,0.04841899871826172,-0.35209500789642334
1779997168424947000,3.351947021484375,9.797006607055664,0.04769400134682655,-0.34261199831962585
1779997168442223400,3.369223388671875,9.797584533691406,0.049858998507261276,-0.3247619867324829
1779997168459499800,3.386499755859375,9.798493385314941,0.061402998864650726,-0.30875200033187866
1779997168476776400,3.4037763671875,9.798772811889648,0.058859001845121384,-0.30450499057769775
1779997168494052600,3.421052490234375,9.798303604125977,0.05799499899148941,-0.31339898705482483
1779997168511329000,3.4383291015625,9.797733306884766,0.06092200055718422,-0.3310970067977905
1779997168528605400,3.45560546875,9.797548294067383,0.06595399975776672,-0.34624600410461426
1779997168545881900,3.4728818359375,9.797539710998535,0.06551899760961533,-0.35022100806236267
1779997168563158500,3.490158447265625,9.797884941101074,0.05682700127363205,-0.33926400542259216
1779997168580435000,3.50743505859375,9.79856014251709,0.050092000514268875,-0.3202570080757141
1779997168597711400,3.52471142578125,9.799399375915527,0.05843299999833107,-0.3046739995479584
1779997168614987800,3.54198779296875,9.799663543701172,0.05995599925518036,-0.30041998624801636
1779997168632264200,3.55926416015625,9.799263954162598,0.05322999879717827,-0.30869799852371216
1779997168649540600,3.57654052734375,9.798745155334473,0.06530400365591049,-0.3244679868221283
1779997168666817300,3.5938173828125,9.798571586608887,0.06259699910879135,-0.336557000875473
1779997168684093400,3.611093505859375,9.79878044128418,0.037744998931884766,-0.3361639976501465
1779997168701369900,3.628369873046875,9.799054145812988,0.019790999591350555,-0.32600700855255127
1779997168718646500,3.645646484375,9.79944896697998,0.026579000055789948,-0.3118570148944855
1779997168735922700,3.662922607421875,9.800061225891113,0.025351999327540398,-0.29932698607444763
1779997168753199400,3.680199462890625,9.800284385681152,0.021347999572753906,-0.295958012342453
1779997168770475800,3.697475830078125,9.799869537353516,0.027194000780582428,-0.30382901430130005
1779997168787752200,3.714752197265625,9.799427032470703,0.020697999745607376,-0.31697699427604675
1779997168805028600,3.732028564453125,9.799246788024902,0.020779000595211983,-0.32824501395225525
1779997168822305300,3.74930517578125,9.799234390258789,0.021956000477075577,-0.3306010067462921
1779997168839581700,3.766581787109375,9.799336433410645,0.019238999113440514,-0.3225669860839844
1779997168856858000,3.783858154296875,9.79973030090332,0.01931300014257431,-0.30856800079345703
1779997168874134500,3.801134521484375,9.800318717956543,0.01929599978029728,-0.2961460053920746
1779997168891411200,3.8184111328125,9.80052661895752,0.018108999356627464,-0.2926259934902191
1779997168908687400,3.835687255859375,9.800154685974121,0.019497999921441078,-0.2998029887676239
1779997168925963800,3.8529638671875,9.799713134765625,0.018293000757694244,-0.31252700090408325
1779997168943240400,3.870240478515625,9.799539566040039,0.01860100030899048,-0.3232240080833435
1779997168960517000,3.88751708984375,9.79952621459961,0.018780000507831573,-0.3254239857196808
1779997168977793300,3.904793212890625,9.799620628356934,0.01760300062596798,-0.3175019919872284
1779997168995070000,3.922070068359375,9.799994468688965,0.017935000360012054,-0.30390000343322754
1779997169012346400,3.939346435546875,9.80053997039795,0.016381999477744102,-0.29229700565338135
1779997169029622800,3.956622802734375,9.800695419311523,0.01589200086891651,-0.2895689904689789
1779997169046899200,3.973899169921875,9.800309181213379,0.015463000163435936,-0.2971630096435547
1779997169064175600,3.991175537109375,9.799871444702148,0.014665000140666962,-0.30991700291633606
1779997169081452000,4.0084521484375,9.799702644348145,0.014434999786317348,-0.3202440142631531
1779997169098728700,4.025728759765625,9.799691200256348,0.012798000127077103,-0.32238900661468506
1779997169116004900,4.0430048828125,9.799779891967773,0.011586000211536884,-0.3148829936981201
1779997169133281500,4.060281494140625,9.800146102905273,0.011354999616742134,-0.3016510009765625
1779997169150558000,4.077557861328125,9.800676345825195,0.00955200009047985,-0.290226012468338
1779997169167834000,4.094834228515625,9.800827980041504,0.009259000420570374,-0.2875080108642578
1779997169185110800,4.11211083984375,9.800458908081055,0.00814099982380867,-0.2948949933052063
1779997169202387500,4.129387451171875,9.800028800964355,0.008058999665081501,-0.30751100182533264
1779997169219664000,4.146663818359375,9.799863815307617,0.007327999919652939,-0.31777700781822205
1779997169236940300,4.163940185546875,9.799848556518555,0.005702999886125326,-0.3199729919433594
1779997169254216700,4.181216796875,9.799935340881348,0.00508899986743927,-0.3127790093421936
1779997169271493000,4.1984931640625,9.800291061401367,0.004482999909669161,-0.2999289929866791
1779997169288769500,4.21576953125,9.800797462463379,0.0033009999897331,-0.2888610064983368
1779997169306046200,4.233046142578125,9.800945281982422,0.002951999893411994,-0.2862110137939453
1779997169323322600,4.250322509765625,9.800588607788086,0.0021589999087154865,-0.2933900058269501
1779997169340599000,4.26759912109375,9.80017375946045,0.00228599994443357,-0.3057360053062439
1779997169357875500,4.28487548828125,9.800008773803711,0.0015620000194758177,-0.31580299139022827
1779997169375152000,4.302152099609375,9.799994468688965,0.0006689999718219042,-0.3179120123386383
1779997169392428300,4.31942822265625,9.800081253051758,0.00028300000121816993,-0.3107520043849945
1779997169409705000,4.336705078125,9.800429344177246,-0.0003809999907389283,-0.2982049882411957
1779997169426981400,4.3539814453125,9.800909042358398,-0.0012880000285804272,-0.28760701417922974
1779997169444257800,4.3712578125,9.801036834716797,-0.0017519999528303742,-0.28528499603271484
1779997169461534200,4.3885341796875,9.800681114196777,-0.002211000071838498,-0.292510986328125
1779997169478811000,4.405810791015625,9.800276756286621,-0.0023169999476522207,-0.3046340048313141
1779997169496087600,4.423087646484375,9.800115585327148,-0.003056999994441867,-0.3144559860229492
1779997169513363700,4.44036376953125,9.800100326538086,-0.0038799999747425318,-0.31646600365638733
1779997169530640400,4.457640380859375,9.800189018249512,-0.004441999830305576,-0.3094330132007599
1779997169547916800,4.474916748046875,9.800528526306152,-0.005038999952375889,-0.29718101024627686
1779997169565193200,4.492193115234375,9.800999641418457,-0.006035999860614538,-0.28673800826072693
1779997169582469600,4.5094697265625,9.801121711730957,-0.006564000155776739,-0.2844649851322174
1779997169599746300,4.526746337890625,9.800775527954102,-0.007098999805748463,-0.2916080057621002
1779997169617022500,4.5440224609375,9.80038070678711,-0.007189999800175428,-0.3035300076007843
1779997169634299100,4.561299072265625,9.800222396850586,-0.007801999803632498,-0.31312501430511475
1779997169651575600,4.578575439453125,9.800206184387207,-0.008723000064492226,-0.31498900055885315
1779997169668852200,4.595852294921875,9.800294876098633,-0.009390000253915787,-0.3080889880657196
1779997169686128600,4.613128662109375,9.800623893737793,-0.01015700027346611,-0.29632601141929626
1779997169703405000,4.630405029296875,9.80105972290039,-0.011370000429451466,-0.2865529954433441
1779997169720681500,4.647681396484375,9.801162719726562,-0.012048999778926373,-0.28463900089263916
1779997169737958000,4.6649580078125,9.800824165344238,-0.012807000428438187,-0.2916930019855499
1779997169755234300,4.682234375,9.800444602966309,-0.013040999881923199,-0.3032259941101074
1779997169772511000,4.699510986328125,9.800291061401367,-0.013794999569654465,-0.31246599555015564
1779997169789787400,4.716787353515625,9.800274848937988,-0.014675999991595745,-0.3142229914665222
1779997169807063800,4.734063720703125,9.800365447998047,-0.015313999727368355,-0.3074060082435608
1779997169824340500,4.751340576171875,9.800694465637207,-0.016023000702261925,-0.29568299651145935
1779997169841617000,4.768616943359375,9.801125526428223,-0.017076000571250916,-0.28596800565719604
1779997169858893300,4.785893310546875,9.801222801208496,-0.01773500069975853,-0.28415000438690186
1779997169876170000,4.803169921875,9.800883293151855,-0.018357999622821808,-0.291267991065979
1779997169893446100,4.820446044921875,9.800507545471191,-0.018605999648571014,-0.30281099677085876
1779997169910722800,4.837722900390625,9.800354957580566,-0.019356999546289444,-0.3119969964027405
1779997169927999200,4.854999267578125,9.800337791442871,-0.020298000425100327,-0.3136959969997406
1779997169945275600,4.872275634765625,9.800430297851562,-0.021030999720096588,-0.30695798993110657
1779997169962552000,4.889552001953125,9.800749778747559,-0.021748000755906105,-0.29559001326560974
1779997169979828700,4.906828857421875,9.801158905029297,-0.022810999304056168,-0.28633299469947815
1779997169997105200,4.924105224609375,9.801238059997559,-0.023468000814318657,-0.2847979962825775
1779997170014381600,4.941381591796875,9.8009033203125,-0.02412799932062626,-0.29190099239349365
1779997170031658000,4.958657958984375,9.800539016723633,-0.024376999586820602,-0.3031719923019409
1779997170048934700,4.9759345703125,9.80038833618164,-0.025085000321269035,-0.31201401352882385
1779997170066211000,4.993211181640625,9.800372123718262,-0.025969000533223152,-0.3135330080986023
1779997170083487500,5.010487548828125,9.80046558380127,-0.02665499970316887,-0.3069869875907898
1779997170100764200,5.02776416015625,9.800780296325684,-0.027347000315785408,-0.2959519922733307
1779997170118040600,5.04504052734375,9.801178932189941,-0.02839599922299385,-0.28691500425338745
1779997170135317000,5.06231689453125,9.80125617980957,-0.029023999348282814,-0.2853879928588867
1779997170152593700,5.07959375,9.80093765258789,-0.029639000073075294,-0.29221001267433167
1779997170169870000,5.0968701171875,9.800589561462402,-0.029889000579714775,-0.3030489981174469
1779997170187146500,5.114146484375,9.800445556640625,-0.030587000772356987,-0.3115510046482086
1779997170204423200,5.131423095703125,9.800430297851562,-0.03139600157737732,-0.3128640055656433
1779997170221699600,5.148699462890625,9.800527572631836,-0.03205399960279465,-0.3061389923095703
1779997170238976000,5.16597607421875,9.800843238830566,-0.03271299973130226,-0.29515600204467773
1779997170256252400,5.18325244140625,9.801223754882812,-0.033610999584198,-0.2865000069141388
1779997170273528800,5.20052880859375,9.801281929016113,-0.03418000042438507,-0.2853339910507202
1779997170290805200,5.21780517578125,9.800955772399902,-0.0346670001745224,-0.29237300157546997
1779997170308082000,5.23508203125,9.800610542297363,-0.03486200049519539,-0.30324500799179077
1779997170325358300,5.2523583984375,9.800469398498535,-0.035436000674963,-0.3115749955177307
1779997170342634800,5.269634765625,9.800455093383789,-0.03622400015592575,-0.3127090036869049
1779997170359911400,5.286911376953125,9.80055046081543,-0.03695100173354149,-0.306194007396698
1779997170377187800,5.304187744140625,9.800854682922363,-0.03759799897670746,-0.295742005109787
1779997170394464300,5.32146435546875,9.801214218139648,-0.038520000874996185,-0.28755998611450195
1779997170411740700,5.33874072265625,9.80125904083252,-0.03907899931073189,-0.28662100434303284
1779997170429017300,5.356017333984375,9.800947189331055,-0.03958199918270111,-0.29343000054359436
1779997170446293800,5.373293701171875,9.800623893737793,-0.039792999625205994,-0.3037460148334503
1779997170463570200,5.390570068359375,9.800490379333496,-0.04034800082445145,-0.3115440011024475
1779997170480846800,5.407846923828125,9.8004789352417,-0.04100099951028824,-0.3124080002307892
1779997170498123300,5.425123291015625,9.800580024719238,-0.04154299944639206,-0.3057819902896881
1779997170524038000,5.451037841796875,9.801080703735352,-0.042566001415252686,-0.2907559871673584
1779997170541314600,5.468314453125,9.801310539245605,-0.043196000158786774,-0.2860409915447235
1779997170558591000,5.485591064453125,9.801140785217285,-0.04367399960756302,-0.2894439995288849
1779997170575867600,5.50286767578125,9.80077838897705,-0.04396200180053711,-0.29878899455070496
1779997170593144000,5.52014404296875,9.800551414489746,-0.04436599835753441,-0.3084540069103241
1779997170610420500,5.53742041015625,9.800493240356445,-0.045049998909235,-0.3129560053348541
1779997170627697000,5.55469677734375,9.80052661895752,-0.04575600102543831,-0.30977100133895874
1779997170644973300,5.571973388671875,9.800732612609863,-0.04635699838399887,-0.30065399408340454
1779997170662250000,5.58925,9.801098823547363,-0.0472089983522892,-0.29087498784065247
1779997170679526400,5.6065263671875,9.801316261291504,-0.0479389987885952,-0.2863380014896393
1779997170696802800,5.623802734375,9.801145553588867,-0.04848000034689903,-0.28979799151420593
1779997170714079500,5.64107958984375,9.800792694091797,-0.04881500080227852,-0.2990109920501709
1779997170731356000,5.65835595703125,9.800573348999023,-0.049198001623153687,-0.3084459900856018
1779997170748632600,5.675632568359375,9.800518035888672,-0.04986400157213211,-0.31269899010658264
1779997170765909000,5.692908935546875,9.800556182861328,-0.05052400007843971,-0.30933600664138794
1779997170783185400,5.710185302734375,9.800764083862305,-0.05113599821925163,-0.3002389967441559
1779997170800461800,5.7274619140625,9.801121711730957,-0.051924001425504684,-0.29071998596191406
1779997170817738200,5.74473828125,9.801324844360352,-0.05258699879050255,-0.2865070104598999
1779997170835015000,5.762014892578125,9.80114459991455,-0.05308099836111069,-0.29016101360321045
1779997170852291300,5.779291259765625,9.800797462463379,-0.05339000001549721,-0.29934999346733093
1779997170869567700,5.796567626953125,9.800585746765137,-0.053725000470876694,-0.30855199694633484
1779997170886844400,5.813844482421875,9.800532341003418,-0.05429999902844429,-0.3125219941139221
1779997170904120800,5.831120849609375,9.80057430267334,-0.0548739992082119,-0.3089970052242279
1779997170921397200,5.848397216796875,9.800786018371582,-0.055369000881910324,-0.2999109923839569
1779997170938674000,5.865673828125,9.801142692565918,-0.056102000176906586,-0.29051798582077026
1779997170955950300,5.882950439453125,9.801336288452148,-0.056657999753952026,-0.28647199273109436
1779997170973226800,5.900226806640625,9.801156044006348,-0.05707100033760071,-0.2902059853076935
1779997170990503400,5.91750341796875,9.800814628601074,-0.05730700120329857,-0.29928699135780334
1779997171007779800,5.93477978515625,9.800610542297363,-0.05767200142145157,-0.30827999114990234
1779997171025056300,5.95205615234375,9.800558090209961,-0.05829999968409538,-0.3120169937610626
1779997171042332700,5.969332763671875,9.800601959228516,-0.05897900089621544,-0.30842098593711853
1779997171059609300,5.986609375,9.800812721252441,-0.059579998254776,-0.2995460033416748
1779997171076886000,6.003885986328125,9.801153182983398,-0.06034599989652634,-0.29054901003837585
1779997171094162200,6.021162109375,9.8013277053833,-0.06099599972367287,-0.2868629992008209
1779997171111438800,6.03843896484375,9.801143646240234,-0.061466000974178314,-0.29070401191711426
1779997171128715500,6.055715576171875,9.800814628601074,-0.061772000044584274,-0.2996250092983246
1779997171145992000,6.072991943359375,9.800617218017578,-0.06212500110268593,-0.30829501152038574
1779997171163268400,6.090268310546875,9.800569534301758,-0.06270000338554382,-0.31173399090766907
1779997171180544800,6.107544677734375,9.800617218017578,-0.06329800188541412,-0.30796000361442566
1779997171197821400,6.124821533203125,9.800829887390137,-0.0638820007443428,-0.29907599091529846
1779997171223736000,6.150736083984375,9.801289558410645,-0.06492999941110611,-0.28761500120162964
1779997171241012500,6.168012451171875,9.801276206970215,-0.0654280036687851,-0.28787198662757874
1779997171258289200,6.1852890625,9.800979614257812,-0.06577900052070618,-0.2948080003261566
1779997171275565600,6.202565673828125,9.800707817077637,-0.06599000096321106,-0.3041419982910156
1779997171292842000,6.219842041015625,9.8006010055542,-0.06645099818706512,-0.31039100885391235
1779997171310118400,6.237118408203125,9.800601959228516,-0.06699299812316895,-0.31001099944114685
1779997171327395000,6.25439501953125,9.800724983215332,-0.06754100322723389,-0.3031719923019409
1779997171344671500,6.27167138671875,9.801024436950684,-0.06809599697589874,-0.293720006942749
1779997171361948000,6.288947998046875,9.801305770874023,-0.0687049999833107,-0.287322998046875
1779997171379224600,6.306224609375,9.801280975341797,-0.06911399960517883,-0.28777700662612915
1779997171396501000,6.3235009765625,9.800986289978027,-0.06938900053501129,-0.2947539985179901
1779997171413777400,6.34077734375,9.800722122192383,-0.06956099718809128,-0.3039169907569885
1779997171431054000,6.35805419921875,9.80062198638916,-0.06996600329875946,-0.3099220097064972
1779997171448330500,6.37533056640625,9.80062484741211,-0.07043600082397461,-0.3093479871749878
1779997171465607000,6.39260693359375,9.800752639770508,-0.07092300057411194,-0.3025150001049042
1779997171482883300,6.40988330078125,9.80104923248291,-0.07147800177335739,-0.29326000809669495
1779997171500160000,6.427159912109375,9.801321029663086,-0.07201399654150009,-0.2870419919490814
1779997171517436700,6.444436767578125,9.80129337310791,-0.07233600318431854,-0.28759899735450745
1779997171534712800,6.461712890625,9.801006317138672,-0.07252799719572067,-0.2944889962673187
1779997171551989500,6.478989501953125,9.80075454711914,-0.07263600081205368,-0.303396999835968
1779997171569266000,6.496265869140625,9.8006591796875,-0.07292100042104721,-0.30911698937416077
1779997171586542600,6.51354248046875,9.800664901733398,-0.07329300045967102,-0.30831098556518555
1779997171603819000,6.530819091796875,9.800798416137695,-0.07365600019693375,-0.3013719916343689
1779997171621095400,6.548095458984375,9.801093101501465,-0.07408600300550461,-0.2922709882259369
1779997171638372000,6.5653720703125,9.801353454589844,-0.0745370015501976,-0.28637099266052246
1779997171655648800,6.582648681640625,9.801309585571289,-0.07480199635028839,-0.28723400831222534
1779997171672925200,6.59992529296875,9.80102252960205,-0.07492800056934357,-0.29423800110816956
1779997171690201600,6.61720166015625,9.800777435302734,-0.07500799745321274,-0.30303698778152466
1779997171707478300,6.634478271484375,9.80068588256836,-0.07526800036430359,-0.3084940016269684
1779997171724754700,6.651754638671875,9.80069637298584,-0.07558300346136093,-0.30747899413108826
1779997171742031000,6.669031005859375,9.800833702087402,-0.07591699808835983,-0.30051499605178833
1779997171759307800,6.686307861328125,9.801125526428223,-0.07630699872970581,-0.2915540039539337
1779997171776584200,6.703584228515625,9.801376342773438,-0.07669900357723236,-0.2858569920063019
1779997171793860600,6.720860595703125,9.801329612731934,-0.07689200341701508,-0.28683799505233765
1779997171811137000,6.738136962890625,9.801050186157227,-0.07697699964046478,-0.29375898838043213
1779997171828413400,6.755413330078125,9.80081558227539,-0.07700300216674805,-0.30230799317359924
1779997171845690000,6.772690185546875,9.80073070526123,-0.07722300291061401,-0.30747300386428833
1779997171862966500,6.789966552734375,9.80074405670166,-0.07751999795436859,-0.30623099207878113
1779997171880243200,6.8072431640625,9.800885200500488,-0.07781799882650375,-0.29922500252723694
1779997171897519600,6.82451953125,9.801173210144043,-0.07818000018596649,-0.2904529869556427
1779997171914796000,6.841796142578125,9.801410675048828,-0.07851400226354599,-0.28506600856781006
1779997171932072700,6.85907275390625,9.801350593566895,-0.07865799963474274,-0.2863079905509949
1779997171949349400,6.876349365234375,9.801071166992188,-0.078684002161026,-0.29333099722862244
1779997171966625800,6.893625732421875,9.800843238830566,-0.07879900187253952,-0.3017899990081787
1779997171983902200,6.910902099609375,9.800761222839355,-0.07905899733304977,-0.3067820072174072
1779997172001179000,6.928178955078125,9.800777435302734,-0.07940100133419037,-0.3054180145263672
1779997172018455300,6.945455322265625,9.800918579101562,-0.07976999878883362,-0.29845601320266724
1779997172035731700,6.962731689453125,9.801202774047852,-0.08034099638462067,-0.28985199332237244
1779997172053008100,6.980008056640625,9.80142593383789,-0.08091399818658829,-0.2846969962120056
1779997172070284800,6.997284912109375,9.801358222961426,-0.08129599690437317,-0.28610101342201233
1779997172087561200,7.014561279296875,9.801082611083984,-0.08148600161075592,-0.2931140065193176
1779997172104837600,7.031837646484375,9.800859451293945,-0.08168499916791916,-0.3014180064201355
1779997172122114300,7.0491142578125,9.800779342651367,-0.08206500113010406,-0.306210994720459
1779997172139390700,7.066390625,9.800797462463379,-0.08253099769353867,-0.30469900369644165
1779997172156667100,7.083667236328125,9.800942420959473,-0.08294100314378738,-0.2976900041103363
1779997172173943800,7.10094384765625,9.801223754882812,-0.08338399976491928,-0.2892589867115021
1779997172191220500,7.118220458984375,9.801436424255371,-0.08375799655914307,-0.2843700051307678
1779997172208496600,7.13549658203125,9.801360130310059,-0.08396700024604797,-0.285971999168396
1779997172225773300,7.152773193359375,9.801088333129883,-0.084026999771595,-0.2930090129375458
1779997172243050000,7.170050048828125,9.800873756408691,-0.08416900038719177,-0.3011400103569031
1779997172260326400,7.187326416015625,9.800799369812012,-0.08448100090026855,-0.305649995803833
1779997172277602800,7.204602783203125,9.800820350646973,-0.08489000052213669,-0.30393901467323303
1779997172294879200,7.221879150390625,9.800966262817383,-0.08531499654054642,-0.29695698618888855
1779997172312156000,7.239156005859375,9.801243782043457,-0.08591199666261673,-0.28867900371551514
1779997172329432600,7.2564326171875,9.801444053649902,-0.08649799972772598,-0.28402000665664673
1779997172346708700,7.273708740234375,9.801361083984375,-0.08689899742603302,-0.2857789993286133
1779997172363985400,7.2909853515625,9.801093101501465,-0.08710899949073792,-0.2927840054035187
1779997172381261800,7.30826171875,9.800885200500488,-0.08733800053596497,-0.3007409870624542
1779997172398538200,7.325538330078125,9.800813674926758,-0.08769600093364716,-0.30501100420951843
1779997172415815000,7.34281494140625,9.800838470458984,-0.088128000497818,-0.3030970096588135
1779997172433091600,7.360091552734375,9.800989151000977,-0.08854299783706665,-0.29603999853134155
1779997172450367700,7.37736767578125,9.801263809204102,-0.08903899788856506,-0.2879039943218231
1779997172467644400,7.39464453125,9.801454544067383,-0.08950699865818024,-0.2834649980068207
1779997172484920800,7.4119208984375,9.801363945007324,-0.08980900049209595,-0.28539401292800903
1779997172502197200,7.429197265625,9.80109977722168,-0.08996199816465378,-0.29241499304771423
1779997172519474000,7.446473876953125,9.800898551940918,-0.09012000262737274,-0.3002510070800781
1779997172536750300,7.463750244140625,9.800829887390137,-0.0904259979724884,-0.3043369948863983
1779997172554027000,7.481027099609375,9.800856590270996,-0.0908069983124733,-0.30232399702072144
1779997172571303400,7.498303466796875,9.801011085510254,-0.09114599972963333,-0.29531198740005493
1779997172588579800,7.515579833984375,9.80128288269043,-0.09159500151872635,-0.28732800483703613
1779997172605856500,7.5328564453125,9.801464080810547,-0.09199800342321396,-0.2831070125102997
1779997172623133000,7.5501328125,9.80136775970459,-0.0922669991850853,-0.28517600893974304
1779997172640409600,7.56740966796875,9.801106452941895,-0.09240099787712097,-0.29216599464416504
1779997172657686000,7.58468603515625,9.800912857055664,-0.09261199831962585,-0.29982298612594604
1779997172674962700,7.601962646484375,9.800848007202148,-0.09293200075626373,-0.3036859929561615
1779997172692238800,7.61923876953125,9.800875663757324,-0.09334100037813187,-0.3015249967575073
1779997172718153700,7.64515380859375,9.801162719726562,-0.09395100176334381,-0.2904050052165985
1779997172735430400,7.662430419921875,9.801417350769043,-0.09447599947452545,-0.28394100069999695
1779997172752706800,7.679706787109375,9.801461219787598,-0.0948299989104271,-0.28290799260139465
1779997172769983200,7.696983154296875,9.801253318786621,-0.095039002597332,-0.2878589928150177
1779997172787259600,7.714259765625,9.801010131835938,-0.09514199942350388,-0.29569798707962036
1779997172804536300,7.731536376953125,9.800889015197754,-0.09539200365543365,-0.3017300069332123
1779997172821812700,7.748812744140625,9.800873756408691,-0.09578000009059906,-0.3024339973926544
1779997172839089200,7.766089111328125,9.800963401794434,-0.09617999941110611,-0.2973420023918152
1779997172856365800,7.78336572265625,9.801190376281738,-0.09662500023841858,-0.2893820106983185
1779997172873642200,7.800642333984375,9.801432609558105,-0.09703800082206726,-0.2832320034503937
1779997172890918700,7.817918701171875,9.801464080810547,-0.09733600169420242,-0.2825259864330292
1779997172908195300,7.8351953125,9.801250457763672,-0.09744399785995483,-0.2876580059528351
1779997172925471700,7.8524716796875,9.801012992858887,-0.09747499972581863,-0.2954440116882324
1779997172942748400,7.86974853515625,9.800897598266602,-0.097632996737957,-0.30128800868988037
1779997172960025000,7.887025146484375,9.800886154174805,-0.09787599742412567,-0.3018839955329895
1779997172977301500,7.904301513671875,9.800978660583496,-0.0981760025024414,-0.29684901237487793
1779997172994578000,7.921577880859375,9.801203727722168,-0.09848599880933762,-0.2890090048313141
1779997173011854300,7.938854248046875,9.801440238952637,-0.09893099963665009,-0.2829889953136444
1779997173029131000,7.956131103515625,9.80146598815918,-0.09921299666166306,-0.28237301111221313
1779997173046407400,7.973407470703125,9.801258087158203,-0.09938900172710419,-0.28745201230049133
1779997173063684000,7.99068408203125,9.801029205322266,-0.09948699921369553,-0.29502999782562256
1779997173089598700,8.0165986328125,9.800904273986816,-0.0999390035867691,-0.30151501297950745
1779997173106875100,8.033875244140624,9.800942420959473,-0.10030800104141235,-0.2989110052585602
1779997173124151800,8.05115185546875,9.801102638244629,-0.10068999975919724,-0.29194900393486023
1779997173141428200,8.06842822265625,9.80135726928711,-0.10109599679708481,-0.284637987613678
1779997173158705000,8.085704833984375,9.80150032043457,-0.10144499689340591,-0.28126999735832214
1779997173175981300,8.102981201171875,9.801386833190918,-0.1016170009970665,-0.2838590145111084
1779997173193258000,8.120258056640624,9.801143646240234,-0.10165999829769135,-0.2907179892063141
1779997173210534400,8.137534423828125,9.800973892211914,-0.10175000131130219,-0.29776400327682495
1779997173227811000,8.15481103515625,9.800921440124512,-0.101951003074646,-0.3008739948272705
1779997173245087200,8.172087158203125,9.800960540771484,-0.10224200040102005,-0.2982499897480011
1779997173262364000,8.189364013671875,9.80112361907959,-0.10254000127315521,-0.29139700531959534
1779997173279640300,8.206640380859374,9.801372528076172,-0.10293599963188171,-0.28428399562835693
1779997173296917000,8.2239169921875,9.801504135131836,-0.10329700261354446,-0.2811580002307892
1779997173314193400,8.241193359375,9.801383018493652,-0.1034889966249466,-0.28390300273895264
1779997173331469800,8.2584697265625,9.801142692565918,-0.10358399897813797,-0.29072800278663635
1779997173348746200,8.275746337890626,9.800980567932129,-0.1037449985742569,-0.2975409924983978
1779997173366023000,8.29302294921875,9.800931930541992,-0.10403300076723099,-0.30038198828697205
1779997173383299600,8.310299560546875,9.80097484588623,-0.10437200218439102,-0.2975910007953644
1779997173400576000,8.327575927734374,9.801137924194336,-0.10473699867725372,-0.29075101017951965
1779997173417852400,8.344852294921875,9.801382064819336,-0.10510499775409698,-0.2837980091571808
1779997173435129000,8.362129150390626,9.801507949829102,-0.10541199892759323,-0.2808530032634735
1779997173452405500,8.379405517578125,9.801382064819336,-0.10560300201177597,-0.28369298577308655
1779997173469682000,8.396681884765625,9.8011474609375,-0.10566599667072296,-0.2904849946498871
1779997173486958600,8.41395849609375,9.80099105834961,-0.10575400292873383,-0.2971540093421936
1779997173504235000,8.431235107421875,9.800946235656738,-0.10597299784421921,-0.299796998500824
1779997173521511400,8.448511474609376,9.800992012023926,-0.10628499835729599,-0.29689300060272217
1779997173538788000,8.4657880859375,9.801156997680664,-0.10662899911403656,-0.29009300470352173
1779997173556064500,8.483064453125,9.80139446258545,-0.107014000415802,-0.2833549976348877
1779997173573341000,8.5003408203125,9.801506996154785,-0.10735300183296204,-0.28064998984336853
1779997173590617600,8.51761767578125,9.80137825012207,-0.10753200203180313,-0.2836169898509979
1779997173607894000,8.53489404296875,9.8011474609375,-0.10762099921703339,-0.2903729975223541
1779997173625170700,8.552170654296875,9.800995826721191,-0.107744000852108,-0.2968829870223999
1779997173642447000,8.569447021484375,9.800952911376953,-0.10796099901199341,-0.29932698607444763
1779997173659723500,8.5867236328125,9.801003456115723,-0.1082639992237091,-0.29624998569488525
1779997173677000200,8.604000244140625,9.801173210144043,-0.10856799781322479,-0.2893719971179962
1779997173694276600,8.621276611328126,9.801406860351562,-0.10885900259017944,-0.28275400400161743
1779997173711553000,8.638552978515625,9.801513671875,-0.1090259999036789,-0.28026700019836426
1779997173728829700,8.65582958984375,9.801380157470703,-0.1090489998459816,-0.2834109961986542
1779997173746106000,8.673106201171874,9.801154136657715,-0.10901500284671783,-0.29016000032424927
1779997173763382500,8.690382568359375,9.801008224487305,-0.10903500020503998,-0.29650700092315674
1779997173780659200,8.7076591796875,9.800969123840332,-0.10909800231456757,-0.29878199100494385
1779997173797935600,8.724935546875,9.80102252960205,-0.10923399776220322,-0.29566898941993713
1779997173815212000,8.7422119140625,9.801194190979004,-0.10937300324440002,-0.28892698884010315
1779997173832488700,8.75948876953125,9.80142593383789,-0.10963200032711029,-0.28240901231765747
1779997173849765000,8.77676513671875,9.80152702331543,-0.10985299944877625,-0.28001299500465393
1779997173867041500,8.79404150390625,9.801396369934082,-0.10992400348186493,-0.2831389904022217
1779997173884318200,8.811318115234375,9.801175117492676,-0.10995999723672867,-0.28977200388908386
1779997173901595000,8.828594970703126,9.801034927368164,-0.11009799689054489,-0.2959260046482086
1779997173918871000,8.84587109375,9.800996780395508,-0.11039099842309952,-0.29797500371932983
1779997173936147700,8.863147705078125,9.801051139831543,-0.11074700206518173,-0.2946929931640625
1779997173953424400,8.88042431640625,9.801219940185547,-0.11119899898767471,-0.28789201378822327
1779997173970700800,8.89770068359375,9.801444053649902,-0.11163900047540665,-0.28154000639915466
1779997173987977200,8.914977294921876,9.801534652709961,-0.11200699955224991,-0.279356986284256
1779997174005254000,8.93225390625,9.801398277282715,-0.11221300065517426,-0.2826080024242401
1779997174022530300,8.9495302734375,9.801179885864258,-0.1123099997639656,-0.2892090082168579
1779997174039807000,8.966806884765624,9.801042556762695,-0.11248300224542618,-0.29521098732948303
1779997174057083400,8.98408349609375,9.801010131835938,-0.1127299964427948,-0.2970919907093048
1779997174074359800,9.00135986328125,9.801066398620605,-0.1130480021238327,-0.29374200105667114
1779997174091636500,9.018636474609375,9.801236152648926,-0.11337999999523163,-0.2870180010795593
1779997174108913000,9.035912841796875,9.801459312438965,-0.11384200304746628,-0.28072699904441833
1779997174126189600,9.053189453125,9.801546096801758,-0.11421199887990952,-0.2786009907722473
1779997174143466000,9.070466064453125,9.801412582397461,-0.1144300028681755,-0.28183698654174805
1779997174160742400,9.087742431640624,9.801199913024902,-0.11456499993801117,-0.28833499550819397
1779997174178018800,9.105018798828125,9.801068305969238,-0.11477100104093552,-0.29414400458335876
1779997174195295500,9.12229541015625,9.801036834716797,-0.1150979995727539,-0.2958039939403534
1779997174212572200,9.139572265625,9.801095008850098,-0.11548399925231934,-0.2923080027103424
1779997174229848600,9.1568486328125,9.80126667022705,-0.11581899970769882,-0.2856050133705139
1779997174247125000,9.174125,9.801485061645508,-0.11621300131082535,-0.27948400378227234
1779997174264401700,9.191401611328125,9.801563262939453,-0.11654999852180481,-0.27753299474716187
1779997174281678300,9.20867822265625,9.801426887512207,-0.11674799770116806,-0.28084298968315125
1779997174298954800,9.225954833984375,9.801220893859863,-0.11687400192022324,-0.2872540056705475
1779997174316231200,9.243231201171875,9.801095962524414,-0.11705899983644485,-0.29289400577545166
1779997174333507600,9.260507568359374,9.801067352294922,-0.11735799908638,-0.294389009475708
1779997174350784300,9.2777841796875,9.801127433776855,-0.11770600080490112,-0.29082998633384705
1779997174368060700,9.295060791015626,9.801298141479492,-0.11805299669504166,-0.2842170000076294
1779997174385337300,9.31233740234375,9.801505088806152,-0.11842100322246552,-0.2783769965171814
1779997174402613800,9.32961376953125,9.8015718460083,-0.11871100217103958,-0.2767229974269867
1779997174419890200,9.34689013671875,9.801432609558105,-0.11887899786233902,-0.2801699936389923
1779997174437166800,9.364166748046875,9.80123233795166,-0.1189500018954277,-0.2865389883518219
1779997174454443300,9.381443359375,9.801111221313477,-0.11913300305604935,-0.2920039892196655
1779997174471720000,9.398719970703125,9.8010835647583,-0.11942200362682343,-0.2933329939842224
1779997174488996000,9.41599609375,9.8011474609375,-0.11976999789476395,-0.2897230088710785
1779997174506272800,9.433272705078124,9.80131721496582,-0.12013900279998779,-0.2831299901008606
1779997174523549200,9.450549072265625,9.80152416229248,-0.12051399797201157,-0.27734699845314026
1779997174540825900,9.467825927734374,9.801586151123047,-0.12082099914550781,-0.2757830023765564
1779997174558102300,9.485102294921875,9.801445960998535,-0.12096700072288513,-0.27929601073265076
1779997174575379000,9.50237890625,9.801247596740723,-0.12105400115251541,-0.2856239974498749
1779997174592655000,9.519655029296874,9.801130294799805,-0.1211479976773262,-0.2909550070762634
1779997174609931800,9.536931884765625,9.80111026763916,-0.12132599949836731,-0.29211100935935974
1779997174627208400,9.55420849609375,9.801176071166992,-0.12156099826097488,-0.2883780002593994
1779997174644484900,9.57148486328125,9.801349639892578,-0.12178199738264084,-0.281825989484787
1779997174661761300,9.58876123046875,9.80155086517334,-0.1220640018582344,-0.2762030065059662
1779997174679038000,9.606037841796875,9.801606178283691,-0.12225800007581711,-0.2747949957847595
1779997174696314400,9.623314453125,9.801466941833496,-0.12232399731874466,-0.2783440053462982
1779997174713590800,9.6405908203125,9.801275253295898,-0.12228699773550034,-0.2845799922943115
1779997174730867500,9.657867431640625,9.801163673400879,-0.12234500050544739,-0.2897630035877228
1779997174748144000,9.67514404296875,9.801145553588867,-0.12249299883842468,-0.290803998708725
1779997174765420500,9.692420654296875,9.801213264465332,-0.12272199988365173,-0.28706100583076477
1779997174782697000,9.709697021484375,9.801384925842285,-0.12293799966573715,-0.2806209921836853
1779997174799973600,9.7269736328125,9.801581382751465,-0.12314999848604202,-0.2751710116863251
1779997174817250300,9.744250244140625,9.801631927490234,-0.12325599789619446,-0.27392101287841797
1779997174834526700,9.761526611328126,9.801491737365723,-0.12325000017881393,-0.2775540053844452
1779997174851803100,9.77880322265625,9.801302909851074,-0.12321799993515015,-0.28374600410461426
1779997174869079600,9.79607958984375,9.801196098327637,-0.12324599921703339,-0.28875601291656494
1779997174886356200,9.813356201171874,9.801182746887207,-0.12335100024938583,-0.2895840108394623
1779997174903632600,9.830632568359375,9.801253318786621,-0.12353900074958801,-0.28570300340652466
1779997174920909300,9.847909423828124,9.80142593383789,-0.12374900281429291,-0.2792530059814453
1779997174938185700,9.865185791015625,9.801615715026855,-0.12401299923658371,-0.27396100759506226
1779997174955462400,9.88246240234375,9.801657676696777,-0.12418600171804428,-0.2728709876537323
1779997174972738600,9.899738525390624,9.80151653289795,-0.12421099841594696,-0.27655500173568726
1779997174990015200,9.91701513671875,9.8013334274292,-0.12418700009584427,-0.282694011926651
1779997175007292000,9.9342919921875,9.801228523254395,-0.1242780014872551,-0.2876029908657074
1779997175024568300,9.951568359375,9.801215171813965,-0.12442299723625183,-0.2883540093898773
1779997175041845000,9.968844970703126,9.801287651062012,-0.12462499737739563,-0.28449198603630066
1779997175059121400,9.986121337890625,9.801456451416016,-0.12484099715948105,-0.27814799547195435
1779997175076397800,10.003397705078125,9.801641464233398,-0.12509499490261078,-0.2729969918727875
1779997175093674200,10.02067431640625,9.801679611206055,-0.12527699768543243,-0.27203598618507385
1779997175110951000,10.037950927734375,9.801539421081543,-0.12534800171852112,-0.2757219970226288
1779997175128227300,10.055227294921876,9.801361083984375,-0.12536700069904327,-0.2817089855670929
1779997175145503700,10.072503662109375,9.801262855529785,-0.12545299530029297,-0.28643399477005005
1779997175162780400,10.089780517578125,9.801250457763672,-0.12564100325107574,-0.2870590090751648
1779997175180057000,10.10705712890625,9.801323890686035,-0.12589100003242493,-0.2831369936466217
1779997175197333500,10.12433349609375,9.80148983001709,-0.1261499971151352,-0.2769100069999695
1779997175214610000,10.14160986328125,9.801666259765625,-0.12642300128936768,-0.2719790041446686
1779997175231886600,10.158886474609375,9.801692962646484,-0.12658700346946716,-0.2712540030479431
1779997175249163300,10.176163330078126,9.80154800415039,-0.12663200497627258,-0.2751219868659973
1779997175266439400,10.193439453125,9.801370620727539,-0.12661099433898926,-0.28119298815727234
1779997175283716000,10.210716064453125,9.801275253295898,-0.12665799260139465,-0.2858389914035797
1779997175300992800,10.22799267578125,9.80126667022705,-0.12676399946212769,-0.2863830029964447
1779997175318269200,10.245269287109375,9.801340103149414,-0.12694400548934937,-0.2824549973011017
1779997175335545600,10.262545654296876,9.801509857177734,-0.12710200250148773,-0.2762730121612549
1779997175352822300,10.279822265625,9.801682472229004,-0.12729200720787048,-0.27145901322364807
1779997175370098700,10.2970986328125,9.801705360412598,-0.12738299369812012,-0.27083298563957214
1779997175387375000,10.314375,9.801563262939453,-0.12735599279403687,-0.2747020125389099
1779997175404651800,10.33165185546875,9.8013916015625,-0.1273140013217926,-0.28066200017929077
1779997175421928400,10.348928466796876,9.801300048828125,-0.12735599279403687,-0.28515899181365967
1779997175439204600,10.36620458984375,9.801289558410645,-0.12747600674629211,-0.28558099269866943
1779997175456481300,10.383481201171875,9.801365852355957,-0.12766900658607483,-0.2816610038280487
1779997175473757700,10.4007578125,9.801531791687012,-0.1278810054063797,-0.27563101053237915
1779997175491034400,10.418034423828125,9.801694869995117,-0.12808500230312347,-0.2710539996623993
1779997175508310800,10.435310791015626,9.80171012878418,-0.12818799912929535,-0.27065399289131165
1779997175525587500,10.45258740234375,9.801562309265137,-0.12818700075149536,-0.2746390104293823
1779997175542864000,10.46986376953125,9.80139446258545,-0.12814800441265106,-0.28056600689888
1779997175560140300,10.487140380859374,9.80130672454834,-0.12818600237369537,-0.28489500284194946
1779997175577417000,10.5044169921875,9.801301002502441,-0.12828700244426727,-0.28516000509262085
1779997175594693400,10.521693359375,9.801379203796387,-0.1284549981355667,-0.28116199374198914
1779997175611970000,10.538969970703125,9.801545143127441,-0.12864500284194946,-0.2751530110836029
1779997175629246500,10.55624658203125,9.801706314086914,-0.12886300683021545,-0.2706510126590729
1779997175646523000,10.57352294921875,9.801718711853027,-0.12898899614810944,-0.27028998732566833
1779997175663799600,10.590799560546875,9.801575660705566,-0.12898600101470947,-0.27421900629997253
1779997175681076000,10.608075927734374,9.801412582397461,-0.12894399464130402,-0.280021995306015
1779997175698352400,10.625352294921875,9.801326751708984,-0.1289750039577484,-0.2842499911785126
1779997175715629000,10.642629150390626,9.801321983337402,-0.12908999621868134,-0.28442299365997314
1779997175732905700,10.65990576171875,9.801401138305664,-0.12928099930286407,-0.2804029881954193
1779997175750182000,10.677181884765625,9.801566123962402,-0.12949900329113007,-0.27447399497032166
1779997175767458600,10.69445849609375,9.801721572875977,-0.12977999448776245,-0.27012398838996887
1779997175784735200,10.7117353515625,9.801728248596191,-0.12993499636650085,-0.269896000623703
1779997175802011400,10.729011474609376,9.801583290100098,-0.13002200424671173,-0.2738800048828125
1779997175819288000,10.7462880859375,9.801422119140625,-0.13012099266052246,-0.2795819938182831
1779997175836564700,10.763564697265625,9.801339149475098,-0.1303039938211441,-0.28361400961875916
1779997175853841400,10.78084130859375,9.801335334777832,-0.13054700195789337,-0.2836270034313202
1779997175871117600,10.79811767578125,9.80141544342041,-0.13082000613212585,-0.2795659899711609
1779997175888394200,10.815394287109376,9.801579475402832,-0.13110800087451935,-0.2736569941043854
1779997175905671000,10.8326708984375,9.801730155944824,-0.1313759982585907,-0.2694070041179657
1779997175922947000,10.849947021484375,9.801732063293457,-0.13158400356769562,-0.26927900314331055
1779997175940223700,10.8672236328125,9.801589965820312,-0.13164399564266205,-0.27326399087905884
1779997175957500400,10.88450048828125,9.801433563232422,-0.1316860020160675,-0.278905987739563
1779997175974776800,10.90177685546875,9.801355361938477,-0.13177600502967834,-0.2827790081501007
1779997175992053200,10.91905322265625,9.80135440826416,-0.1319590061903,-0.2826499938964844
1779997176009330000,10.936329833984376,9.801436424255371,-0.1321759968996048,-0.27856001257896423
1779997176026606600,10.953606689453125,9.80159854888916,-0.13238699734210968,-0.27279898524284363
1779997176043882800,10.9708828125,9.80174446105957,-0.13261500000953674,-0.2687239944934845
1779997176061159400,10.988159423828124,9.801740646362305,-0.13273899257183075,-0.2687560021877289
1779997176078436000,11.00543603515625,9.801596641540527,-0.13275499641895294,-0.27278000116348267
1779997176095712500,11.02271240234375,9.801444053649902,-0.13274000585079193,-0.278346985578537
1779997176112989000,11.039989013671875,9.80136775970459,-0.13280199468135834,-0.28213798999786377
1779997176130265600,11.057265625,9.801370620727539,-0.13294300436973572,-0.28191301226615906
1779997176147542000,11.0745419921875,9.801454544067383,-0.13315600156784058,-0.27776598930358887
1779997176164818400,11.091818359375,9.801615715026855,-0.13338999450206757,-0.2720560133457184
1779997176182095000,11.10909521484375,9.801755905151367,-0.13360700011253357,-0.26811501383781433
1779997176199371500,11.12637158203125,9.801749229431152,-0.13371099531650543,-0.26822298765182495
1779997176216648000,11.14364794921875,9.801608085632324,-0.13369899988174438,-0.27223899960517883
1779997176233924600,11.160924560546874,9.801462173461914,-0.1336829960346222,-0.2776849865913391
1779997176251201000,11.178200927734375,9.801389694213867,-0.1337060034275055,-0.28131499886512756
1779997176268477700,11.195477783203126,9.80139446258545,-0.13380500674247742,-0.28100401163101196
1779997176285754000,11.212754150390625,9.80147933959961,-0.13395799696445465,-0.27689099311828613
1779997176303030800,11.23003076171875,9.801636695861816,-0.1341259926557541,-0.27129900455474854
1779997176320307200,11.24730712890625,9.80177116394043,-0.1343030035495758,-0.26753801107406616
1779997176337583900,11.264583984375,9.801759719848633,-0.1343889981508255,-0.2678239941596985
1779997176354860300,11.2818603515625,9.801616668701172,-0.13436299562454224,-0.2719300091266632
1779997176372136700,11.29913671875,9.801469802856445,-0.1343580037355423,-0.27737200260162354
1779997176389413400,11.316413330078126,9.801398277282715,-0.13440799713134766,-0.28090301156044006
1779997176406690000,11.33368994140625,9.801405906677246,-0.1345050036907196,-0.2804960012435913
1779997176423966200,11.35096630859375,9.801492691040039,-0.13463599979877472,-0.27636098861694336
1779997176441243000,11.368242919921874,9.801651000976562,-0.13480199873447418,-0.2708370089530945
1779997176458519300,11.385519287109375,9.801779747009277,-0.13497300446033478,-0.2671929895877838
1779997176475796000,11.4027958984375,9.801766395568848,-0.13505199551582336,-0.2675510048866272
1779997176501710600,11.428710693359376,9.80154800415039,-0.13500599563121796,-0.2743389904499054
1779997176518987300,11.4459873046875,9.801441192626953,-0.135002002120018,-0.2790229916572571
1779997176536264000,11.463263916015626,9.801412582397461,-0.13510100543498993,-0.2805129885673523
1779997176553540400,11.480540283203124,9.801459312438965,-0.13524499535560608,-0.27792099118232727
1779997176570816800,11.497816650390625,9.801589012145996,-0.13540999591350555,-0.27267399430274963
1779997176588093400,11.515093505859374,9.801749229431152,-0.13559100031852722,-0.26775598526000977
1779997176605369900,11.532369873046875,9.8018159866333,-0.1357239931821823,-0.2659919857978821
1779997176622646300,11.549646240234376,9.801728248596191,-0.13576200604438782,-0.2683590054512024
1779997176639923000,11.5669228515625,9.8015775680542,-0.13574199378490448,-0.27330300211906433
1779997176657199600,11.58419970703125,9.801473617553711,-0.13577499985694885,-0.2778339982032776
1779997176674475800,11.601475830078124,9.801448822021484,-0.13587500154972076,-0.27922600507736206
1779997176691752400,11.61875244140625,9.801497459411621,-0.13606299459934235,-0.2766059935092926
1779997176709029000,11.636029052734376,9.801623344421387,-0.13624100387096405,-0.27144700288772583
1779997176734943700,11.66194384765625,9.801820755004883,-0.13657499849796295,-0.26553601026535034
1779997176752220400,11.679220458984375,9.801794052124023,-0.13671299815177917,-0.26617100834846497
1779997176769496800,11.696496826171876,9.801653861999512,-0.13676899671554565,-0.27032700181007385
1779997176786773500,11.7137734375,9.801515579223633,-0.1367959976196289,-0.27553799748420715
1779997176804050000,11.7310498046875,9.801454544067383,-0.1368740051984787,-0.27870801091194153
1779997176821326300,11.748326416015624,9.801465034484863,-0.13703100383281708,-0.2780280113220215
1779997176838603000,11.76560302734375,9.801552772521973,-0.13720999658107758,-0.2738719880580902
1779997176855879400,11.78287939453125,9.801705360412598,-0.1373700052499771,-0.2685909867286682
1779997176873155800,11.80015576171875,9.801820755004883,-0.13750100135803223,-0.2653369903564453
1779997176890432500,11.8174326171875,9.801796913146973,-0.1375270038843155,-0.26600199937820435
1779997176907709000,11.834708984375,9.80165958404541,-0.13746599853038788,-0.27010801434516907
1779997176924985600,11.851985595703125,9.801528930664062,-0.13743099570274353,-0.275177001953125
1779997176942262000,11.869261962890626,9.801468849182129,-0.13742299377918243,-0.27817198634147644
1779997176959538400,11.886538330078125,9.801483154296875,-0.13750100135803223,-0.27737000584602356
1779997176976815000,11.903815185546875,9.801573753356934,-0.1376499980688095,-0.27319198846817017
1779997176994091500,11.921091552734374,9.801724433898926,-0.13780300319194794,-0.26802098751068115
1779997177011368200,11.9383681640625,9.801833152770996,-0.1379469931125641,-0.2649349868297577
1779997177028644600,11.95564453125,9.801802635192871,-0.13799099624156952,-0.2657279968261719
1779997177045921000,11.972921142578125,9.801666259765625,-0.13794800639152527,-0.26986899971961975
1779997177063197700,11.99019775390625,9.801539421081543,-0.13790300488471985,-0.2748650014400482
1779997177080474000,12.00747412109375,9.801483154296875,-0.13789500296115875,-0.2777499854564667
1779997177097750500,12.02475048828125,9.801498413085938,-0.13794000446796417,-0.2768569886684418
1779997177115027200,12.042027099609374,9.801589965820312,-0.13802100718021393,-0.2726669907569885
1779997177132304000,12.059303955078125,9.801741600036621,-0.13815300166606903,-0.26752999424934387
1779997177149580300,12.076580322265626,9.801849365234375,-0.1382720023393631,-0.26448699831962585
1779997177166856700,12.093856689453125,9.80181884765625,-0.1383019983768463,-0.2653079926967621
1779997177184133000,12.111133056640625,9.801682472229004,-0.13825899362564087,-0.2694129943847656
1779997177201409800,12.128409912109374,9.801557540893555,-0.13830099999904633,-0.2743310034275055
1779997177218686200,12.145686279296875,9.801501274108887,-0.13842299580574036,-0.2770960032939911
1779997177235963000,12.162962890625,9.80151653289795,-0.138605996966362,-0.27611199021339417
1779997177253239300,12.1802392578125,9.801607131958008,-0.1388310045003891,-0.2719370126724243
1779997177270516000,12.197515869140625,9.801753997802734,-0.13904300332069397,-0.26694801449775696
1779997177287792400,12.21479248046875,9.801854133605957,-0.1392270028591156,-0.2640730142593384
1779997177305069000,12.232069091796875,9.80181884765625,-0.1393049955368042,-0.26499900221824646
1779997177322345500,12.249345458984376,9.801685333251953,-0.13929499685764313,-0.2690970003604889
1779997177339622100,12.2666220703125,9.801563262939453,-0.1392820030450821,-0.2739099860191345
1779997177356898600,12.283898681640625,9.801511764526367,-0.13934899866580963,-0.27653801441192627
1779997177374175200,12.30117529296875,9.801527976989746,-0.13948599994182587,-0.27547499537467957
1779997177391451600,12.31845166015625,9.801619529724121,-0.13965199887752533,-0.27129998803138733
1779997177408728000,12.33572802734375,9.801763534545898,-0.13987000286579132,-0.26640599966049194
1779997177426004700,12.353004638671875,9.801859855651855,-0.1400739997625351,-0.2636989951133728
1779997177443281200,12.37028125,9.80181884765625,-0.14019300043582916,-0.2647390067577362
1779997177460557600,12.3875576171875,9.801685333251953,-0.14019499719142914,-0.26885101199150085
1779997177477834200,12.404834228515625,9.801568031311035,-0.1402129977941513,-0.27356401085853577
1779997177495111000,12.42211083984375,9.801518440246582,-0.14025500416755676,-0.2760300040245056
1779997177512387000,12.439386962890625,9.80154037475586,-0.14036299288272858,-0.2748120129108429
1779997177529663700,12.456663818359376,9.8016357421875,-0.14048700034618378,-0.2705189883708954
1779997177546940400,12.4739404296875,9.801782608032227,-0.14060600101947784,-0.2655409872531891
1779997177564217000,12.491217041015625,9.801880836486816,-0.14069999754428864,-0.2627609968185425
1779997177581493200,12.5084931640625,9.801847457885742,-0.1407029926776886,-0.2637220025062561
1779997177598770000,12.52577001953125,9.801718711853027,-0.14062699675559998,-0.26771000027656555
1779997177616046600,12.543046630859376,9.801607131958008,-0.14055299758911133,-0.2723410129547119
1779997177633323000,12.560322998046875,9.801560401916504,-0.1405629962682724,-0.2747400104999542
1779997177650599400,12.577599365234375,9.801581382751465,-0.14063400030136108,-0.27350300550460815
1779997177667876000,12.5948759765625,9.801675796508789,-0.14075499773025513,-0.26934298872947693
1779997177685152800,12.61215283203125,9.8018159866333,-0.14086100459098816,-0.2645780146121979
1779997177702429200,12.62942919921875,9.801905632019043,-0.14094999432563782,-0.2620309889316559
1779997177719705600,12.64670556640625,9.801864624023438,-0.14096799492835999,-0.2631630003452301
1779997177736982000,12.66398193359375,9.801737785339355,-0.14091500639915466,-0.2672159969806671
1779997177754258700,12.6812587890625,9.80162525177002,-0.1408659964799881,-0.2717680037021637
1779997177771535000,12.69853515625,9.801581382751465,-0.140858992934227,-0.27406901121139526
1779997177788811800,12.715811767578124,9.801605224609375,-0.14093300700187683,-0.27275198698043823
1779997177806088200,12.733088134765625,9.801698684692383,-0.14104700088500977,-0.26858600974082947
1779997177823364900,12.75036474609375,9.801834106445312,-0.1412079930305481,-0.26398301124572754
1779997177840641300,12.767641357421875,9.801916122436523,-0.1413230001926422,-0.26165899634361267
1779997177857917700,12.784917724609375,9.801868438720703,-0.1413780003786087,-0.26295900344848633
1779997177875194400,12.8021943359375,9.801740646362305,-0.14137400686740875,-0.26706400513648987
1779997177892470800,12.819470703125,9.801630973815918,-0.14138799905776978,-0.27152198553085327
1779997177909747500,12.83674755859375,9.80158805847168,-0.1413850039243698,-0.27370700240135193
1779997177927023900,12.85402392578125,9.80161190032959,-0.14145299792289734,-0.272367000579834
1779997177944300300,12.87130029296875,9.80170726776123,-0.14154300093650818,-0.2681970000267029
1779997177961577000,12.888576904296874,9.801847457885742,-0.14162300527095795,-0.2635520100593567
1779997177978853600,12.905853515625,9.801929473876953,-0.1416970044374466,-0.26119500398635864
1779997177996130000,12.923130126953126,9.801885604858398,-0.14165200293064117,-0.2624100148677826
1779997178013406500,12.940406494140625,9.801763534545898,-0.14155499637126923,-0.2663869857788086
1779997178030683100,12.95768310546875,9.80165958404541,-0.14154000580310822,-0.27072399854660034
1779997178047959600,12.97495947265625,9.801618576049805,-0.14160999655723572,-0.2727479934692383
1779997178065236200,12.992236328125,9.801645278930664,-0.14172899723052979,-0.2712849974632263
1779997178082512600,13.0095126953125,9.801738739013672,-0.1419149935245514,-0.26714199781417847
1779997178099789000,13.0267890625,9.801873207092285,-0.14207999408245087,-0.26262399554252625
1779997178117065700,13.044065673828126,9.801950454711914,-0.14222100377082825,-0.2604070007801056
1779997178134342100,13.061342041015624,9.801900863647461,-0.1422879993915558,-0.2617419958114624
1779997178151618800,13.078618896484375,9.801778793334961,-0.1422709971666336,-0.26572999358177185
1779997178168895200,13.095895263671874,9.801677703857422,-0.14223900437355042,-0.26993700861930847
1779997178186172000,13.113171875,9.801641464233398,-0.14224499464035034,-0.27178001403808594
1779997178203448300,13.1304482421875,9.801671028137207,-0.14228999614715576,-0.2701449990272522
1779997178220724700,13.147724853515625,9.801770210266113,-0.14236299693584442,-0.2659049928188324
1779997178238001400,13.16500146484375,9.801905632019043,-0.1424649953842163,-0.2614090144634247
1779997178255277800,13.18227783203125,9.801981925964355,-0.14256399869918823,-0.25922301411628723
1779997178272554500,13.199554443359375,9.801932334899902,-0.14256399869918823,-0.26054298877716064
1779997178289831200,13.2168310546875,9.801815032958984,-0.14252500236034393,-0.2644740045070648
1779997178307107600,13.234107666015625,9.801714897155762,-0.142535999417305,-0.26864001154899597
1779997178324384000,13.251384033203125,9.801678657531738,-0.1426050066947937,-0.2704789936542511
1779997178341660400,13.268660400390624,9.80170726776123,-0.14274799823760986,-0.26892098784446716
1779997178358937000,13.28593701171875,9.801800727844238,-0.1429309993982315,-0.2648020088672638
1779997178376213800,13.3032138671875,9.801929473876953,-0.14311200380325317,-0.260466992855072
1779997178393490200,13.320490234375,9.801996231079102,-0.14326100051403046,-0.2585040032863617
1779997178410766600,13.3377666015625,9.801941871643066,-0.14335399866104126,-0.260001003742218
1779997178428043300,13.355043212890624,9.801819801330566,-0.14337100088596344,-0.26400500535964966
1779997178445319700,13.372319580078125,9.801721572875977,-0.14343099296092987,-0.2681649923324585
1779997178462596000,13.38959619140625,9.801685333251953,-0.14360100030899048,-0.2699440121650696
1779997178479872800,13.406872802734375,9.801712036132812,-0.14384399354457855,-0.26833999156951904
1779997178497149400,13.4241494140625,9.801803588867188,-0.14409400522708893,-0.26428401470184326
1779997178514425900,13.44142578125,9.80192756652832,-0.14434899389743805,-0.2600950002670288
1779997178531702300,13.458702392578125,9.801987648010254,-0.14454799890518188,-0.2582780122756958
1779997178548979000,13.47597900390625,9.801931381225586,-0.14464899897575378,-0.259880006313324
1779997178566255000,13.493255126953125,9.801810264587402,-0.14468100666999817,-0.2638770043849945
1779997178583531800,13.51053173828125,9.801715850830078,-0.14470599591732025,-0.267890989780426
1779997178600808400,13.527808349609375,9.801685333251953,-0.14473900198936462,-0.26951101422309875
1779997178618085000,13.545085205078125,9.801714897155762,-0.14482299983501434,-0.2677850127220154
1779997178635361500,13.562361572265624,9.801813125610352,-0.1449349969625473,-0.26365000009536743
1779997178652638000,13.579637939453125,9.801939010620117,-0.14504699409008026,-0.25944799184799194
1779997178669914600,13.59691455078125,9.802001953125,-0.14513100683689117,-0.2576090097427368
1779997178687191300,13.61419140625,9.801950454711914,-0.1451600044965744,-0.2591390013694763
1779997178704467500,13.631467529296875,9.801833152770996,-0.14511699974536896,-0.26304200291633606
1779997178721744100,13.648744140625,9.801742553710938,-0.14509199559688568,-0.26694801449775696
1779997178739020800,13.666020751953125,9.801712036132812,-0.14508900046348572,-0.2684690058231354
1779997178756297200,13.683297119140626,9.801745414733887,-0.14512999355793,-0.26671600341796875
1779997178773573600,13.70057373046875,9.801843643188477,-0.14520999789237976,-0.2626599967479706
1779997178790850300,13.717850341796876,9.801965713500977,-0.14530999958515167,-0.25856998562812805
1779997178808126700,13.735126708984374,9.802022933959961,-0.14535099267959595,-0.25687000155448914
1779997178825403100,13.752403076171875,9.80196762084961,-0.14530999958515167,-0.2585029900074005
1779997178842679800,13.7696796875,9.80185317993164,-0.1452219933271408,-0.2624270021915436
1779997178859956500,13.78695654296875,9.801763534545898,-0.14518499374389648,-0.26629599928855896
1779997178877232600,13.804232666015626,9.801735877990723,-0.1452140063047409,-0.2677919864654541
1779997178894509300,13.82150927734375,9.801769256591797,-0.1453160047531128,-0.26604101061820984
1779997178911786000,13.838785888671875,9.801863670349121,-0.14541499316692352,-0.2620469927787781
1779997178929062100,13.856062255859374,9.801980972290039,-0.1455170065164566,-0.2581369876861572
1779997178946338800,13.8733388671875,9.802032470703125,-0.14558899402618408,-0.25658801198005676
1779997178963615500,13.890615478515626,9.801973342895508,-0.14556600153446198,-0.25831499695777893
1779997178980892000,13.907891845703125,9.801860809326172,-0.1454949975013733,-0.2622469961643219
1779997178998168300,13.925168212890625,9.801773071289062,-0.14542600512504578,-0.26607298851013184
1779997179015445000,13.942445068359374,9.80174732208252,-0.14540599286556244,-0.2674350142478943
1779997179032721700,13.9597216796875,9.801783561706543,-0.14544999599456787,-0.2655709981918335
1779997179049998000,13.976998046875,9.801878929138184,-0.14551499485969543,-0.26151400804519653
1779997179067274500,13.9942744140625,9.801998138427734,-0.14554999768733978,-0.25760599970817566
1779997179084551200,14.01155126953125,9.802050590515137,-0.1455560028553009,-0.2561030089855194
1779997179101827300,14.028827392578124,9.801992416381836,-0.14548300206661224,-0.2578200101852417
1779997179119104000,14.04610400390625,9.80188274383545,-0.1453769952058792,-0.26166099309921265
1779997179136380700,14.063380615234376,9.801799774169922,-0.14531700313091278,-0.2653470039367676
1779997179153657300,14.0806572265625,9.801774978637695,-0.14532800018787384,-0.2666440010070801
1779997179170933800,14.097933837890626,9.801810264587402,-0.14539000391960144,-0.2648159861564636
1779997179188210200,14.115210205078125,9.801905632019043,-0.14553199708461761,-0.2608189880847931
1779997179205486800,14.13248681640625,9.802018165588379,-0.14567899703979492,-0.25698599219322205
1779997179222763500,14.149763427734374,9.802066802978516,-0.14575700461864471,-0.2555690109729767
1779997179240039700,14.167039794921875,9.802008628845215,-0.14577099680900574,-0.2573089897632599
1779997179257316400,14.18431640625,9.801898956298828,-0.14571799337863922,-0.26110199093818665
1779997179274593000,14.201593017578125,9.80181884765625,-0.14564600586891174,-0.2646690011024475
1779997179291869700,14.21886962890625,9.801797866821289,-0.14558200538158417,-0.2658100128173828
1779997179309145900,14.236145751953124,9.801837921142578,-0.14557799696922302,-0.26386499404907227
1779997179326422500,14.253422607421875,9.801932334899902,-0.14561299979686737,-0.2599110007286072
1779997179343699200,14.27069921875,9.802045822143555,-0.14571399986743927,-0.25619199872016907
1779997179360975400,14.287975341796875,9.80208683013916,-0.14580999314785004,-0.2549070119857788
1779997179378252000,14.305251953125,9.802023887634277,-0.1458120048046112,-0.25674501061439514
1779997179395528700,14.32252880859375,9.801916122436523,-0.14581100642681122,-0.2605530023574829
1779997179412805400,14.339805419921875,9.801836967468262,-0.14583900570869446,-0.2640779912471771
1779997179430081800,14.357081787109376,9.801815032958984,-0.14590300619602203,-0.2651210129261017
1779997179447358200,14.374358154296875,9.801855087280273,-0.14598999917507172,-0.2630940079689026
1779997179464635000,14.391634765625,9.80195140838623,-0.14604799449443817,-0.25909900665283203
1779997179481911300,14.408911376953125,9.80206298828125,-0.14607200026512146,-0.25541600584983826
1779997179499188000,14.42618798828125,9.802106857299805,-0.14607000350952148,-0.25415098667144775
1779997179516464400,14.44346435546875,9.802047729492188,-0.14597100019454956,-0.2559700012207031
1779997179533741000,14.460740966796875,9.8019437789917,-0.14587000012397766,-0.2597010135650635
1779997179551017500,14.478017578125,9.801868438720703,-0.1458210051059723,-0.263141006231308
1779997179568294000,14.4952939453125,9.801848411560059,-0.14583200216293335,-0.2641569972038269
1779997179585570600,14.512570556640625,9.801885604858398,-0.14590799808502197,-0.2621749937534332
1779997179602847000,14.529846923828124,9.801980972290039,-0.14601600170135498,-0.2582469880580902
1779997179620123400,14.547123291015625,9.80208969116211,-0.1460929960012436,-0.2546379864215851
1779997179637400000,14.564400146484376,9.802128791809082,-0.14612700045108795,-0.2534309923648834
1779997179654676500,14.581676513671875,9.802072525024414,-0.1460770070552826,-0.25522199273109436
1779997179671953000,14.598952880859375,9.801972389221191,-0.14597900211811066,-0.25883498787879944
1779997179689229600,14.6162294921875,9.801900863647461,-0.1459130048751831,-0.2620660066604614
1779997179706506200,14.63350634765625,9.801884651184082,-0.1459449976682663,-0.2628749907016754
1779997179723782700,14.65078271484375,9.801925659179688,-0.14603300392627716,-0.2607640027999878
1779997179741059000,14.66805908203125,9.802020072937012,-0.1461540013551712,-0.256848007440567
1779997179758335700,14.685335693359375,9.802124977111816,-0.1462790071964264,-0.25334998965263367
1779997179775612400,14.7026123046875,9.802160263061523,-0.1464020013809204,-0.25226500630378723
1779997179792888800,14.719888916015625,9.802098274230957,-0.14644700288772583,-0.25415000319480896
1779997179810165200,14.737165283203124,9.801997184753418,-0.14644800126552582,-0.25778600573539734
1779997179827442000,14.75444189453125,9.801926612854004,-0.1464180052280426,-0.2610020041465759
1779997179844718600,14.771718505859376,9.801910400390625,-0.14642199873924255,-0.2617810070514679
1779997179861995000,14.7889951171875,9.801953315734863,-0.14646999537944794,-0.2596670091152191
1779997179879271400,14.806271484375,9.802047729492188,-0.1465590000152588,-0.25578901171684265
1779997179896547800,14.8235478515625,9.802149772644043,-0.1466429978609085,-0.25240200757980347
1779997179913824500,14.840824462890625,9.802180290222168,-0.14666199684143066,-0.251473993062973
1779997179931101200,14.85810107421875,9.802115440368652,-0.14661699533462524,-0.2534869909286499
1779997179948377600,14.875377685546875,9.802014350891113,-0.14657500386238098,-0.2571899890899658
1779997179965654000,14.892654052734375,9.801941871643066,-0.14659899473190308,-0.2604059875011444
1779997179982930700,14.9099306640625,9.801926612854004,-0.14667099714279175,-0.2612040042877197
1779997180008845300,14.93584521484375,9.802005767822266,-0.14687299728393555,-0.2573600113391876
1779997180026122000,14.9531220703125,9.802109718322754,-0.14703400433063507,-0.2535499930381775
1779997180043398700,14.970398681640624,9.802180290222168,-0.1472020000219345,-0.2513110041618347
1779997180060674800,14.9876748046875,9.802156448364258,-0.14729900658130646,-0.25194498896598816
1779997180077951500,15.004951416015626,9.802064895629883,-0.14733199775218964,-0.25501498579978943
1779997180095228200,15.022228271484375,9.80197525024414,-0.14734700322151184,-0.2586379945278168
1779997180112504600,15.039504638671875,9.801935195922852,-0.1473959982395172,-0.2606090009212494
1779997180129781000,15.056781005859374,9.80195140838623,-0.147489994764328,-0.25973498821258545
1779997180147057700,15.0740576171875,9.802021026611328,-0.14759700000286102,-0.25648701190948486
1779997180164334300,15.091334228515626,9.802125930786133,-0.14770099520683289,-0.25267499685287476
1779997180181610500,15.108610595703125,9.802194595336914,-0.14778000116348267,-0.2504909932613373
1779997180198887200,15.12588720703125,9.802172660827637,-0.14780500531196594,-0.25115901231765747
1779997180216163800,15.143163818359374,9.802081108093262,-0.14777299761772156,-0.25421398878097534
1779997180233440300,15.160440185546875,9.801993370056152,-0.14774100482463837,-0.2578200101852417
1779997180250716700,15.177716552734376,9.801955223083496,-0.14773200452327728,-0.2598240077495575
1779997180267993300,15.194993408203125,9.801969528198242,-0.1477389931678772,-0.25901100039482117
1779997180285270000,15.21227001953125,9.802038192749023,-0.1477780044078827,-0.25589799880981445
1779997180302546700,15.229546630859375,9.802140235900879,-0.14785200357437134,-0.25221601128578186
1779997180319822800,15.24682275390625,9.802205085754395,-0.1479180008172989,-0.2501460015773773
1779997180337099500,15.264099609375,9.8021821975708,-0.14791099727153778,-0.25088199973106384
1779997180354376200,15.281376220703125,9.802094459533691,-0.14785300195217133,-0.25390899181365967
1779997180371652400,15.29865234375,9.802010536193848,-0.1478559970855713,-0.25739800930023193
1779997180388929000,15.315928955078125,9.801972389221191,-0.14793699979782104,-0.2592340111732483
1779997180406205700,15.333205810546875,9.80198860168457,-0.14807699620723724,-0.25828200578689575
1779997180423482400,15.350482421875,9.802058219909668,-0.1482360064983368,-0.255064994096756
1779997180440758500,15.367758544921875,9.80215835571289,-0.1483830064535141,-0.25137001276016235
1779997180458035200,15.38503515625,9.802221298217773,-0.148498997092247,-0.24933500587940216
1779997180475311600,15.4023115234375,9.802197456359863,-0.1485539972782135,-0.25008198618888855
1779997180492588300,15.41958837890625,9.80211067199707,-0.1485220044851303,-0.2530609965324402
1779997180509864700,15.43686474609375,9.802030563354492,-0.14844700694084167,-0.25644099712371826
1779997180527141400,15.454141357421875,9.801997184753418,-0.14841699600219727,-0.2581450045108795
1779997180544417800,15.471417724609376,9.802017211914062,-0.14842599630355835,-0.25707700848579407
1779997180561694200,15.488694091796875,9.80208969116211,-0.1484600007534027,-0.25382000207901
1779997180578971000,15.505970947265626,9.802189826965332,-0.14851100742816925,-0.25019198656082153
1779997180596247300,15.523247314453124,9.802251815795898,-0.14853300154209137,-0.24826699495315552
1779997180613524000,15.54052392578125,9.802224159240723,-0.14850300550460815,-0.2491070032119751
1779997180630800400,15.55780029296875,9.80213737487793,-0.14845900237560272,-0.25212299823760986
1779997180648077000,15.5750771484375,9.802057266235352,-0.14847299456596375,-0.25550898909568787
1779997180665353700,15.592353759765626,9.802022933959961,-0.14852799475193024,-0.25724199414253235
1779997180682630100,15.609630126953125,9.80203914642334,-0.14863599836826324,-0.2562769949436188
1779997180699906600,15.626906494140625,9.802108764648438,-0.14877599477767944,-0.25315600633621216
1779997180717183200,15.644183349609374,9.802202224731445,-0.1489029973745346,-0.24968600273132324
1779997180734460000,15.6614599609375,9.802257537841797,-0.14900900423526764,-0.24790699779987335
1779997180751736300,15.678736328125,9.802227020263672,-0.14903999865055084,-0.24884000420570374
1779997180769012700,15.6960126953125,9.802141189575195,-0.1489730030298233,-0.2518700063228607
1779997180786289400,15.713289306640625,9.802063941955566,-0.14892500638961792,-0.255154013633728
1779997180803566000,15.730566162109374,9.802033424377441,-0.14891000092029572,-0.256725013256073
1779997180820842500,15.747842529296875,9.802053451538086,-0.14894899725914001,-0.25561898946762085
1779997180838119000,15.765118896484376,9.802124977111816,-0.14903099834918976,-0.2524360120296478
1779997180855395600,15.7823955078125,9.802220344543457,-0.14912499487400055,-0.24899500608444214
1779997180872672000,15.799672119140626,9.802273750305176,-0.14917799830436707,-0.24730299413204193
1779997180889948400,15.816948486328124,9.802242279052734,-0.1491820067167282,-0.24827300012111664
1779997180907225000,15.83422509765625,9.802156448364258,-0.14912700653076172,-0.25127100944519043
1779997180924501500,15.85150146484375,9.802081108093262,-0.14906899631023407,-0.25450098514556885
1779997180941778200,15.868778076171875,9.802051544189453,-0.1490750014781952,-0.25601300597190857
1779997180959054600,15.8860546875,9.802074432373047,-0.14910399913787842,-0.2548789978027344
1779997180976331300,15.903331298828125,9.802145004272461,-0.14917999505996704,-0.25169500708580017
1779997180993607700,15.920607666015625,9.802240371704102,-0.14925800263881683,-0.2482910007238388
1779997181010884000,15.937884033203124,9.802290916442871,-0.14934399724006653,-0.2466460019350052
1779997181028160800,15.955160888671875,9.802257537841797,-0.14938299357891083,-0.24767999351024628
1779997181045437400,15.9724375,9.80217170715332,-0.14940300583839417,-0.2506920099258423
1779997181062713900,15.9897138671875,9.802096366882324,-0.14944399893283844,-0.2538599967956543
1779997181079990300,16.006990234375,9.802066802978516,-0.14952300488948822,-0.25529900193214417
1779997181097267000,16.024266845703124,9.802088737487793,-0.14966699481010437,-0.2541309893131256
1779997181114543400,16.04154345703125,9.802156448364258,-0.14979900419712067,-0.25099998712539673
1779997181131820000,16.058820068359374,9.802248001098633,-0.14991599321365356,-0.24768799543380737
1779997181149096700,16.0760966796875,9.802295684814453,-0.15000799298286438,-0.2461249977350235
1779997181166373000,16.093373046875,9.802263259887695,-0.15002299845218658,-0.24718299508094788
1779997181183649500,16.1106494140625,9.802179336547852,-0.1499830037355423,-0.25018298625946045
1779997181200926000,16.127926025390625,9.802107810974121,-0.14992499351501465,-0.25329598784446716
1779997181218202600,16.14520263671875,9.802083015441895,-0.14990699291229248,-0.25464698672294617
1779997181235479300,16.162479248046875,9.802105903625488,-0.14991599321365356,-0.2534010112285614
1779997181252755700,16.179755615234374,9.802178382873535,-0.14998899400234222,-0.2502390146255493
1779997181270032100,16.1970322265625,9.802267074584961,-0.15004299581050873,-0.24699200689792633
1779997181287308800,16.214308837890623,9.802313804626465,-0.1500910073518753,-0.2455260008573532
1779997181304585500,16.23158544921875,9.802279472351074,-0.15007999539375305,-0.24664099514484406
1779997181321862000,16.24886181640625,9.802197456359863,-0.15002700686454773,-0.24960899353027344
1779997181339138600,16.266138671875,9.802127838134766,-0.14997899532318115,-0.25264498591423035
1779997181356415000,16.2834150390625,9.802103042602539,-0.14998100697994232,-0.253915011882782
1779997181373691400,16.30069140625,9.802125930786133,-0.15002599358558655,-0.25264599919319153
1779997181390968000,16.317968017578124,9.802199363708496,-0.15007199347019196,-0.24951300024986267
1779997181408244500,16.335244384765623,9.802288055419922,-0.15008899569511414,-0.2463340014219284
1779997181425521200,16.352521240234374,9.802331924438477,-0.150068998336792,-0.2449599951505661
1779997181442797600,16.369797607421877,9.802294731140137,-0.14999300241470337,-0.2461400032043457
1779997181460074000,16.387073974609375,9.802214622497559,-0.14987799525260925,-0.24912799894809723
1779997181477350400,16.404350341796874,9.80214786529541,-0.14977699518203735,-0.2521199882030487
1779997181494627000,16.421626953125,9.8021240234375,-0.14969700574874878,-0.2533330023288727
1779997181511903700,16.43890380859375,9.802151679992676,-0.14969000220298767,-0.25201600790023804
1779997181529180400,16.456180419921875,9.80222225189209,-0.14972099661827087,-0.2489050030708313
1779997181546456600,16.47345654296875,9.802309036254883,-0.14977799355983734,-0.24582399427890778
1779997181563733200,16.490733154296876,9.802348136901855,-0.14979000389575958,-0.2445880025625229
1779997181581010000,16.508010009765623,9.802309036254883,-0.14975400269031525,-0.24585899710655212
1779997181598286300,16.525286376953126,9.802227020263672,-0.14972800016403198,-0.24883800745010376
1779997181615562800,16.542562744140625,9.802159309387207,-0.14974099397659302,-0.2517929971218109
1779997181632839400,16.55983935546875,9.802136421203613,-0.14977900683879852,-0.25295698642730713
1779997181658754300,16.58575439453125,9.802191734313965,-0.1498579978942871,-0.25020501017570496
1779997181676030700,16.60303076171875,9.802276611328125,-0.14996300637722015,-0.24688200652599335
1779997181693307100,16.62030712890625,9.80234432220459,-0.1500599980354309,-0.24456100165843964
1779997181710583800,16.637583740234376,9.802342414855957,-0.15011900663375854,-0.24458399415016174
1779997181727860500,16.654860595703123,9.802275657653809,-0.1500750035047531,-0.24687199294567108
1779997181745137000,16.672136962890626,9.802199363708496,-0.1499910056591034,-0.2500320076942444
1779997181762413300,16.689413330078125,9.802156448364258,-0.14996899664402008,-0.25214898586273193
1779997181779690000,16.70668994140625,9.802159309387207,-0.15003399550914764,-0.2519280016422272
1779997181796966700,16.723966552734375,9.802210807800293,-0.15012000501155853,-0.24947400391101837
1779997181814243000,16.7412431640625,9.802295684814453,-0.15015900135040283,-0.24615700542926788
1779997181831519500,16.75851953125,9.802360534667969,-0.15022100508213043,-0.24390999972820282
1779997181848796200,16.775796142578123,9.80235767364502,-0.15024599432945251,-0.2440129965543747
1779997181866072800,16.79307275390625,9.802289962768555,-0.15024299919605255,-0.24632300436496735
1779997181883349000,16.810348876953125,9.80221176147461,-0.15024200081825256,-0.24946700036525726
1779997181900625700,16.827625732421875,9.802167892456055,-0.15024100244045258,-0.2516059875488281
1779997181917902300,16.84490234375,9.80217170715332,-0.1502770036458969,-0.2514039874076843
1779997181935178500,16.862178466796873,9.80222225189209,-0.15036599338054657,-0.24895499646663666
1779997181952455200,16.879455078125,9.802306175231934,-0.15045399963855743,-0.24567100405693054
1779997181969731800,16.89673193359375,9.80237102508545,-0.15047100186347961,-0.24347400665283203
1779997181987008500,16.914008544921874,9.8023681640625,-0.1504170000553131,-0.243586003780365
1779997182004285000,16.931284912109376,9.802305221557617,-0.15029600262641907,-0.24583399295806885
1779997182021561300,16.948561279296875,9.802234649658203,-0.15015099942684174,-0.24879199266433716
1779997182038838000,16.965838134765626,9.802199363708496,-0.1500449925661087,-0.2506990134716034
1779997182056114400,16.983114501953125,9.802205085754395,-0.1499519944190979,-0.25036901235580444
1779997182073391000,17.00039111328125,9.802257537841797,-0.14989599585533142,-0.24792400002479553
1779997182090667500,17.01766748046875,9.80234146118164,-0.14988499879837036,-0.24470800161361694
1779997182107944200,17.034944091796874,9.80240535736084,-0.14989200234413147,-0.24258600175380707
1779997182125220400,17.052220458984376,9.802399635314941,-0.14987300336360931,-0.2427700012922287
1779997182142497000,17.0694970703125,9.802334785461426,-0.14983099699020386,-0.24504700303077698
1779997182159773700,17.086773681640626,9.802263259887695,-0.14978499710559845,-0.24801699817180634
1779997182177050400,17.10405029296875,9.802224159240723,-0.1497970074415207,-0.249890998005867
1779997182194326800,17.121326904296875,9.802231788635254,-0.14984899759292603,-0.2494959980249405
1779997182211603200,17.138603271484374,9.80228328704834,-0.1499139964580536,-0.24701200425624847
1779997182228880000,17.1558798828125,9.802364349365234,-0.14996099472045898,-0.24385200440883636
1779997182246156300,17.17315625,9.802425384521484,-0.1499669998884201,-0.2418230026960373
1779997182263432700,17.1904326171875,9.802416801452637,-0.1499280035495758,-0.24207299947738647
1779997182280709400,17.20770947265625,9.802353858947754,-0.14985999464988708,-0.24435900151729584
1779997182297986000,17.224986083984376,9.802285194396973,-0.14981000125408173,-0.24728399515151978
1779997182315262500,17.242262451171875,9.802247047424316,-0.14979200065135956,-0.24910099804401398
1779997182332539000,17.259538818359374,9.802255630493164,-0.14981700479984283,-0.24870799481868744
1779997182349815600,17.276815673828125,9.80230712890625,-0.1498750001192093,-0.24625399708747864
1779997182367092000,17.294092041015624,9.802384376525879,-0.14998699724674225,-0.24314799904823303
1779997182384368600,17.31136865234375,9.802441596984863,-0.1500910073518753,-0.24120000004768372
1779997182401645000,17.32864501953125,9.802431106567383,-0.15014199912548065,-0.2415049970149994
1779997182418921700,17.345921630859376,9.802366256713867,-0.15012599527835846,-0.24382999539375305
1779997182436198100,17.3631982421875,9.802295684814453,-0.15011000633239746,-0.24675199389457703
1779997182453474800,17.380474853515626,9.802257537841797,-0.15016800165176392,-0.2485329955816269
1779997182470751200,17.397751220703125,9.802265167236328,-0.15027299523353577,-0.248089000582695
1779997182488027600,17.415027587890624,9.802315711975098,-0.15037499368190765,-0.2456810027360916
1779997182505304300,17.43230419921875,9.802392959594727,-0.15043500065803528,-0.24271799623966217
1779997182522580700,17.449580810546873,9.802444458007812,-0.15049199759960175,-0.24095000326633453
1779997182539857400,17.466857421875,9.802431106567383,-0.15050700306892395,-0.24139900505542755
1779997182557133800,17.4841337890625,9.802364349365234,-0.15046000480651855,-0.2437639981508255
1779997182583048700,17.510048583984375,9.802275657653809,-0.15032699704170227,-0.24772900342941284
1779997182600325400,17.527325439453126,9.802263259887695,-0.15027199685573578,-0.24840900301933289
1779997182617601500,17.5446015625,9.80229377746582,-0.15028299391269684,-0.2468159943819046
1779997182634878200,17.561878173828124,9.802364349365234,-0.15036700665950775,-0.24384599924087524
1779997182652155000,17.57915478515625,9.802435874938965,-0.1504250019788742,-0.24123799800872803
1779997182669431300,17.596431396484373,9.802459716796875,-0.15041600167751312,-0.24052700400352478
1779997182686707700,17.613707763671876,9.802413940429688,-0.15036800503730774,-0.24205000698566437
1779997182703984400,17.630984375,9.802342414855957,-0.15032899379730225,-0.24484799802303314
1779997182721261000,17.648260986328125,9.802290916442871,-0.15031300485134125,-0.24725300073623657
1779997182738537500,17.665537353515624,9.802279472351074,-0.15032799541950226,-0.247857004404068
1779997182755814000,17.68281396484375,9.8023099899292,-0.1503629982471466,-0.24627800285816193
1779997182773090600,17.700090576171874,9.802376747131348,-0.15040700137615204,-0.2434370070695877
1779997182790367200,17.7173671875,9.802444458007812,-0.15047000348567963,-0.24099299311637878
1779997182807643400,17.734643310546875,9.802462577819824,-0.1505099982023239,-0.24039900302886963
1779997182824920000,17.751920166015626,9.802414894104004,-0.150518998503685,-0.2420019954442978
1779997182842196700,17.76919677734375,9.80234146118164,-0.1505109965801239,-0.24483999609947205
1779997182859473400,17.786473388671876,9.802289962768555,-0.1505350023508072,-0.24722300469875336
1779997182876749600,17.80374951171875,9.802279472351074,-0.15060900151729584,-0.24777300655841827
1779997182894026200,17.821026123046874,9.802309036254883,-0.15071499347686768,-0.24617299437522888
1779997182911303000,17.838302978515625,9.802376747131348,-0.15082800388336182,-0.24334800243377686
1779997182928579300,17.855579345703124,9.802440643310547,-0.15092000365257263,-0.2409919947385788
1779997182945856000,17.87285595703125,9.802454948425293,-0.15097400546073914,-0.24051299691200256
1779997182963132400,17.89013232421875,9.80240535736084,-0.15096700191497803,-0.24218200147151947
1779997182980409000,17.9074091796875,9.80233383178711,-0.15094499289989471,-0.24500399827957153
1779997182997685500,17.924685546875,9.80228328704834,-0.1509300023317337,-0.24731500446796417
1779997183014962000,17.9419619140625,9.802274703979492,-0.15094800293445587,-0.24776700139045715
1779997183032238600,17.959238525390624,9.802309036254883,-0.15098999440670013,-0.24607700109481812
1779997183049515000,17.976514892578123,9.80237865447998,-0.15103299915790558,-0.2432209998369217
1779997183066791700,17.993791748046874,9.802444458007812,-0.15108899772167206,-0.24086299538612366
1779997183084068000,18.011068115234377,9.802458763122559,-0.15109699964523315,-0.24036699533462524
1779997183101344800,18.0283447265625,9.802412033081055,-0.15107600390911102,-0.24196800589561462
1779997183118621400,18.045621337890626,9.802342414855957,-0.1510709971189499,-0.24468399584293365
1779997183135897600,18.062897705078125,9.802294731140137,-0.15108700096607208,-0.24693000316619873
1779997183153174300,18.08017431640625,9.80228328704834,-0.15113599598407745,-0.24740099906921387
1779997183170451000,18.097450927734375,9.802315711975098,-0.15120799839496613,-0.24579599499702454
1779997183187727000,18.11472705078125,9.802380561828613,-0.15131300687789917,-0.2430569976568222
1779997183205003800,18.132003662109376,9.802444458007812,-0.15137100219726562,-0.2408369928598404
1779997183222280200,18.1492802734375,9.802454948425293,-0.15138700604438782,-0.24043700098991394
1779997183239556600,18.166556640625,9.802407264709473,-0.15129999816417694,-0.24212799966335297
1779997183256833300,18.183833251953125,9.802338600158691,-0.15118099749088287,-0.24488499760627747
1779997183274110000,18.20110986328125,9.802292823791504,-0.15108999609947205,-0.2470639944076538
1779997183291386400,18.218386474609375,9.802288055419922,-0.15105299651622772,-0.24740000069141388
1779997183308662800,18.235662841796874,9.802323341369629,-0.15104399621486664,-0.2456810027360916
1779997183325939500,18.252939453125,9.802390098571777,-0.15105900168418884,-0.24289299547672272
1779997183343216000,18.270216064453123,9.802453994750977,-0.15107999742031097,-0.24067500233650208
1779997183360492800,18.287492919921874,9.80246353149414,-0.1510539948940277,-0.24031700193881989
1779997183377769200,18.304769287109377,9.802417755126953,-0.15098799765110016,-0.24198299646377563
1779997183395045600,18.322045654296875,9.802351951599121,-0.1509139984846115,-0.24463699758052826
1779997183412322300,18.339322265625,9.802309036254883,-0.15087799727916718,-0.24669800698757172
1779997183429598700,18.3565986328125,9.802303314208984,-0.15092499554157257,-0.24691900610923767
1779997183446875100,18.373875244140624,9.802338600158691,-0.15097999572753906,-0.24514499306678772
1779997183464151800,18.39115185546875,9.802404403686523,-0.15104299783706665,-0.24240300059318542
1779997183481428500,18.408428466796874,9.80246353149414,-0.15111200511455536,-0.2403070032596588
1779997183498705000,18.425704833984376,9.802470207214355,-0.15112900733947754,-0.24007299542427063
1779997183515981300,18.442981201171875,9.80241870880127,-0.15113599598407745,-0.2418150007724762
1779997183533258000,18.460258056640626,9.802352905273438,-0.15113699436187744,-0.24449500441551208
1779997183550534400,18.477534423828125,9.802309036254883,-0.15112200379371643,-0.24655599892139435
1779997183567810800,18.494810791015624,9.802305221557617,-0.15113599598407745,-0.24681499600410461
1779997183585087500,18.51208740234375,9.802339553833008,-0.15117000043392181,-0.24512100219726562
1779997183602364000,18.529364013671874,9.802401542663574,-0.15120400488376617,-0.24251499772071838
1779997183619640600,18.546640625,9.802458763122559,-0.15120799839496613,-0.2405409961938858
1779997183636917000,18.5639169921875,9.802462577819824,-0.15121500194072723,-0.24037399888038635
1779997183654193700,18.581193603515626,9.802413940429688,-0.1511400043964386,-0.24216100573539734
1779997183671470000,18.598469970703125,9.802347183227539,-0.15106600522994995,-0.24483999609947205
1779997183688746500,18.61574658203125,9.802305221557617,-0.15101100504398346,-0.24685700237751007
1779997183706023200,18.633023193359374,9.802303314208984,-0.15097500383853912,-0.24705299735069275
1779997183723299800,18.6502998046875,9.80234146118164,-0.1509619951248169,-0.2452860027551651
1779997183740576300,18.667576171875,9.80240535736084,-0.1510159969329834,-0.2425840049982071
1779997183757852700,18.684852783203127,9.802462577819824,-0.15102200210094452,-0.24058599770069122
1779997183775129300,18.70212939453125,9.802469253540039,-0.1509760022163391,-0.24042299389839172
1779997183792405800,18.71940576171875,9.802419662475586,-0.1508830040693283,-0.24216899275779724
1779997183809682400,18.736682373046875,9.802355766296387,-0.15079399943351746,-0.24477699398994446
1779997183826958800,18.753958740234374,9.802315711975098,-0.15077799558639526,-0.24671399593353271
1779997183844235500,18.771235595703125,9.802312850952148,-0.15082000195980072,-0.24682000279426575
1779997183861512200,18.78851220703125,9.802350044250488,-0.1509000062942505,-0.245046004652977
1779997183878788400,18.805788330078126,9.802412986755371,-0.15097400546073914,-0.24243000149726868
1779997183896065000,18.82306494140625,9.802468299865723,-0.15101100504398346,-0.24053899943828583
1779997183913341700,18.840341796875,9.802469253540039,-0.1509920060634613,-0.24048000574111938
1779997183930618000,18.8576181640625,9.80241870880127,-0.15094000101089478,-0.242248997092247
1779997183947894500,18.87489453125,9.80235767364502,-0.15084299445152283,-0.2447820007801056
1779997183965171200,18.892171142578125,9.802319526672363,-0.15074700117111206,-0.2465990036725998
1779997183982447900,18.90944775390625,9.802322387695312,-0.15065200626850128,-0.24664199352264404
1779997183999724000,18.92672412109375,9.802362442016602,-0.15058700740337372,-0.24482999742031097
1779997184017000700,18.944000732421873,9.8024263381958,-0.1505880057811737,-0.24224300682544708
1779997184034277400,18.96127734375,9.802477836608887,-0.15060199797153473,-0.24038800597190857
1779997184051553800,18.9785537109375,9.80247974395752,-0.1505959928035736,-0.24037900567054749
1779997184068830200,18.995830322265626,9.802430152893066,-0.15056000649929047,-0.24217499792575836
1779997184086107000,19.01310693359375,9.802367210388184,-0.15053999423980713,-0.24470999836921692
1779997184103383300,19.03038330078125,9.80233097076416,-0.15056400001049042,-0.24648000299930573
1779997184120659700,19.04765966796875,9.802329063415527,-0.15062199532985687,-0.24646300077438354
1779997184137936400,19.064936279296877,9.802367210388184,-0.15067900717258453,-0.2446410059928894
1779997184155213000,19.082213134765624,9.802430152893066,-0.15074600279331207,-0.24210500717163086
1779997184172489500,19.099489501953126,9.80247974395752,-0.15079599618911743,-0.24033799767494202
1779997184189766100,19.11676611328125,9.80247688293457,-0.15079399943351746,-0.24039199948310852
1779997184207042600,19.13404248046875,9.802427291870117,-0.1507910043001175,-0.24219800531864166
1779997184224319200,19.1513193359375,9.802366256713867,-0.15075799822807312,-0.24468399584293365
1779997184241595600,19.168595703125,9.80233097076416,-0.15074199438095093,-0.2464050054550171
1779997184258872000,19.1858720703125,9.80233097076416,-0.15078100562095642,-0.24635100364685059
1779997184276148700,19.203148681640624,9.8023681640625,-0.150860995054245,-0.24452799558639526
1779997184293425400,19.22042529296875,9.802430152893066,-0.150969997048378,-0.24203599989414215
1779997184310701800,19.237701904296873,9.802475929260254,-0.1510539948940277,-0.24037399888038635
1779997184327978200,19.254978271484376,9.802470207214355,-0.1511249989271164,-0.24053800106048584
1779997184345255000,19.2722548828125,9.80241584777832,-0.15115700662136078,-0.24247300624847412
1779997184362531300,19.28953125,9.802352905273438,-0.15115299820899963,-0.24502700567245483
1779997184379807700,19.306807861328124,9.80231761932373,-0.15116199851036072,-0.24671000242233276
1779997184397084400,19.32408447265625,9.802319526672363,-0.15118299424648285,-0.24657300114631653
1779997184414360800,19.34136083984375,9.802360534667969,-0.15119999647140503,-0.2446639984846115
1779997184431637200,19.35863720703125,9.80242919921875,-0.15115800499916077,-0.24201400578022003
1779997184448914000,19.375913818359376,9.802481651306152,-0.15104499459266663,-0.24018199741840363
1779997184466190000,19.393190185546874,9.802485466003418,-0.1508830040693283,-0.2401770055294037
1779997184483466800,19.410466796875,9.802438735961914,-0.15078000724315643,-0.2418850064277649
1779997184500743400,19.427743408203124,9.802380561828613,-0.15081200003623962,-0.2442449927330017
1779997184518020000,19.44502001953125,9.802347183227539,-0.1509229987859726,-0.24582600593566895
1779997184535296500,19.462296630859374,9.802346229553223,-0.15110599994659424,-0.2456440031528473
1779997184552573000,19.479572998046876,9.802383422851562,-0.15130700170993805,-0.2438499927520752
1779997184569849600,19.496849609375,9.802440643310547,-0.15152400732040405,-0.24146099388599396
1779997184587126000,19.5141259765625,9.802483558654785,-0.1516219973564148,-0.23988699913024902
1779997184604402400,19.53140234375,9.802477836608887,-0.15159299969673157,-0.24005800485610962
1779997184621679000,19.54867919921875,9.802433013916016,-0.1514350026845932,-0.24178999662399292
1779997184638955800,19.565955810546875,9.802384376525879,-0.15111899375915527,-0.2440429925918579
1779997184656232200,19.583232177734374,9.802358627319336,-0.15079200267791748,-0.24547100067138672
1779997184673508600,19.600508544921876,9.802369117736816,-0.15053899586200714,-0.24514099955558777
1779997184690785300,19.617785400390623,9.802413940429688,-0.1504420042037964,-0.2432129979133606
1779997184708062000,19.63506201171875,9.802473068237305,-0.15047800540924072,-0.24086099863052368
1779997184725338400,19.65233837890625,9.802509307861328,-0.15057000517845154,-0.23945200443267822
1779997184742614800,19.66961474609375,9.802495956420898,-0.15068799257278442,-0.23988300561904907
1779997184759891500,19.686891357421874,9.802435874938965,-0.15083500742912292,-0.24194200336933136
1779997184777168000,19.70416796875,9.802373886108398,-0.1510459929704666,-0.2444700002670288
1779997184794444500,19.721444580078124,9.802336692810059,-0.15125200152397156,-0.24606899917125702
1779997184811721000,19.738720947265627,9.802337646484375,-0.1513260006904602,-0.24593399465084076
1779997184828997400,19.755997314453126,9.802376747131348,-0.15132999420166016,-0.24416199326515198
1779997184846274000,19.773274169921876,9.802437782287598,-0.15130099654197693,-0.2418220043182373
1779997184863550500,19.790550537109375,9.80247974395752,-0.15122799575328827,-0.24033699929714203
1779997184880827000,19.807826904296874,9.802474975585938,-0.15108899772167206,-0.24057599902153015
1779997184898103600,19.825103515625,9.802428245544434,-0.15092900395393372,-0.2423820048570633
1779997184915380000,19.8423798828125,9.802376747131348,-0.15075500309467316,-0.24467599391937256
1779997184932656600,19.85965673828125,9.802347183227539,-0.15066899359226227,-0.2461089938879013
1779997184949933300,19.876933349609374,9.802351951599121,-0.15069599449634552,-0.24584800004959106
1779997184967209700,19.894209716796876,9.802390098571777,-0.150845006108284,-0.24404799938201904
1779997184984486100,19.911486083984375,9.802445411682129,-0.15101300179958344,-0.24181100726127625
1779997185001762600,19.928762451171874,9.802478790283203,-0.15115399658679962,-0.24050100147724152
1779997185019039200,19.946039306640625,9.802465438842773,-0.15123200416564941,-0.24092699587345123
1779997185036316000,19.96331591796875,9.802414894104004,-0.15122400224208832,-0.24286800622940063
1779997185053592300,19.98059228515625,9.802359580993652,-0.15118299424648285,-0.24514900147914886
1779997185070868700,19.99786865234375,9.802332878112793,-0.15116000175476074,-0.24643799662590027
1779997185088145400,20.0151455078125,9.802343368530273,-0.1511240005493164,-0.24599400162696838
1779997185105421800,20.032421875,9.802388191223145,-0.15102000534534454,-0.24402500689029694
1779997185122698200,20.0496982421875,9.802450180053711,-0.15094800293445587,-0.24165000021457672
1779997185139975000,20.066974853515624,9.802491188049316,-0.150859996676445,-0.24025699496269226
1779997185157251300,20.084251220703123,9.802481651306152,-0.1507750004529953,-0.24060599505901337
1779997185174528000,20.101528076171874,9.802433013916016,-0.15068799257278442,-0.24245700240135193
1779997185191804400,20.118804443359377,9.802382469177246,-0.1506190001964569,-0.24469499289989471
1779997185209080800,20.136080810546876,9.80235481262207,-0.15059000253677368,-0.2460010051727295
1779997185226357500,20.153357421875,9.802360534667969,-0.1506509929895401,-0.245619997382164
1779997185243634000,20.170634033203125,9.802400588989258,-0.15074500441551208,-0.2438330054283142
1779997185260910600,20.18791064453125,9.802453994750977,-0.15079399943351746,-0.24171200394630432
1779997185278187000,20.20518701171875,9.80248737335205,-0.15082700550556183,-0.2405409961938858
1779997185295463700,20.222463623046874,9.802472114562988,-0.1508529931306839,-0.24104200303554535
1779997185312740000,20.239739990234376,9.80241870880127,-0.15087099373340607,-0.24295899271965027
1779997185330016500,20.2570166015625,9.802367210388184,-0.15085799992084503,-0.24519899487495422
1779997185347293200,20.274293212890626,9.80234146118164,-0.15086500346660614,-0.24646200239658356
1779997185364569600,20.291569580078125,9.802350044250488,-0.15086700022220612,-0.24601000547409058
1779997185381846300,20.30884619140625,9.802392959594727,-0.1508910059928894,-0.24411800503730774
1779997185399122700,20.326122802734375,9.802446365356445,-0.15095700323581696,-0.24192999303340912
1779997185416399000,20.343399169921874,9.80247974395752,-0.1509609967470169,-0.24075600504875183
1779997185433675800,20.36067578125,9.802465438842773,-0.1508689969778061,-0.2412949949502945
1779997185450952400,20.377952392578123,9.802416801452637,-0.15076400339603424,-0.24321700632572174
1779997185468228900,20.395228759765626,9.802367210388184,-0.15064799785614014,-0.24539199471473694
1779997185485505300,20.41250537109375,9.80234146118164,-0.15059499442577362,-0.24660000205039978
1779997185502782000,20.429781982421876,9.802351951599121,-0.15057100355625153,-0.24615399539470673
1779997185520058600,20.44705859375,9.80239200592041,-0.1505720019340515,-0.24434100091457367
1779997185537335000,20.4643349609375,9.802447319030762,-0.15056900680065155,-0.24225400388240814
1779997185554611500,20.481611572265624,9.802477836608887,-0.15060700476169586,-0.2411469966173172
1779997185571888000,20.49888818359375,9.802462577819824,-0.15059199929237366,-0.24170200526714325
1779997185589164500,20.51616455078125,9.802412033081055,-0.15056300163269043,-0.24358700215816498
1779997185606441000,20.53344091796875,9.802363395690918,-0.15053099393844604,-0.24569100141525269
1779997185623717600,20.550717529296875,9.80234146118164,-0.15049700438976288,-0.24680200219154358
1779997185640994000,20.567994140625,9.802351951599121,-0.15051600337028503,-0.24625100195407867
1779997185658270500,20.5852705078125,9.80239486694336,-0.15058700740337372,-0.24433299899101257
1779997185675547100,20.602547119140624,9.802446365356445,-0.1506810039281845,-0.242248997092247
1779997185692823600,20.619823486328126,9.802475929260254,-0.15076899528503418,-0.2412080019712448
1779997185710100000,20.637099853515625,9.802457809448242,-0.15080000460147858,-0.24185000360012054
1779997185727376600,20.654376708984376,9.802404403686523,-0.15083199739456177,-0.24379099905490875
1779997185744653300,20.6716533203125,9.802353858947754,-0.15088100731372833,-0.24591200053691864
1779997185761929700,20.6889296875,9.802329063415527,-0.15099500119686127,-0.24697700142860413
1779997185779206400,20.706206298828125,9.802339553833008,-0.15113100409507751,-0.24637900292873383
1779997185796482800,20.72348291015625,9.802382469177246,-0.15123699605464935,-0.2444619983434677
1779997185813759200,20.74075927734375,9.802435874938965,-0.15126599371433258,-0.24238599836826324
1779997185831035600,20.75803564453125,9.80246353149414,-0.15128999948501587,-0.2413569986820221
1779997185848312300,20.775312255859376,9.802447319030762,-0.15128999948501587,-0.24196100234985352
1779997185865588700,20.792588623046875,9.802398681640625,-0.15127700567245483,-0.24380899965763092
1779997185882865400,20.809865478515626,9.802351951599121,-0.1512710005044937,-0.2457910031080246
1779997185900142000,20.82714208984375,9.802331924438477,-0.15125900506973267,-0.24675600230693817
1779997185917418200,20.844418212890623,9.802343368530273,-0.15128299593925476,-0.2461410015821457
1779997185934695000,20.86169482421875,9.802386283874512,-0.15135300159454346,-0.24427799880504608
1779997185951971600,20.8789716796875,9.802437782287598,-0.15145300328731537,-0.24227799475193024
1779997185969248000,20.896248046875,9.80246353149414,-0.15150800347328186,-0.24132399260997772
1779997185986524400,20.9135244140625,9.802444458007812,-0.15149499475955963,-0.24197399616241455
1779997186003801000,20.930801025390625,9.802396774291992,-0.15143300592899323,-0.24384300410747528
1779997186021077800,20.948077880859376,9.802352905273438,-0.15134300291538239,-0.24580299854278564
1779997186038354200,20.965354248046875,9.802334785461426,-0.15129800140857697,-0.24670900404453278
1779997186055630600,20.982630615234374,9.802350044250488,-0.151295006275177,-0.24598999321460724
1779997186072907300,20.9999072265625,9.802393913269043,-0.1513189971446991,-0.2440589964389801
1779997186090183700,21.01718359375,9.802446365356445,-0.15135499835014343,-0.24204899370670319
1779997186107460000,21.034460205078126,9.802472114562988,-0.15137499570846558,-0.24114100635051727
1779997186124736800,21.05173681640625,9.802453994750977,-0.15133699774742126,-0.24182699620723724
1779997186142013200,21.06901318359375,9.80240535736084,-0.15127700567245483,-0.24367399513721466
1779997186159289600,21.08628955078125,9.802362442016602,-0.15123499929904938,-0.24556000530719757
1779997186176566300,21.103566162109374,9.802343368530273,-0.15120500326156616,-0.24637199938297272
1779997186193842700,21.1208427734375,9.802359580993652,-0.15121600031852722,-0.2456279993057251
1779997186211119000,21.138119140625,9.802404403686523,-0.15123799443244934,-0.24373699724674225
1779997186228395800,21.155395751953126,9.802454948425293,-0.15126200020313263,-0.24182599782943726
1779997186245672200,21.172672119140625,9.80247688293457,-0.1512790024280548,-0.24102400243282318
1779997186262948900,21.189948974609376,9.802454948425293,-0.1512800008058548,-0.24180099368095398
1779997186280225300,21.207225341796875,9.802404403686523,-0.15126700699329376,-0.24371199309825897
1779997186297502000,21.224501953125,9.802358627319336,-0.15124599635601044,-0.24565300345420837
1779997186314778400,21.2417783203125,9.802342414855957,-0.1512649953365326,-0.2464900016784668
1779997186332054800,21.2590546875,9.802358627319336,-0.15125900506973267,-0.24573400616645813
1779997186349331500,21.27633154296875,9.802401542663574,-0.1513029932975769,-0.2438410073518753
1779997186366608000,21.29360791015625,9.802451133728027,-0.15134699642658234,-0.2419479936361313
1779997186383884500,21.310884521484375,9.802472114562988,-0.15136399865150452,-0.24117699265480042
1779997186401161000,21.328160888671874,9.802449226379395,-0.15138499438762665,-0.24196699261665344
1779997186418437400,21.345437255859373,9.802400588989258,-0.1513960063457489,-0.24385100603103638
1779997186435714000,21.362714111328124,9.80235767364502,-0.1513890027999878,-0.2457219958305359
1779997186452990500,21.379990478515627,9.802339553833008,-0.15140999853610992,-0.24651999771595
1779997186470267000,21.397266845703125,9.80235481262207,-0.15149100124835968,-0.24575699865818024
1779997186487543600,21.41454345703125,9.802397727966309,-0.15154999494552612,-0.24391700327396393
1779997186504820000,21.431820068359375,9.802446365356445,-0.15157799422740936,-0.24203699827194214
1779997186522096400,21.449096435546874,9.802471160888672,-0.15156200528144836,-0.2412160038948059
1779997186539373000,21.466373046875,9.80245304107666,-0.15146000683307648,-0.24191400408744812
1779997186556649500,21.4836494140625,9.802409172058105,-0.1513659954071045,-0.24366800487041473
1779997186573926100,21.500926025390626,9.802370071411133,-0.15128099918365479,-0.24537399411201477
1779997186591202600,21.51820263671875,9.80235767364502,-0.15123100578784943,-0.2460010051727295
1779997186608479200,21.535479248046876,9.802377700805664,-0.15116600692272186,-0.2451159954071045
1779997186625755600,21.552755615234375,9.802422523498535,-0.15119700133800507,-0.24323700368404388
1779997186643032000,21.570031982421874,9.80246639251709,-0.15126000344753265,-0.2415190041065216
1779997186660308700,21.587308837890625,9.802480697631836,-0.15131300687789917,-0.24097900092601776
1779997186677585400,21.60458544921875,9.80245590209961,-0.15131400525569916,-0.241907998919487
1779997186694861800,21.62186181640625,9.80240535736084,-0.1512569934129715,-0.24379299581050873
1779997186712138200,21.63913818359375,9.802366256713867,-0.15122100710868835,-0.24558499455451965
1779997186729415000,21.656414794921876,9.802351951599121,-0.15121999382972717,-0.2462639957666397
1779997186746691300,21.67369140625,9.8023681640625,-0.1512330025434494,-0.24549299478530884
1779997186763967700,21.6909677734375,9.802411079406738,-0.1512099951505661,-0.24369999766349792
1779997186781244400,21.708244384765624,9.802457809448242,-0.15119899809360504,-0.2419849932193756
1779997186798520800,21.725520751953123,9.802471160888672,-0.15123699605464935,-0.24145600199699402
1779997186815797500,21.742797607421874,9.80244255065918,-0.15125100314617157,-0.2424820065498352
1779997186833074000,21.760073974609377,9.802390098571777,-0.1512559950351715,-0.2444390058517456
1779997186850350300,21.777350341796875,9.802351951599121,-0.15122200548648834,-0.24618400633335114
1779997186867627000,21.794626953125,9.80234146118164,-0.1512559950351715,-0.24671199917793274
1779997186884903700,21.811903564453125,9.802359580993652,-0.15128499269485474,-0.24573999643325806
1779997186902179800,21.829179931640624,9.80240535736084,-0.151309996843338,-0.2438659965991974
