time,seconds_elapsed,z,y,x
1779997165375661800,0.302661865234375,0.0017874999903142452,0.026537500321865082,0.0085249999538064
1779997165392938000,0.31993798828125,0.0017874999903142452,0.03629999980330467,0.015812499448657036
1779997165410214400,0.33721435546875,-0.0006874999962747097,0.04496249929070473,0.00494999997317791
1779997165427490800,0.35449072265625,-0.0019249999895691872,0.03519999980926514,-0.01952499896287918
1779997165444767000,0.37176708984375,-0.0006874999962747097,0.015537500381469727,-0.03423750028014183
1779997165462043600,0.389043701171875,0.0005499999970197678,0.0034374999813735485,-0.02447500079870224
1779997165479319800,0.40631982421875,-0.0006874999962747097,0.002199999988079071,-0.010999999940395355
1779997165496596200,0.42359619140625,-0.0006874999962747097,0.004537499975413084,-0.002474999986588955
1779997165513872600,0.44087255859375,0.0005499999970197678,0.0009624999947845936,0.010999999940395355
1779997165531149000,0.458149169921875,0.0005499999970197678,-0.002749999985098839,0.006049999967217445
1779997165548425500,0.475425537109375,-0.0006874999962747097,-0.005224999971687794,-0.0037124999798834324
1779997165565702000,0.492701904296875,-0.0019249999895691872,-0.007562499959021807,-0.010999999940395355
1779997165582978000,0.50997802734375,-0.0006874999962747097,-0.002749999985098839,0
1779997165600254700,0.527254638671875,0.0005499999970197678,0.008249999955296516,0.00494999997317791
1779997165617531100,0.54453125,0.0005499999970197678,0.01677500084042549,0.015812499448657036
1779997165634807600,0.5618076171875,0.0005499999970197678,0.01677500084042549,0.01347499992698431
1779997165652083700,0.579083740234375,0.0017874999903142452,0.015537500381469727,0.00494999997317791
1779997165669360000,0.596360107421875,0.0005499999970197678,0.015537500381469727,0.0012374999932944775
1779997165686636500,0.613636474609375,-0.0006874999962747097,0.018012499436736107,-0.007287499960511923
1779997165703913000,0.630912841796875,-0.0019249999895691872,0.027775000780820847,-0.032999999821186066
1779997165721189400,0.648189453125,-0.0006874999962747097,0.03519999980926514,-0.037812501192092896
1779997165738465800,0.6654658203125,0.0005499999970197678,0.03519999980926514,-0.025712499395012856
1779997165755742000,0.682741943359375,0.0005499999970197678,0.026537500321865082,-0.010999999940395355
1779997165773018400,0.700018310546875,0.0005499999970197678,0.010724999941885471,0.002474999986588955
1779997165790294800,0.717294677734375,0.0005499999970197678,0.002199999988079071,0.01223750039935112
1779997165807571000,0.734571044921875,0.0005499999970197678,0.010724999941885471,0.020762499421834946
1779997165824847600,0.75184765625,0.0005499999970197678,0.015537500381469727,0.015812499448657036
1779997165842124000,0.7691240234375,0.0005499999970197678,0.008249999955296516,0.0012374999932944775
1779997165859400200,0.786400146484375,0.0005499999970197678,-0.006324999965727329,-0.015949999913573265
1779997165876676600,0.803676513671875,0.0005499999970197678,-0.005224999971687794,-0.006049999967217445
1779997165893953000,0.820953125,0.0005499999970197678,0.015537500381469727,0.015949999913573265
1779997165911229400,0.8382294921875,0.0017874999903142452,0.04853750020265579,0.02681249938905239
1779997165928505600,0.855505615234375,0.0017874999903142452,0.05829999968409538,0.018287500366568565
1779997165945782000,0.872781982421875,0.0017874999903142452,0.03629999980330467,0.0012374999932944775
1779997165963058700,0.89005859375,-0.0017874999903142452,0.025299999862909317,-0.018287500366568565
1779997165980334800,0.9073349609375,-0.0042624999769032,0.008249999955296516,-0.037812501192092896
1779997165997611300,0.924611328125,-0.0017874999903142452,-0.007562499959021807,-0.032999999821186066
1779997166014888000,0.941887939453125,-0.0017874999903142452,-0.021037500351667404,-0.0170499999076128
1779997166032164000,0.9591640625,-0.0017874999903142452,-0.04675000160932541,-0.010999999940395355
1779997166049440500,0.9764404296875,-0.0017874999903142452,-0.060224998742341995,0.0012374999932944775
1779997166066717000,0.993717041015625,-0.0017874999903142452,-0.05898749828338623,0.0170499999076128
1779997166083993300,1.010993408203125,-0.0030249999836087227,-0.050324998795986176,0.0170499999076128
1779997166101269800,1.028269775390625,-0.0030249999836087227,-0.04179999977350235,0.0037124999798834324
1779997166118546200,1.045546142578125,-0.0030249999836087227,-0.025987500324845314,-0.01347499992698431
1779997166135822600,1.062822509765625,-0.0017874999903142452,-0.0015124999918043613,-0.0085249999538064
1779997166153099000,1.08009912109375,0.0005499999970197678,0.011962499469518661,0.0012374999932944775
1779997166170375400,1.09737548828125,0.0017874999903142452,0.007012499962002039,0.0012374999932944775
1779997166187651600,1.114651611328125,0.0017874999903142452,0.009487500414252281,-0.006049999967217445
1779997166204928000,1.131927978515625,0.0005499999970197678,0.027775000780820847,0.00976249948143959
1779997166222204400,1.149204345703125,0.0005499999970197678,0.03272499889135361,0.02928750030696392
1779997166239480800,1.166480712890625,0.0005499999970197678,0.015537500381469727,0.0085249999538064
1779997166256757200,1.18375732421875,-0.0017874999903142452,-0.003987499978393316,-0.025712499395012856
1779997166274033700,1.20103369140625,-0.0017874999903142452,-0.016224998980760574,-0.035475000739097595
1779997166291310000,1.21831005859375,-0.0005499999970197678,-0.014987500384449959,-0.015812499448657036
1779997166308586500,1.23558642578125,0.0005499999970197678,-0.007562499959021807,0.0085249999538064
1779997166325862700,1.252862548828125,0.0005499999970197678,-0.0015124999918043613,0.0147124994546175
1779997166343139300,1.270139404296875,0.0017874999903142452,-0.0015124999918043613,0.02681249938905239
1779997166360415700,1.287415771484375,0.0030249999836087227,0.002199999988079071,0.030524998903274536
1779997166377692000,1.30469189453125,0.0032999999821186066,0.010587500408291817,0.028049999848008156
1779997166394968600,1.321968505859375,0.002062499988824129,0.020349999889731407,0.007287499960511923
1779997166412244700,1.33924462890625,0.0008249999955296516,0.03135000169277191,-0.0147124994546175
1779997166429521200,1.356521240234375,-0.0004124999977648258,0.04124999791383743,-0.01966249942779541
1779997166446797800,1.3737978515625,0.002062499988824129,0.04235000163316727,0.009624999947845936
1779997166464074000,1.391073974609375,0.002062499988824129,0.026537500321865082,0.023099999874830246
1779997166481350400,1.408350341796875,0.0008249999955296516,-0.0004124999977648258,0.0010999999940395355
1779997166498626800,1.425626708984375,-0.003987499978393316,-0.01993750035762787,-0.02694999985396862
1779997166515903200,1.4429033203125,-0.003987499978393316,-0.016224998980760574,-0.02213750034570694
1779997166533179600,1.4601796875,-0.0016499999910593033,-0.010174999944865704,0.01209999993443489
1779997166550456000,1.4774560546875,0.0008249999955296516,-0.011412499472498894,0.03657500073313713
1779997166567732200,1.494732177734375,0.0008249999955296516,-0.01251249946653843,0.032862499356269836
1779997166585009000,1.5120087890625,-0.0016499999910593033,-0.02474999986588955,0.015812499448657036
1779997166602285000,1.52928515625,-0.0016499999910593033,-0.038224998861551285,0.006049999967217445
1779997166619561500,1.5465615234375,-0.0016499999910593033,-0.030937500298023224,0.007287499960511923
1779997166636838000,1.563837890625,-0.0016499999910593033,-0.011412499472498894,0.004812499973922968
1779997166654114300,1.5811142578125,-0.0016499999910593033,-0.002749999985098839,-0.008662499487400055
1779997166671390700,1.598390625,-0.0004124999977648258,0.002062499988824129,-0.02213750034570694
1779997166688667100,1.615667236328125,0.0008249999955296516,0.013062499463558197,-0.00989999994635582
1779997166705943600,1.632943603515625,0.0008249999955296516,0.030249999836087227,0.013337500393390656
1779997166723220000,1.650219970703125,0.0008249999955296516,0.0387750007212162,0.028049999848008156
1779997166740496400,1.667496337890625,0.0032999999821186066,0.03629999980330467,0.04633750021457672
1779997166757772800,1.684772705078125,0.002062499988824129,0.030249999836087227,0.03657500073313713
1779997166775049200,1.70204931640625,0.002062499988824129,0.015537500381469727,0.05115000158548355
1779997166792325400,1.719325439453125,0.0032999999821186066,-0.003987499978393316,0.05362499877810478
1779997166809601800,1.736601806640625,0.002062499988824129,-0.02969999983906746,0.05362499877810478
1779997166826878200,1.753878173828125,-0.0016499999910593033,-0.06393750011920929,0.02186249941587448
1779997166844154600,1.771154541015625,-0.0028874999843537807,-0.10051249712705612,-0.037950001657009125
1779997166861431000,1.78843115234375,-0.0028874999843537807,-0.12251249700784683,-0.06847500056028366
1779997166878707500,1.80570751953125,-0.0004124999977648258,-0.16403749585151672,-0.0648999959230423
1779997166895983900,1.82298388671875,0.004537499975413084,-0.2690874934196472,-0.047712501138448715
1779997166913260300,1.84026025390625,0.002062499988824129,-0.4353249967098236,-0.012374999932944775
1779997166930536400,1.857536376953125,-0.012649999931454659,-0.9459999799728394,0.5900124907493591
1779997166947813000,1.874813232421875,-0.021175000816583633,-2.5878875255584717,0.46777498722076416
1779997166965089500,1.892089599609375,-0.040699999779462814,-3.7607624530792236,-0.4265249967575073
1779997166982365700,1.90936572265625,-0.04441250115633011,-3.2232749462127686,0.7035874724388123
1779997166999642400,1.926642333984375,0.03258749842643738,-0.991100013256073,0.8171625137329102
1779997167016918800,1.943918701171875,-0.018699999898672104,1.5047999620437622,1.9754624366760254
1779997167034195200,1.9611953125,-0.1714625060558319,3.245687484741211,1.4843125343322754
1779997167051471600,1.9784716796875,-0.21051250398159027,3.031874895095825,-1.5944499969482422
1779997167068747800,1.995747802734375,-0.11893749982118607,0.9036499857902527,-5.236412525177002
1779997167086024200,2.013024169921875,0.019112499430775642,-1.433437466621399,2.8782875537872314
1779997167103300600,2.030300537109375,0.15111249685287476,-2.4853124618530273,2.3578500747680664
1779997167120577000,2.047576904296875,0.14863750338554382,-2.943462371826172,-0.17599999904632568
1779997167137853700,2.064853759765625,0.06806249916553497,-1.3894374370574951,-0.5743374824523926
1779997167155129900,2.0821298828125,-0.007699999958276749,0.8328375220298767,0.13667500019073486
1779997167172406300,2.09940625,-0.09927500039339066,2.666675090789795,0.34814998507499695
1779997167189682700,2.1166826171875,-0.10298749804496765,3.0636374950408936,-1.1790624856948853
1779997167206958800,2.133958740234375,-0.055412501096725464,1.7113250494003296,-3.463624954223633
1779997167224235500,2.151235595703125,0.05706249922513962,-0.7236624956130981,2.7939999103546143
1779997167241512000,2.168511962890625,0.021587500348687172,-2.7431249618530273,0.11233749985694885
1779997167258788400,2.185788330078125,-0.040699999779462814,-3.4260873794555664,-2.023312568664551
1779997167276064800,2.203064697265625,-0.030937500298023224,-1.7560124397277832,0.5202999711036682
1779997167293341200,2.220341064453125,0.0668250024318695,0.8072624802589417,2.0828499794006348
1779997167310617300,2.237617431640625,-0.045649997889995575,2.643437385559082,2.313849925994873
1779997167327894000,2.25489404296875,-0.18479999899864197,2.859724998474121,-0.008662499487400055
1779997167345170400,2.27217041015625,-0.14093749225139618,1.2421749830245972,-3.7153875827789307
1779997167362446800,2.28944677734375,-0.02241249941289425,0.09253749996423721,-1.8875999450683594
1779997167379723300,2.30672314453125,0.014024999924004078,-1.9404000043869019,4.046350002288818
1779997167396999700,2.323999755859375,0.11550000309944153,-2.6147000789642334,1.04087495803833
1779997167414275800,2.34127587890625,0.07150000333786011,-1.853637456893921,-0.46543750166893005
1779997167431552500,2.358552490234375,-0.02502499893307686,-0.10051249712705612,-0.524150013923645
1779997167448828700,2.37582861328125,-0.08249999582767487,1.6710374355316162,-0.28833749890327454
1779997167466105000,2.39310498046875,-0.06173750013113022,2.5616250038146973,-0.9871125221252441
1779997167483381500,2.410381591796875,-0.022549999877810478,2.0534250736236572,-2.4653749465942383
1779997167500658000,2.427657958984375,0.05431250110268593,0.1915374994277954,2.111175060272217
1779997167517934600,2.4449345703125,-0.016499999910593033,-1.9269249439239502,-0.5961999893188477
1779997167535210800,2.462210693359375,-0.060499999672174454,-2.578125,-1.0616375207901
1779997167552487200,2.479487060546875,-0.016499999910593033,-1.9232125282287598,1.5894999504089355
1779997167569763600,2.496763671875,0.026262499392032623,-0.060224998742341995,1.7763625383377075
1779997167587040000,2.5140400390625,-0.03849999979138374,1.5585625171661377,1.55649995803833
1779997167604316400,2.53131640625,-0.14726249873638153,2.159712553024292,-0.3018124997615814
1779997167621592800,2.5485927734375,-0.11426249891519547,1.4682250022888184,-3.0360000133514404
1779997167638869200,2.565869140625,-0.012787500396370888,0.892787516117096,-2.5473248958587646
1779997167656145700,2.583145751953125,0.027499999850988388,-0.9983875155448914,3.758012533187866
1779997167673422300,2.60042236328125,0.06297499686479568,-2.177449941635132,0.5619624853134155
1779997167690698800,2.61769873046875,0.03726249933242798,-2.170024871826172,-1.2009249925613403
1779997167707975200,2.63497509765625,-0.0005499999970197678,-0.7748125195503235,-1.1972124576568604
1779997167725251600,2.65225146484375,0.017737500369548798,0.9783124923706055,-0.3078624904155731
1779997167742528000,2.669528076171875,0.027499999850988388,2.187762498855591,0.4862000048160553
1779997167759804400,2.686804443359375,0.015262499451637268,2.119425058364868,-0.29205000400543213
1779997167777080800,2.704080810546875,0.014024999924004078,0.7584499716758728,0.2003374993801117
1779997167794357000,2.72135693359375,-0.015262499451637268,-1.1426249742507935,-0.06104999780654907
1779997167811633700,2.738633544921875,-0.03478749841451645,-2.2885499000549316,-0.18081249296665192
1779997167828910000,2.75591015625,-0.020212499424815178,-2.0295000076293945,0.2638624906539917
1779997167846186500,2.7731865234375,0.010312499478459358,-0.6172375082969666,0.27486249804496765
1779997167863463000,2.790462890625,0.010312499478459358,0.9990749955177307,0.5839625000953674
1779997167880739300,2.8077392578125,-0.01746249943971634,2.050950050354004,0.18562500178813934
1779997167898015500,2.825015380859375,-0.016224998980760574,1.8541874885559082,-1.4954500198364258
1779997167915292200,2.842292236328125,0.03258749842643738,0.8511250019073486,0.36272498965263367
1779997167932568600,2.859568603515625,-0.010174999944865704,-0.8200500011444092,0.5838249921798706
1779997167949845000,2.876844970703125,-0.05169999971985817,-2.1224498748779297,-1.3879250288009644
1779997167967121400,2.894121337890625,-0.025987500324845314,-2.0259249210357666,1.1825000047683716
1779997167984398000,2.911398193359375,0.0411125011742115,-0.5941374897956848,0.9381625056266785
1779997168001674200,2.92867431640625,0.0057749999687075615,0.8390250205993652,0.9246875047683716
1779997168018950700,2.94595068359375,-0.05664999783039093,1.7381374835968018,0.047575000673532486
1779997168036227000,2.96322705078125,-0.05898749828338623,1.6000875234603882,-1.8205000162124634
1779997168053503500,2.98050341796875,0.010587500408291817,1.1346499919891357,-1.572450041770935
1779997168070780000,2.99777978515625,0.025299999862909317,-0.4388999938964844,2.4481875896453857
1779997168088056300,3.015056396484375,0.008112499490380287,-1.808537483215332,-0.8014875054359436
1779997168105332700,3.032332763671875,-0.057750001549720764,-1.6667749881744385,-1.439212441444397
1779997168122609400,3.049609375,-0.007699999958276749,-0.8067125082015991,1.5123624801635742
1779997168139885600,3.066885498046875,0.024062499403953552,0.7852625250816345,1.42683744430542
1779997168157162200,3.084162353515625,-0.035887498408555984,1.5695624351501465,0.5777750015258789
1779997168174438700,3.101438720703125,-0.05169999971985817,1.382562518119812,-1.3866875171661377
1779997168191714800,3.11871484375,-0.03217500075697899,0.7986000180244446,-2.7183749675750732
1779997168208991500,3.135991455078125,0.027775000780820847,-0.4536125063896179,2.562999963760376
1779997168226268000,3.153267822265625,0.0448249988257885,-1.3906749486923218,0.21738749742507935
1779997168243544300,3.17054443359375,-0.025987500324845314,-1.8438749313354492,-1.6847875118255615
1779997168260820700,3.18782080078125,-0.01746249943971634,-0.824999988079071,0.14409999549388885
1779997168278097400,3.205097412109375,0.026537500321865082,0.5176874995231628,1.386549949645996
1779997168295373600,3.22237353515625,-0.01746249943971634,1.3717000484466553,0.6938250064849854
1779997168312650000,3.23964990234375,-0.02241249941289425,1.3557499647140503,-0.992062509059906
1779997168329926700,3.2569267578125,-0.012649999931454659,0.906125009059906,-1.9255499839782715
1779997168347202800,3.274202880859375,0.025299999862909317,-0.29961249232292175,2.084087371826172
1779997168364479500,3.2914794921875,0.002062499988824129,-1.3601499795913696,-0.47286251187324524
1779997168381755600,3.308755615234375,-0.03217500075697899,-1.3747249841690063,-1.2535874843597412
1779997168399032000,3.326031982421875,-0.010174999944865704,-0.768762469291687,1.3267375230789185
1779997168416308700,3.343308837890625,0.020349999889731407,0.4394499957561493,0.8721625208854675
1779997168433585200,3.360585205078125,-0.013749999925494194,1.1309374570846558,0.0658624991774559
1779997168450861600,3.377861572265625,-0.023512499406933784,1.1406999826431274,-1.4086874723434448
1779997168468138000,3.395137939453125,0.01924999989569187,0.9660750031471252,-0.47286251187324524
1779997168485414400,3.412414306640625,0.004537499975413084,-0.01993750035762787,1.3695000410079956
1779997168502690800,3.42969091796875,-0.021175000816583633,-1.209862470626831,-1.3671624660491943
1779997168519967500,3.446967529296875,-0.02474999986588955,-1.3319624662399292,0.46543750166893005
1779997168537243600,3.46424365234375,0.010587500408291817,-0.6478999853134155,0.8501625061035156
1779997168554520300,3.481520263671875,0.0032999999821186066,0.171875,0.14767499268054962
1779997168571796700,3.498796630859375,-0.006462499964982271,0.8828874826431274,-0.5363875031471252
1779997168589073000,3.516072998046875,0.0032999999821186066,1.2506999969482422,-1.0702999830245972
1779997168606349600,3.533349609375,0.029012499377131462,0.8463125228881836,1.0579249858856201
1779997168623626000,3.5506259765625,-0.010174999944865704,-0.16403749585151672,-0.64267498254776
1779997168640902400,3.56790234375,-0.01251249946653843,-0.955762505531311,0.1331000030040741
1779997168658178800,3.5851787109375,-0.011412499472498894,-1.187862515449524,0.35420000553131104
1779997168675455500,3.60245556640625,-0.01251249946653843,-0.8848124742507935,-0.6011499762535095
1779997168692731600,3.619731689453125,0.0032999999821186066,0.03258749842643738,0.2662000060081482
1779997168710008000,3.637008056640625,0.008249999955296516,0.9403625130653381,0.2441999912261963
1779997168727284700,3.65428466796875,0.010587500408291817,1.2262250185012817,-0.4923875033855438
1779997168744561200,3.67156103515625,0.01924999989569187,0.8621249794960022,0.4226749837398529
1779997168761837600,3.688837646484375,-0.006462499964982271,-0.10175000131130219,-0.23471249639987946
1779997168779114200,3.7061142578125,-0.013749999925494194,-0.9605749845504761,0.025575000792741776
1779997168796390400,3.723390380859375,-0.013749999925494194,-1.222100019454956,0.10986249893903732
1779997168813666800,3.740666748046875,-0.01251249946653843,-0.7992874979972839,-0.27871251106262207
1779997168830943500,3.757943603515625,0.002062499988824129,0.08030000329017639,0.282150000333786
1779997168848219600,3.7752197265625,0.008249999955296516,0.914650022983551,-0.04895000159740448
1779997168865496300,3.792496337890625,0.014299999922513962,1.2335125207901,-0.15152500569820404
1779997168882773000,3.80977294921875,0.014024999924004078,0.8573125004768372,0.26138749718666077
1779997168900049200,3.827049072265625,-0.006737499963492155,-0.09075000137090683,-0.2503874897956848
1779997168917325600,3.84432568359375,-0.009212499484419823,-0.9398124814033508,0.19181250035762787
1779997168934602200,3.861602294921875,-0.016499999910593033,-1.2317249774932861,-0.17104999721050262
1779997168951878700,3.878878662109375,-0.010449999943375587,-0.7748125195503235,0.037812501192092896
1779997168969155000,3.896155029296875,0.0017874999903142452,0.09129999577999115,0.12581250071525574
1779997168986431500,3.913431396484375,0.010312499478459358,0.8830249905586243,-0.15399999916553497
1779997169003708200,3.930708251953125,0.016499999910593033,1.2091749906539917,0.08799999952316284
1779997169020984300,3.947984375,0.010312499478459358,0.8219749927520752,0.025712499395012856
1779997169038261000,3.965260986328125,-0.0017874999903142452,-0.0845625028014183,-0.059812501072883606
1779997169055537400,3.982537353515625,-0.011687500402331352,-0.9288125038146973,0.0672374963760376
1779997169072813800,3.999813720703125,-0.017737500369548798,-1.2036750316619873,-0.13433749973773956
1779997169090090200,4.01709033203125,-0.009212499484419823,-0.7625749707221985,0.1050499975681305
1779997169107366700,4.03436669921875,0.0005499999970197678,0.07796250283718109,-0.007287499960511923
1779997169133281500,4.060281494140625,0.014024999924004078,1.1151249408721924,0.01347499992698431
1779997169150558000,4.077557861328125,0.012787500396370888,1.0796500444412231,0.05004999786615372
1779997169167834000,4.094834228515625,0.0042624999769032,0.39063748717308044,-0.030524998903274536
1779997169185110800,4.11211083984375,-0.006737499963492155,-0.5402374863624573,0.0317624993622303
1779997169202387500,4.129387451171875,-0.016499999910593033,-1.135200023651123,-0.07576250284910202
1779997169219664000,4.146663818359375,-0.014024999924004078,-1.0326249599456787,0.02447500079870224
1779997169236940300,4.163940185546875,-0.0042624999769032,-0.35337498784065247,0.006049999967217445
1779997169254216700,4.181216796875,0.006737499963492155,0.5152124762535095,-0.006049999967217445
1779997169271493000,4.1984931640625,0.012787500396370888,1.090649962425232,0.0012374999932944775
1779997169288769500,4.21576953125,0.012787500396370888,1.0491249561309814,0.030524998903274536
1779997169306046200,4.233046142578125,0.0042624999769032,0.3783999979496002,0.00494999997317791
1779997169323322600,4.250322509765625,-0.007974999956786633,-0.5304750204086304,-0.01347499992698431
1779997169340599000,4.26759912109375,-0.014024999924004078,-1.1083874702453613,-0.028049999848008156
1779997169357875500,4.28487548828125,-0.012787500396370888,-1.0106250047683716,-0.01223750039935112
1779997169375152000,4.302152099609375,-0.0030249999836087227,-0.3398999869823456,0.0170499999076128
1779997169392428500,4.319428466796875,0.006737499963492155,0.5103999972343445,0.006049999967217445
1779997169409705000,4.336705078125,0.012787500396370888,1.0686500072479248,-0.018287500366568565
1779997169426981400,4.3539814453125,0.012787500396370888,1.0296000242233276,0.05128749832510948
1779997169444257800,4.3712578125,0.0042624999769032,0.357637494802475,-0.00976249948143959
1779997169461534200,4.3885341796875,-0.007974999956786633,-0.5317124724388123,-0.002474999986588955
1779997169478811000,4.405810791015625,-0.015262499451637268,-1.0851500034332275,-0.0317624993622303
1779997169496087600,4.423087646484375,-0.014024999924004078,-0.982574999332428,-0.0147124994546175
1779997169513363700,4.44036376953125,-0.0030249999836087227,-0.3240875005722046,0.02681249938905239
1779997169530640400,4.457640380859375,0.006737499963492155,0.5018749833106995,-0.0037124999798834324
1779997169547916800,4.474916748046875,0.011549999937415123,1.0443124771118164,-0.007287499960511923
1779997169565193200,4.492193115234375,0.012787500396370888,1.0038875341415405,0.045237500220537186
1779997169582469600,4.5094697265625,0.0030249999836087227,0.3515875041484833,-0.01223750039935112
1779997169599746300,4.526746337890625,-0.006737499963492155,-0.5219500064849854,0.002474999986588955
1779997169617022500,4.5440224609375,-0.014024999924004078,-1.0668624639511108,-0.037812501192092896
1779997169634299100,4.561299072265625,-0.012787500396370888,-0.9630500078201294,-0.007287499960511923
1779997169651575600,4.578575439453125,-0.0042624999769032,-0.3143250048160553,0.015949999913573265
1779997169668852200,4.595852294921875,0.006737499963492155,0.5006374716758728,-0.0012374999932944775
1779997169686128600,4.613128662109375,0.012787500396370888,1.0296000242233276,-0.0012374999932944775
1779997169703405000,4.630405029296875,0.012787500396370888,0.9733625054359436,0.04028749838471413
1779997169720681500,4.647681396484375,0.0030249999836087227,0.3258749842643738,-0.00494999997317791
1779997169737958000,4.6649580078125,-0.007974999956786633,-0.5219500064849854,-0.00494999997317791
1779997169755234300,4.682234375,-0.014024999924004078,-1.0448625087738037,-0.030524998903274536
1779997169772511000,4.699510986328125,-0.012787500396370888,-0.9361000061035156,-0.0085249999538064
1779997169789787400,4.716787353515625,-0.0017874999903142452,-0.29589998722076416,0.0170499999076128
1779997169807063800,4.734063720703125,0.006737499963492155,0.49939998984336853,-0.0012374999932944775
1779997169824340500,4.751340576171875,0.010312499478459358,1.007599949836731,-0.002474999986588955
1779997169841617000,4.768616943359375,0.012787500396370888,0.9550749659538269,0.037812501192092896
1779997169858893300,4.785893310546875,0.0042624999769032,0.31363749504089355,-0.006049999967217445
1779997169876170000,4.803169921875,-0.006737499963492155,-0.5207124948501587,-0.002474999986588955
1779997169893446100,4.820446044921875,-0.013749999925494194,-1.0240999460220337,-0.033137500286102295
1779997169910722800,4.837722900390625,-0.011412499472498894,-0.9117624759674072,-0.006187499966472387
1779997169927999200,4.854999267578125,-0.002749999985098839,-0.28503748774528503,0.013337500393390656
1779997169945275600,4.872275634765625,0.007012499962002039,0.49445000290870667,-0.00013749999925494194
1779997169962552000,4.889552001953125,0.011824999935925007,0.9904124736785889,-0.00013749999925494194
1779997169979828700,4.906828857421875,0.013062499463558197,0.9268875122070312,0.035337500274181366
1779997169997105200,4.924105224609375,0.0032999999821186066,0.2989250123500824,-0.00494999997317791
1779997170014381600,4.941381591796875,-0.006462499964982271,-0.514662504196167,-0.00494999997317791
1779997170031658000,4.958657958984375,-0.013749999925494194,-1.0070500373840332,-0.029424998909235
1779997170048934700,4.9759345703125,-0.01251249946653843,-0.894712507724762,-0.008662499487400055
1779997170066211000,4.993211181640625,-0.002749999985098839,-0.2667500078678131,0.010862499475479126
1779997170083487500,5.010487548828125,0.007012499962002039,0.5005000233650208,0.0035749999806284904
1779997170100764200,5.02776416015625,0.011824999935925007,0.9770749807357788,-0.00013749999925494194
1779997170118040600,5.04504052734375,0.011824999935925007,0.9013124704360962,0.0340999998152256
1779997170135317000,5.06231689453125,0.0032999999821186066,0.27816250920295715,-0.0037124999798834324
1779997170152593700,5.07959375,-0.007699999958276749,-0.5171374678611755,-0.007424999959766865
1779997170169870000,5.0968701171875,-0.01251249946653843,-0.9887624979019165,-0.02694999985396862
1779997170187146500,5.114146484375,-0.011412499472498894,-0.8652874827384949,-0.008662499487400055
1779997170204423200,5.131423095703125,-0.002749999985098839,-0.2508000135421753,0.013337500393390656
1779997170221699600,5.148699462890625,0.007012499962002039,0.4969249963760376,-0.00013749999925494194
1779997170238976000,5.16597607421875,0.011824999935925007,0.9671750068664551,0.002337499987334013
1779997170256252400,5.18325244140625,0.013062499463558197,0.8866000175476074,0.032862499356269836
1779997170273528800,5.20052880859375,0.0032999999821186066,0.26358750462532043,-0.00494999997317791
1779997170290805200,5.21780517578125,-0.006462499964982271,-0.5208500027656555,-0.00494999997317791
1779997170308082000,5.23508203125,-0.01251249946653843,-0.9752874970436096,-0.029424998909235
1779997170325358300,5.2523583984375,-0.011412499472498894,-0.8457624912261963,-0.006187499966472387
1779997170342634800,5.269634765625,-0.002749999985098839,-0.23498749732971191,0.004812499973922968
1779997170359911400,5.286911376953125,0.007012499962002039,0.5066875219345093,0.002337499987334013
1779997170377187800,5.304187744140625,0.013062499463558197,0.9550749659538269,0.009624999947845936
1779997170394464300,5.32146435546875,0.010587500408291817,0.8573125004768372,0.02681249938905239
1779997170411740700,5.33874072265625,0.002062499988824129,0.23787499964237213,0.0010999999940395355
1779997170429017300,5.356017333984375,-0.007699999958276749,-0.5306124687194824,-0.011137500405311584
1779997170446293800,5.373293701171875,-0.012649999931454659,-0.964287519454956,-0.02447500079870224
1779997170463570200,5.390570068359375,-0.010174999944865704,-0.8225250244140625,-0.008662499487400055
1779997170480846800,5.407846923828125,-0.0016499999910593033,-0.21051250398159027,0.007287499960511923
1779997170498123300,5.425123291015625,0.007012499962002039,0.5164499878883362,0.004812499973922968
1779997170515400000,5.44239990234375,0.011824999935925007,0.9464125037193298,0.006049999967217445
1779997170532676400,5.45967626953125,0.011824999935925007,0.8340749740600586,0.02928750030696392
1779997170549952800,5.476952880859375,0.002062499988824129,0.2134000062942505,-0.002612499985843897
1779997170567229400,5.4942294921875,-0.006462499964982271,-0.5391374826431274,-0.00989999994635582
1779997170584505900,5.511505859375,-0.012649999931454659,-0.9508125185966492,-0.025712499395012856
1779997170601782300,5.5287822265625,-0.010174999944865704,-0.7969499826431274,-0.008662499487400055
1779997170619058700,5.54605859375,-0.002749999985098839,-0.18851250410079956,0.007287499960511923
1779997170636335000,5.563335205078125,0.007012499962002039,0.5224999785423279,0.0035749999806284904
1779997170653611800,5.58061181640625,0.011824999935925007,0.9330750107765198,0.007287499960511923
1779997170670888200,5.59788818359375,0.010587500408291817,0.8083624839782715,0.02681249938905239
1779997170688164600,5.61516455078125,0.002062499988824129,0.19139999151229858,-0.002612499985843897
1779997170705441000,5.63244091796875,-0.007699999958276749,-0.5451874732971191,-0.00989999994635582
1779997170722717700,5.6497177734375,-0.012649999931454659,-0.9362375140190125,-0.02447500079870224
1779997170739994000,5.666994140625,-0.011412499472498894,-0.772475004196167,-0.007424999959766865
1779997170757270500,5.6842705078125,-0.002749999985098839,-0.16775000095367432,0.007287499960511923
1779997170774547200,5.701547119140625,0.007012499962002039,0.5274500250816345,0.002337499987334013
1779997170791824000,5.718823974609375,0.011824999935925007,0.9220749735832214,0.009624999947845936
1779997170809100000,5.73610009765625,0.010587500408291817,0.7852625250816345,0.02433750033378601
1779997170826376700,5.753376708984375,0.0008249999955296516,0.17063750326633453,-0.002612499985843897
1779997170843653400,5.7706533203125,-0.007699999958276749,-0.5513749718666077,-0.00989999994635582
1779997170860929500,5.787929443359375,-0.013749999925494194,-0.9240000247955322,-0.02447500079870224
1779997170878206200,5.805206298828125,-0.010174999944865704,-0.7492374777793884,-0.00494999997317791
1779997170895482600,5.822482666015625,-0.0030249999836087227,-0.15056249499320984,0.006049999967217445
1779997170912759000,5.839759033203125,0.006737499963492155,0.5324000120162964,0.0037124999798834324
1779997170930035500,5.857035400390625,0.010449999943375587,0.9085999727249146,0.0085249999538064
1779997170947312000,5.87431201171875,0.010449999943375587,0.7632625102996826,0.02447500079870224
1779997170964588500,5.891588623046875,0.0017874999903142452,0.15234999358654022,-0.002474999986588955
1779997170981865000,5.908864990234375,-0.007974999956786633,-0.5549499988555908,-0.010999999940395355
1779997170999141600,5.9261416015625,-0.011549999937415123,-0.9105250239372253,-0.02447500079870224
1779997171016418300,5.943418212890625,-0.009212499484419823,-0.7284749746322632,-0.006049999967217445
1779997171033694500,5.960694580078125,-0.0005499999970197678,-0.13103750348091125,0.00494999997317791
1779997171050971100,5.97797119140625,0.006737499963492155,0.5396875143051147,0.0037124999798834324
1779997171068247600,5.99524755859375,0.011549999937415123,0.8988375067710876,0.01223750039935112
1779997171085524200,6.012524169921875,0.009212499484419823,0.740024983882904,0.020762499421834946
1779997171102800600,6.029800537109375,0.0017874999903142452,0.1280124932527542,0
1779997171120077000,6.0470771484375,-0.007974999956786633,-0.5622375011444092,-0.01347499992698431
1779997171137353500,6.064353515625,-0.011549999937415123,-0.8982874751091003,-0.02199999988079071
1779997171154630100,6.081630126953125,-0.009212499484419823,-0.7052375078201294,-0.006049999967217445
1779997171171906600,6.098906494140625,-0.0005499999970197678,-0.11027500033378601,0.00494999997317791
1779997171189183200,6.116183349609375,0.006737499963492155,0.5469750165939331,0.00494999997317791
1779997171206459600,6.133459716796875,0.011549999937415123,0.889074981212616,0.01223750039935112
1779997171223736000,6.150736083984375,0.009212499484419823,0.7167875170707703,0.020762499421834946
1779997171241012500,6.168012451171875,0.0005499999970197678,0.1060125008225441,0
1779997171258289200,6.1852890625,-0.007974999956786633,-0.570900022983551,-0.01347499992698431
1779997171275565600,6.202565673828125,-0.012787500396370888,-0.8860499858856201,-0.020762499421834946
1779997171292842000,6.219842041015625,-0.009212499484419823,-0.6819999814033508,-0.00494999997317791
1779997171310118400,6.237118408203125,-0.0030249999836087227,-0.0882750004529953,0.0037124999798834324
1779997171327395000,6.25439501953125,0.005499999970197678,0.5531625151634216,0.00494999997317791
1779997171344671500,6.27167138671875,0.010449999943375587,0.8768374919891357,0.01347499992698431
1779997171361948000,6.288947998046875,0.007974999956786633,0.6936874985694885,0.018287500366568565
1779997171379224600,6.306224609375,0.0005499999970197678,0.08401250094175339,-0.0012374999932944775
1779997171396501000,6.3235009765625,-0.007699999958276749,-0.5781875252723694,-0.01347499992698431
1779997171413777400,6.34077734375,-0.011412499472498894,-0.8738124966621399,-0.01966249942779541
1779997171431054000,6.35805419921875,-0.008937500417232513,-0.6601374745368958,-0.00494999997317791
1779997171448330500,6.37533056640625,-0.0004124999977648258,-0.06751249730587006,0.0035749999806284904
1779997171465607000,6.39260693359375,0.008249999955296516,0.5616874694824219,0.0035749999806284904
1779997171482883300,6.40988330078125,0.011824999935925007,0.8646000027656555,0.013337500393390656
1779997171500160000,6.427159912109375,0.008249999955296516,0.6703125238418579,0.018287500366568565
1779997171517436700,6.444436767578125,0.002062499988824129,0.06201250106096268,-0.0013749999925494194
1779997171534712800,6.461712890625,-0.006462499964982271,-0.5831375122070312,-0.01347499992698431
1779997171551989500,6.478989501953125,-0.011412499472498894,-0.8617125153541565,-0.01966249942779541
1779997171569266000,6.496265869140625,-0.007699999958276749,-0.6356624960899353,-0.00494999997317791
1779997171586542600,6.51354248046875,-0.0004124999977648258,-0.047987498342990875,0.0035749999806284904
1779997171603819000,6.530819091796875,0.008249999955296516,0.5665000081062317,0.006049999967217445
1779997171621095400,6.548095458984375,0.011824999935925007,0.853600025177002,0.013337500393390656
1779997171638372000,6.5653720703125,0.009349999949336052,0.6472125053405762,0.018287500366568565
1779997171655648800,6.582648681640625,-0.0004124999977648258,0.04124999791383743,-0.0013749999925494194
1779997171672925200,6.59992529296875,-0.007699999958276749,-0.589187502861023,-0.01347499992698431
1779997171690201600,6.61720166015625,-0.011412499472498894,-0.8494749665260315,-0.018424998968839645
1779997171707478300,6.634478271484375,-0.008937500417232513,-0.6148999929428101,-0.0037124999798834324
1779997171724754700,6.651754638671875,-0.0004124999977648258,-0.02722499892115593,0.0035749999806284904
1779997171742031000,6.669031005859375,0.007012499962002039,0.5726875066757202,0.006049999967217445
1779997171759307800,6.686307861328125,0.010587500408291817,0.841362476348877,0.014574999921023846
1779997171776584200,6.703584228515625,0.008249999955296516,0.6239749789237976,0.0170499999076128
1779997171793860600,6.720860595703125,-0.0004124999977648258,0.01924999989569187,-0.002612499985843897
1779997171811137000,6.738136962890625,-0.007699999958276749,-0.5953750014305115,-0.01347499992698431
1779997171828413400,6.755413330078125,-0.011412499472498894,-0.8372374773025513,-0.01718750037252903
1779997171845690000,6.772690185546875,-0.007699999958276749,-0.5916625261306763,-0.00494999997317791
1779997171862966500,6.789966552734375,0.0008249999955296516,-0.007699999958276749,0.004812499973922968
1779997171880243200,6.8072431640625,0.007012499962002039,0.5774999856948853,0.004812499973922968
1779997171897519600,6.82451953125,0.010587500408291817,0.8303624987602234,0.014574999921023846
1779997171914796000,6.841796142578125,0.008249999955296516,0.6007375121116638,0.015812499448657036
1779997171932072700,6.85907275390625,-0.0004124999977648258,-0.0015124999918043613,-0.0013749999925494194
1779997171949349400,6.876349365234375,-0.008937500417232513,-0.6001874804496765,-0.015949999913573265
1779997171966625800,6.893625732421875,-0.011412499472498894,-0.8237624764442444,-0.01718750037252903
1779997171983902200,6.910902099609375,-0.007699999958276749,-0.5696625113487244,-0.0037124999798834324
1779997172001179000,6.928178955078125,0.0008249999955296516,0.011824999935925007,0.0035749999806284904
1779997172018455300,6.945455322265625,0.008249999955296516,0.5836874842643738,0.006049999967217445
1779997172035731700,6.962731689453125,0.010587500408291817,0.8181250095367432,0.015812499448657036
1779997172053008100,6.980008056640625,0.007012499962002039,0.5762624740600586,0.014574999921023846
1779997172070284800,6.997284912109375,-0.0015124999918043613,-0.01993750035762787,-0.0013749999925494194
1779997172087561200,7.014561279296875,-0.008937500417232513,-0.6039000153541565,-0.0147124994546175
1779997172104837600,7.031837646484375,-0.011412499472498894,-0.8115249872207642,-0.015949999913573265
1779997172122114300,7.0491142578125,-0.006462499964982271,-0.5464249849319458,-0.00494999997317791
1779997172139390700,7.066390625,0.0008249999955296516,0.030249999836087227,0.004812499973922968
1779997172156667100,7.083667236328125,0.007012499962002039,0.5860249996185303,0.006049999967217445
1779997172173943800,7.10094384765625,0.010587500408291817,0.8035500049591064,0.014574999921023846
1779997172191220200,7.11822021484375,0.008249999955296516,0.5542625188827515,0.014574999921023846
1779997172208496600,7.13549658203125,0.0008249999955296516,-0.03946249932050705,-0.002612499985843897
1779997172225773300,7.152773193359375,-0.007699999958276749,-0.606374979019165,-0.0147124994546175
1779997172243050000,7.170050048828125,-0.011412499472498894,-0.7981874942779541,-0.01718750037252903
1779997172260326400,7.187326416015625,-0.007699999958276749,-0.5244249701499939,-0.00494999997317791
1779997172277602800,7.204602783203125,0.0008249999955296516,0.04853750020265579,0.0035749999806284904
1779997172294879200,7.221879150390625,0.007012499962002039,0.5909749865531921,0.004812499973922968
1779997172312156000,7.239156005859375,0.010587500408291817,0.7913125157356262,0.015812499448657036
1779997172329432600,7.2564326171875,0.007012499962002039,0.5322625041007996,0.013337500393390656
1779997172346708700,7.273708740234375,-0.0015124999918043613,-0.05898749828338623,-0.002612499985843897
1779997172363985400,7.2909853515625,-0.008937500417232513,-0.6099500060081482,-0.01347499992698431
1779997172381261800,7.30826171875,-0.011412499472498894,-0.7847124934196472,-0.015949999913573265
1779997172398538200,7.325538330078125,-0.007974999956786633,-0.5024250149726868,-0.0037124999798834324
1779997172415815000,7.34281494140625,0.0005499999970197678,0.0644875019788742,0.0037124999798834324
1779997172433091600,7.360091552734375,0.007974999956786633,0.5946875214576721,0.006049999967217445
1779997172450367700,7.37736767578125,0.009212499484419823,0.779212474822998,0.0147124994546175
1779997172467644400,7.39464453125,0.006737499963492155,0.5091624855995178,0.01223750039935112
1779997172484920800,7.4119208984375,-0.0017874999903142452,-0.07479999959468842,-0.0012374999932944775
1779997172502197200,7.429197265625,-0.009212499484419823,-0.6111875176429749,-0.0147124994546175
1779997172519474000,7.446473876953125,-0.010449999943375587,-0.7712374925613403,-0.01347499992698431
1779997172536750300,7.463750244140625,-0.005499999970197678,-0.4828999936580658,-0.00494999997317791
1779997172554027000,7.481027099609375,0.0005499999970197678,0.08153750002384186,0.00494999997317791
1779997172571303400,7.498303466796875,0.007974999956786633,0.5946875214576721,0.007287499960511923
1779997172588579800,7.515579833984375,0.010449999943375587,0.7645000219345093,0.01347499992698431
1779997172605856500,7.5328564453125,0.006737499963492155,0.4883999824523926,0.01347499992698431
1779997172623133000,7.5501328125,-0.0005499999970197678,-0.0919874981045723,-0.00494999997317791
1779997172640409600,7.56740966796875,-0.007974999956786633,-0.6124249696731567,-0.0147124994546175
1779997172657686000,7.58468603515625,-0.010449999943375587,-0.7565249800682068,-0.0147124994546175
1779997172674962700,7.601962646484375,-0.006737499963492155,-0.4609000086784363,-0.002474999986588955
1779997172692238800,7.61923876953125,-0.0005499999970197678,0.09872499853372574,0.0037124999798834324
1779997172709515500,7.636515625,0.006737499963492155,0.5971624851226807,0.007287499960511923
1779997172726792200,7.653792236328125,0.009212499484419823,0.7497875094413757,0.01347499992698431
1779997172744068400,7.671068359375,0.005499999970197678,0.46639999747276306,0.01223750039935112
1779997172761345000,7.688344970703125,-0.0017874999903142452,-0.10656250268220901,-0.0037124999798834324
1779997172778621400,7.705621337890625,-0.007974999956786633,-0.6099500060081482,-0.015812499448657036
1779997172795897900,7.72289794921875,-0.009212499484419823,-0.7418124675750732,-0.010999999940395355
1779997172813174500,7.740174560546875,-0.005499999970197678,-0.4413749873638153,-0.006049999967217445
1779997172830451000,7.757450927734375,0.0005499999970197678,0.11082500219345093,0.007287499960511923
1779997172847727400,7.774727294921875,0.006737499963492155,0.595924973487854,0.00494999997317791
1779997172865004000,7.792004150390625,0.009212499484419823,0.7375500202178955,0.015949999913573265
1779997172882280700,7.80928076171875,0.005499999970197678,0.44811248779296875,0.010999999940395355
1779997172899557000,7.82655712890625,-0.0017874999903142452,-0.12127500027418137,-0.0037124999798834324
1779997172916833500,7.84383349609375,-0.009212499484419823,-0.6111875176429749,-0.0147124994546175
1779997172934110000,7.86110986328125,-0.010312499478459358,-0.7297124862670898,-0.01223750039935112
1779997172951386600,7.87838671875,-0.006737499963492155,-0.4218499958515167,-0.0037124999798834324
1779997172968663300,7.895663330078125,0.0005499999970197678,0.12430000305175781,0.0037124999798834324
1779997172985939700,7.912939697265625,0.006737499963492155,0.5971624851226807,0.0085249999538064
1779997173003216100,7.930216064453125,0.007974999956786633,0.7229750156402588,0.01347499992698431
1779997173020492800,7.947492919921875,0.005499999970197678,0.4273499846458435,0.01223750039935112
1779997173037769200,7.964769287109375,-0.0017874999903142452,-0.1358499974012375,-0.006049999967217445
1779997173055045600,7.982045654296875,-0.009212499484419823,-0.6111875176429749,-0.0147124994546175
1779997173072322300,7.999322265625,-0.010312499478459358,-0.7149999737739563,-0.01347499992698431
1779997173089598700,8.0165986328125,-0.005499999970197678,-0.4021874964237213,-0.0037124999798834324
1779997173106875100,8.033875244140624,0.0005499999970197678,0.13901250064373016,0.00494999997317791
1779997173124151800,8.05115185546875,0.006737499963492155,0.5971624851226807,0.007287499960511923
1779997173141428200,8.06842822265625,0.009212499484419823,0.7107374668121338,0.015949999913573265
1779997173158705000,8.085704833984375,0.005499999970197678,0.40658751130104065,0.00976249948143959
1779997173175981300,8.102981201171875,-0.0030249999836087227,-0.14932499825954437,-0.0037124999798834324
1779997173193258000,8.120258056640624,-0.007974999956786633,-0.6099500060081482,-0.0147124994546175
1779997173210534400,8.137534423828125,-0.007974999956786633,-0.7002875208854675,-0.01347499992698431
1779997173227811000,8.15481103515625,-0.0042624999769032,-0.38266250491142273,-0.0037124999798834324
1779997173245087200,8.172087158203125,0.0030249999836087227,0.15358750522136688,0.00494999997317791
1779997173262364000,8.189364013671875,0.009212499484419823,0.5971624851226807,0.0085249999538064
1779997173279640300,8.206640380859374,0.009212499484419823,0.696025013923645,0.01347499992698431
1779997173296917000,8.2239169921875,0.0042624999769032,0.38692501187324524,0.010999999940395355
1779997173314193400,8.241193359375,-0.0030249999836087227,-0.16403749585151672,-0.0037124999798834324
1779997173331469800,8.2584697265625,-0.007974999956786633,-0.6099500060081482,-0.015812499448657036
1779997173348746200,8.275746337890626,-0.010312499478459358,-0.6844750046730042,-0.00976249948143959
1779997173366023000,8.29302294921875,-0.006737499963492155,-0.3619000017642975,-0.0037124999798834324
1779997173383299600,8.310299560546875,0.0017874999903142452,0.1658249944448471,0.006049999967217445
1779997173400576000,8.327575927734374,0.008249999955296516,0.5970249772071838,0.006049999967217445
1779997173417852400,8.344852294921875,0.008249999955296516,0.6825500130653381,0.014574999921023846
1779997173435129000,8.362129150390626,0.0057749999687075615,0.36739999055862427,0.008387500420212746
1779997173452405500,8.379405517578125,-0.0015124999918043613,-0.1775124967098236,-0.006187499966472387
1779997173469682000,8.396681884765625,-0.007699999958276749,-0.6087124943733215,-0.01347499992698431
1779997173486958600,8.41395849609375,-0.008937500417232513,-0.6711375117301941,-0.012374999932944775
1779997173504235300,8.4312353515625,-0.003987499978393316,-0.3436124920845032,-0.0037124999798834324
1779997173521511400,8.448511474609376,0.0032999999821186066,0.18039999902248383,0.004812499973922968
1779997173538788000,8.4657880859375,0.007012499962002039,0.5970249772071838,0.006049999967217445
1779997173556064500,8.483064453125,0.008249999955296516,0.6679750084877014,0.015812499448657036
1779997173573341000,8.5003408203125,0.004537499975413084,0.346637487411499,0.006049999967217445
1779997173590617600,8.51761767578125,-0.002749999985098839,-0.19222499430179596,-0.0037124999798834324
1779997173607894000,8.53489404296875,-0.007699999958276749,-0.606374979019165,-0.0147124994546175
1779997173625170700,8.552170654296875,-0.006462499964982271,-0.6564249992370605,-0.00989999994635582
1779997173642447000,8.569447021484375,-0.002749999985098839,-0.3265624940395355,-0.00494999997317791
1779997173659723500,8.5867236328125,0.0032999999821186066,0.19016249477863312,0.004812499973922968
1779997173677000200,8.604000244140625,0.008249999955296516,0.5945500135421753,0.007287499960511923
1779997173694276600,8.621276611328126,0.010724999941885471,0.6545000076293945,0.014574999921023846
1779997173711553000,8.638552978515625,0.0057749999687075615,0.32945001125335693,0.007287499960511923
1779997173728829700,8.65582958984375,-0.0015124999918043613,-0.2032250016927719,-0.00494999997317791
1779997173746106000,8.673106201171874,-0.008937500417232513,-0.606374979019165,-0.015949999913573265
1779997173763382500,8.690382568359375,-0.008937500417232513,-0.6429499983787537,-0.008662499487400055
1779997173780659200,8.7076591796875,-0.002749999985098839,-0.3082749843597412,-0.0037124999798834324
1779997173797935600,8.724935546875,0.0032999999821186066,0.20363749563694,0.006049999967217445
1779997173815212000,8.7422119140625,0.007012499962002039,0.5945500135421753,0.009624999947845936
1779997173832488700,8.75948876953125,0.008249999955296516,0.6410250067710876,0.01209999993443489
1779997173849765400,8.776765380859375,0.0032999999821186066,0.30992498993873596,0.009624999947845936
1779997173867041500,8.79404150390625,-0.002749999985098839,-0.2153249979019165,-0.008662499487400055
1779997173884318200,8.811318115234375,-0.007699999958276749,-0.6026625037193298,-0.01347499992698431
1779997173901595000,8.828594970703126,-0.007974999956786633,-0.6282374858856201,-0.00976249948143959
1779997173918871000,8.84587109375,-0.0042624999769032,-0.28984999656677246,-0.0037124999798834324
1779997173936147700,8.863147705078125,0.0017874999903142452,0.21353749930858612,0.006049999967217445
1779997173953424400,8.88042431640625,0.006737499963492155,0.5909749865531921,0.007287499960511923
1779997173970700800,8.89770068359375,0.007974999956786633,0.6276875138282776,0.0147124994546175
1779997173987977200,8.914977294921876,0.0042624999769032,0.2928749918937683,0.006049999967217445
1779997174005254000,8.93225390625,-0.0030249999836087227,-0.22632500529289246,-0.007287499960511923
1779997174022530300,8.9495302734375,-0.007974999956786633,-0.6001874804496765,-0.01347499992698431
1779997174039807000,8.966806884765624,-0.009212499484419823,-0.6147624850273132,-0.00976249948143959
1779997174057083400,8.98408349609375,-0.0030249999836087227,-0.2727999985218048,-0.0012374999932944775
1779997174074359800,9.00135986328125,0.0030249999836087227,0.2232999950647354,0.0037124999798834324
1779997174091636500,9.018636474609375,0.009212499484419823,0.5885000228881836,0.0085249999538064
1779997174108913000,9.035912841796875,0.006737499963492155,0.6142125129699707,0.01347499992698431
1779997174126189600,9.053189453125,0.0030249999836087227,0.2745875120162964,0.007287499960511923
1779997174143466000,9.070466064453125,-0.0030249999836087227,-0.23485000431537628,-0.006049999967217445
1779997174160742400,9.087742431640624,-0.007974999956786633,-0.5952374935150146,-0.0147124994546175
1779997174178018800,9.105018798828125,-0.006737499963492155,-0.6001874804496765,-0.0085249999538064
1779997174195295500,9.12229541015625,-0.0030249999836087227,-0.256850004196167,-0.002474999986588955
1779997174212572200,9.139572265625,0.0030249999836087227,0.23182499408721924,0.00494999997317791
1779997174229848600,9.1568486328125,0.006737499963492155,0.5849249958992004,0.0085249999538064
1779997174247125000,9.174125,0.006737499963492155,0.5995000004768372,0.010999999940395355
1779997174264401700,9.191401611328125,0.0017874999903142452,0.25753748416900635,0.007287499960511923
1779997174281678300,9.20867822265625,-0.0042624999769032,-0.24461250007152557,-0.006049999967217445
1779997174298954800,9.225954833984375,-0.009212499484419823,-0.5904250144958496,-0.0147124994546175
1779997174316231200,9.243231201171875,-0.007974999956786633,-0.585474967956543,-0.0085249999538064
1779997174333507600,9.260507568359374,-0.0030249999836087227,-0.2410375028848648,-0.002474999986588955
1779997174350784300,9.2777841796875,0.0030249999836087227,0.24034999310970306,0.006049999967217445
1779997174368060700,9.295060791015626,0.007974999956786633,0.5836874842643738,0.007287499960511923
1779997174385337300,9.31233740234375,0.007974999956786633,0.5861625075340271,0.01223750039935112
1779997174402613800,9.32961376953125,0.004537499975413084,0.24034999310970306,0.007287499960511923
1779997174419890200,9.34689013671875,-0.002749999985098839,-0.25575000047683716,-0.008662499487400055
1779997174437166800,9.364166748046875,-0.007699999958276749,-0.5879499912261963,-0.01347499992698431
1779997174454443300,9.381443359375,-0.007699999958276749,-0.5721374750137329,-0.011137500405311584
1779997174471720000,9.398719970703125,-0.002749999985098839,-0.2250874936580658,-0.00013749999925494194
1779997174488996000,9.41599609375,0.0032999999821186066,0.25011250376701355,0.004812499973922968
1779997174506272800,9.433272705078124,0.007012499962002039,0.5799750089645386,0.008387500420212746
1779997174523549200,9.450549072265625,0.007012499962002039,0.5726875066757202,0.013337500393390656
1779997174540825900,9.467825927734374,0.002062499988824129,0.22439999878406525,0.004812499973922968
1779997174558102300,9.485102294921875,-0.003987499978393316,-0.2630375027656555,-0.006187499966472387
1779997174575379000,9.50237890625,-0.008937500417232513,-0.5831375122070312,-0.0147124994546175
1779997174592655000,9.519655029296874,-0.007699999958276749,-0.558662474155426,-0.007424999959766865
1779997174609931800,9.536931884765625,-0.002749999985098839,-0.21051250398159027,-0.0013749999925494194
1779997174627208400,9.55420849609375,0.0032999999821186066,0.2586374878883362,0.006049999967217445
1779997174644484900,9.57148486328125,0.007012499962002039,0.5762624740600586,0.008387500420212746
1779997174661761300,9.58876123046875,0.008249999955296516,0.56045001745224,0.01209999993443489
1779997174679038000,9.606037841796875,0.002062499988824129,0.20858749747276306,0.006049999967217445
1779997174696314400,9.623314453125,-0.003987499978393316,-0.27156248688697815,-0.006187499966472387
1779997174713590800,9.6405908203125,-0.008937500417232513,-0.5794249773025513,-0.012374999932944775
1779997174730867500,9.657867431640625,-0.006462499964982271,-0.5451874732971191,-0.007424999959766865
1779997174748144000,9.67514404296875,-0.002749999985098839,-0.19580000638961792,-0.002612499985843897
1779997174765420500,9.692420654296875,0.0032999999821186066,0.2671625018119812,0.006049999967217445
1779997174782697000,9.709697021484375,0.007012499962002039,0.5726875066757202,0.009624999947845936
1779997174799973600,9.7269736328125,0.007012499962002039,0.5457375049591064,0.01209999993443489
1779997174817250300,9.744250244140625,0.0032999999821186066,0.1938749998807907,0.004812499973922968
1779997174834526500,9.7615263671875,-0.003987499978393316,-0.2788499891757965,-0.008662499487400055
1779997174851803100,9.77880322265625,-0.007699999958276749,-0.5746124982833862,-0.012374999932944775
1779997174869079600,9.79607958984375,-0.006462499964982271,-0.5318499803543091,-0.006187499966472387
1779997174886356200,9.813356201171874,-0.002749999985098839,-0.1812250018119812,-0.002612499985843897
1779997174903632600,9.830632568359375,0.0032999999821186066,0.2745875120162964,0.006049999967217445
1779997174920909300,9.847909423828124,0.007012499962002039,0.5702124834060669,0.008387500420212746
1779997174938185700,9.865185791015625,0.007012499962002039,0.5335000157356262,0.010862499475479126
1779997174955462400,9.88246240234375,0.002062499988824129,0.179299995303154,0.004812499973922968
1779997174972738600,9.899738525390624,-0.003987499978393316,-0.2862749993801117,-0.007424999959766865
1779997174990015200,9.91701513671875,-0.006462499964982271,-0.570900022983551,-0.01347499992698431
1779997175007292000,9.9342919921875,-0.006462499964982271,-0.5196124911308289,-0.007424999959766865
1779997175024568300,9.951568359375,-0.0015124999918043613,-0.16775000095367432,-0.00013749999925494194
1779997175041845000,9.968844970703126,0.0032999999821186066,0.28187498450279236,0.004812499973922968
1779997175059121400,9.986121337890625,0.007012499962002039,0.565262496471405,0.008387500420212746
1779997175076397800,10.003397705078125,0.007012499962002039,0.5200250148773193,0.009624999947845936
1779997175093674200,10.02067431640625,0.002062499988824129,0.16335000097751617,0.0035749999806284904
1779997175110951000,10.037950927734375,-0.003987499978393316,-0.29356250166893005,-0.008662499487400055
1779997175128227300,10.055227294921876,-0.007699999958276749,-0.567187488079071,-0.012374999932944775
1779997175145503700,10.072503662109375,-0.006462499964982271,-0.5073750019073486,-0.007424999959766865
1779997175162780400,10.089780517578125,-0.0015124999918043613,-0.15303750336170197,-0.0013749999925494194
1779997175180057000,10.10705712890625,0.0032999999821186066,0.2891624867916107,0.006049999967217445
1779997175197333500,10.12433349609375,0.007012499962002039,0.5616874694824219,0.009624999947845936
1779997175214610000,10.14160986328125,0.007012499962002039,0.5066875219345093,0.01209999993443489
1779997175231886600,10.158886474609375,0.002062499988824129,0.14863750338554382,0.0035749999806284904
1779997175249163300,10.176163330078126,-0.003987499978393316,-0.29961249232292175,-0.008662499487400055
1779997175266439400,10.193439453125,-0.007699999958276749,-0.5611374974250793,-0.011137500405311584
1779997175283716000,10.210716064453125,-0.006462499964982271,-0.4926624894142151,-0.006187499966472387
1779997175300992800,10.22799267578125,-0.0015124999918043613,-0.1396999955177307,-0.0013749999925494194
1779997175318269200,10.245269287109375,0.0032999999821186066,0.29411250352859497,0.006049999967217445
1779997175335545600,10.262545654296876,0.007012499962002039,0.55673748254776,0.008387500420212746
1779997175352822300,10.279822265625,0.007012499962002039,0.49321249127388,0.009624999947845936
1779997175370098700,10.2970986328125,0.002062499988824129,0.13529999554157257,0.0035749999806284904
1779997175387375000,10.314375,-0.003987499978393316,-0.30703750252723694,-0.008662499487400055
1779997175404651800,10.33165185546875,-0.007699999958276749,-0.5561875104904175,-0.011137500405311584
1779997175421928400,10.348928466796876,-0.006462499964982271,-0.47932499647140503,-0.006187499966472387
1779997175439204600,10.36620458984375,-0.0015124999918043613,-0.12622499465942383,-0.0013749999925494194
1779997175456481300,10.383481201171875,0.004537499975413084,0.30016249418258667,0.007287499960511923
1779997175473757700,10.4007578125,0.007012499962002039,0.5517874956130981,0.009624999947845936
1779997175491034400,10.418034423828125,0.0057749999687075615,0.4797374904155731,0.010862499475479126
1779997175508310800,10.435310791015626,0.002062499988824129,0.12182500213384628,0.002337499987334013
1779997175525587500,10.45258740234375,-0.005224999971687794,-0.31185001134872437,-0.008662499487400055
1779997175542864000,10.46986376953125,-0.008937500417232513,-0.5526124835014343,-0.011137500405311584
1779997175560140300,10.487140380859374,-0.007699999958276749,-0.4683249890804291,-0.007424999959766865
1779997175577417000,10.5044169921875,-0.0015124999918043613,-0.11275000125169754,-0.00013749999925494194
1779997175594693400,10.521693359375,0.004537499975413084,0.3063499927520752,0.004812499973922968
1779997175611970000,10.538969970703125,0.007012499962002039,0.5469750165939331,0.009624999947845936
1779997175629246500,10.55624658203125,0.007012499962002039,0.46639999747276306,0.010862499475479126
1779997175646523000,10.57352294921875,0.002062499988824129,0.1083500012755394,0.002337499987334013
1779997175663799600,10.590799560546875,-0.003987499978393316,-0.3180375099182129,-0.007424999959766865
1779997175681076000,10.608075927734374,-0.006462499964982271,-0.5451874732971191,-0.011137500405311584
1779997175698352400,10.625352294921875,-0.005224999971687794,-0.4536125063896179,-0.007424999959766865
1779997175715629000,10.642629150390626,-0.0004124999977648258,-0.10051249712705612,-0.0013749999925494194
1779997175732905700,10.65990576171875,0.004537499975413084,0.3111625015735626,0.006049999967217445
1779997175750182000,10.677181884765625,0.007012499962002039,0.5420249700546265,0.008387500420212746
1779997175767458600,10.69445849609375,0.0057749999687075615,0.4529249966144562,0.009624999947845936
1779997175784735200,10.7117353515625,0.0008249999955296516,0.09487500041723251,0.0035749999806284904
1779997175802011400,10.729011474609376,-0.005224999971687794,-0.3205125033855438,-0.00989999994635582
1779997175819288000,10.7462880859375,-0.007699999958276749,-0.5403749942779541,-0.011137500405311584
1779997175836564700,10.763564697265625,-0.005224999971687794,-0.4413749873638153,-0.008662499487400055
1779997175853841400,10.78084130859375,-0.0015124999918043613,-0.08703749626874924,0.0010999999940395355
1779997175871117600,10.79811767578125,0.004537499975413084,0.3161124885082245,0.004812499973922968
1779997175888394200,10.815394287109376,0.007012499962002039,0.5347374677658081,0.009624999947845936
1779997175905671000,10.8326708984375,0.0057749999687075615,0.44068750739097595,0.009624999947845936
1779997175922947000,10.849947021484375,0.0008249999955296516,0.08277499675750732,0.0010999999940395355
1779997175940223700,10.8672236328125,-0.003987499978393316,-0.3240875005722046,-0.008662499487400055
1779997175957500400,10.88450048828125,-0.006462499964982271,-0.5330874919891357,-0.011137500405311584
1779997175974776800,10.90177685546875,-0.005224999971687794,-0.4291374981403351,-0.00494999997317791
1779997175992053200,10.91905322265625,-0.0004124999977648258,-0.07493750005960464,-0.00013749999925494194
1779997176009330000,10.936329833984376,0.004537499975413084,0.3209249973297119,0.007287499960511923
1779997176026606600,10.953606689453125,0.007012499962002039,0.5286874771118164,0.008387500420212746
1779997176043882800,10.9708828125,0.007012499962002039,0.42721250653266907,0.008387500420212746
1779997176061159400,10.988159423828124,0.0008249999955296516,0.07177499681711197,0.002337499987334013
1779997176078436000,11.00543603515625,-0.003987499978393316,-0.3302749991416931,-0.008662499487400055
1779997176095712500,11.02271240234375,-0.006462499964982271,-0.5268999934196472,-0.00989999994635582
1779997176112989000,11.039989013671875,-0.005224999971687794,-0.41690000891685486,-0.006187499966472387
1779997176130265600,11.057265625,-0.0016499999910593033,-0.06393750011920929,-0.00013749999925494194
1779997176147542000,11.0745419921875,0.0032999999821186066,0.32339999079704285,0.006049999967217445
1779997176164818400,11.091818359375,0.0057749999687075615,0.5224999785423279,0.008387500420212746
1779997176182095000,11.10909521484375,0.004537499975413084,0.4137375056743622,0.009624999947845936
1779997176199371500,11.12637158203125,0.0008249999955296516,0.05953750014305115,0.002337499987334013
1779997176216648000,11.14364794921875,-0.005224999971687794,-0.3326124846935272,-0.008662499487400055
1779997176233924600,11.160924560546874,-0.006462499964982271,-0.5220875144004822,-0.00989999994635582
1779997176251201000,11.178200927734375,-0.005224999971687794,-0.40232500433921814,-0.006187499966472387
1779997176268477700,11.195477783203126,-0.0016499999910593033,-0.05169999971985817,-0.00013749999925494194
1779997176285754000,11.212754150390625,0.0032999999821186066,0.32711249589920044,0.004812499973922968
1779997176303030800,11.23003076171875,0.007012499962002039,0.5164499878883362,0.009624999947845936
1779997176320307200,11.24730712890625,0.004537499975413084,0.40287500619888306,0.009624999947845936
1779997176337583900,11.264583984375,0.0008249999955296516,0.04853750020265579,0.002337499987334013
1779997176354860300,11.2818603515625,-0.003987499978393316,-0.33508750796318054,-0.008662499487400055
1779997176372136700,11.29913671875,-0.006462499964982271,-0.514662504196167,-0.00989999994635582
1779997176389413400,11.316413330078126,-0.005224999971687794,-0.3900874853134155,-0.00494999997317791
1779997176406690000,11.33368994140625,-0.0004124999977648258,-0.04193750023841858,0.0010999999940395355
1779997176423966200,11.35096630859375,0.004537499975413084,0.3306874930858612,0.006049999967217445
1779997176441243000,11.368242919921874,0.007012499962002039,0.5102624893188477,0.008387500420212746
1779997176458519300,11.385519287109375,0.0057749999687075615,0.39063748717308044,0.009624999947845936
1779997176475796000,11.4027958984375,0.0008249999955296516,0.03753750026226044,0.0010999999940395355
1779997176493072400,11.420072265625,-0.003987499978393316,-0.33880001306533813,-0.008662499487400055
1779997176510349000,11.43734912109375,-0.006462499964982271,-0.5086125135421753,-0.008662499487400055
1779997176527625500,11.45462548828125,-0.005224999971687794,-0.37908750772476196,-0.006187499966472387
1779997176544902000,11.47190185546875,-0.0004124999977648258,-0.030937500298023224,0.002337499987334013
1779997176562178600,11.489178466796876,0.004537499975413084,0.33316248655319214,0.006049999967217445
1779997176579455200,11.506455322265625,0.0057749999687075615,0.504212498664856,0.009624999947845936
1779997176596732000,11.52373193359375,0.004537499975413084,0.37716248631477356,0.008387500420212746
1779997176614008000,11.541008056640624,0.0008249999955296516,0.026537500321865082,-0.00013749999925494194
1779997176631284700,11.55828466796875,-0.003987499978393316,-0.34127500653266907,-0.008662499487400055
1779997176648561200,11.57556103515625,-0.006462499964982271,-0.5011875033378601,-0.00989999994635582
1779997176665837800,11.592837890625,-0.005224999971687794,-0.3656125068664551,-0.00494999997317791
1779997176683114200,11.6101142578125,-0.0004124999977648258,-0.021175000816583633,0.0010999999940395355
1779997176700391000,11.627390869140624,0.004537499975413084,0.33687499165534973,0.006049999967217445
1779997176717667300,11.644667236328125,0.007012499962002039,0.49816250801086426,0.008387500420212746
1779997176734943700,11.66194384765625,0.004537499975413084,0.36616250872612,0.007287499960511923
1779997176752220400,11.679220458984375,-0.0004124999977648258,0.015537500381469727,-0.00013749999925494194
1779997176769496800,11.696496826171876,-0.005224999971687794,-0.3436124920845032,-0.008662499487400055
1779997176786773500,11.7137734375,-0.007699999958276749,-0.495137482881546,-0.008662499487400055
1779997176804050000,11.7310498046875,-0.005224999971687794,-0.3546124994754791,-0.006187499966472387
1779997176821326300,11.748326416015624,-0.0004124999977648258,-0.011412499472498894,0.002337499987334013
1779997176838603000,11.76560302734375,0.004537499975413084,0.33934998512268066,0.007287499960511923
1779997176855879400,11.78287939453125,0.0057749999687075615,0.4907374978065491,0.008387500420212746
1779997176873155800,11.80015576171875,0.004537499975413084,0.3539249897003174,0.008387500420212746
1779997176890432500,11.8174326171875,-0.0004124999977648258,0.0057749999687075615,-0.00013749999925494194
1779997176907709000,11.834708984375,-0.003987499978393316,-0.3460874855518341,-0.008662499487400055
1779997176924985600,11.851985595703125,-0.006462499964982271,-0.48785001039505005,-0.008662499487400055
1779997176942262000,11.869261962890626,-0.003987499978393316,-0.3436124920845032,-0.00494999997317791
1779997176959538400,11.886538330078125,-0.0004124999977648258,-0.0004124999977648258,0.0010999999940395355
1779997176976815000,11.903815185546875,0.004537499975413084,0.34168750047683716,0.006049999967217445
1779997176994091500,11.921091552734374,0.0057749999687075615,0.4846875071525574,0.008387500420212746
1779997177011368200,11.9383681640625,0.004537499975413084,0.3429250121116638,0.007287499960511923
1779997177028644600,11.95564453125,0.0008249999955296516,-0.003987499978393316,-0.00013749999925494194
1779997177045921000,11.972921142578125,-0.003987499978393316,-0.3485625088214874,-0.008662499487400055
1779997177063197700,11.99019775390625,-0.005224999971687794,-0.4816625118255615,-0.008662499487400055
1779997177080474000,12.00747412109375,-0.0028874999843537807,-0.33137500286102295,-0.00494999997317791
1779997177097750500,12.02475048828125,0.0008249999955296516,0.009487500414252281,0.0010999999940395355
1779997177115027200,12.042027099609374,0.0057749999687075615,0.3429250121116638,0.006049999967217445
1779997177132304000,12.059303955078125,0.007012499962002039,0.477400004863739,0.008387500420212746
1779997177149580300,12.076580322265626,0.004537499975413084,0.33192500472068787,0.007287499960511923
1779997177166856700,12.093856689453125,-0.0004124999977648258,-0.01251249946653843,-0.0013749999925494194
1779997177184133000,12.111133056640625,-0.005224999971687794,-0.3485625088214874,-0.008662499487400055
1779997177201409800,12.128409912109374,-0.007699999958276749,-0.47437500953674316,-0.00989999994635582
1779997177218686200,12.145686279296875,-0.006462499964982271,-0.320374995470047,-0.0037124999798834324
1779997177235963000,12.162962890625,-0.0004124999977648258,0.018012499436736107,0.0010999999940395355
1779997177253239300,12.1802392578125,0.004537499975413084,0.34540000557899475,0.006049999967217445
1779997177270516000,12.197515869140625,0.0057749999687075615,0.4712125062942505,0.008387500420212746
1779997177287792400,12.21479248046875,0.0032999999821186066,0.31968748569488525,0.007287499960511923
1779997177305069000,12.232069091796875,0.0008249999955296516,-0.02227500081062317,-0.00013749999925494194
1779997177322345500,12.249345458984376,-0.005224999971687794,-0.3497999906539917,-0.00989999994635582
1779997177339622100,12.2666220703125,-0.006462499964982271,-0.46584999561309814,-0.007424999959766865
1779997177356898600,12.283898681640625,-0.003987499978393316,-0.30937498807907104,-0.00494999997317791
1779997177374175200,12.30117529296875,-0.0004124999977648258,0.026537500321865082,0.002337499987334013
1779997177391451600,12.31845166015625,0.004537499975413084,0.346637487411499,0.006049999967217445
1779997177408728000,12.33572802734375,0.005499999970197678,0.46392500400543213,0.00976249948143959
1779997177426004700,12.353004638671875,0.0030249999836087227,0.30758750438690186,0.006049999967217445
1779997177443281200,12.37028125,-0.0005499999970197678,-0.03203750029206276,0
1779997177460557600,12.3875576171875,-0.0042624999769032,-0.35089999437332153,-0.0085249999538064
1779997177477834200,12.404834228515625,-0.006737499963492155,-0.4609000086784363,-0.0085249999538064
1779997177495111000,12.42211083984375,-0.0042624999769032,-0.2983750104904175,-0.0037124999798834324
1779997177512387000,12.439386962890625,0.0005499999970197678,0.03506249934434891,0.0012374999932944775
1779997177529663700,12.456663818359376,0.005499999970197678,0.3478749990463257,0.007287499960511923
1779997177546940400,12.4739404296875,0.007974999956786633,0.45663750171661377,0.0085249999538064
1779997177564217000,12.491217041015625,0.0042624999769032,0.29782500863075256,0.007287499960511923
1779997177581493200,12.5084931640625,-0.0005499999970197678,-0.03932499885559082,0
1779997177598770000,12.52577001953125,-0.005499999970197678,-0.35089999437332153,-0.007287499960511923
1779997177616046600,12.543046630859376,-0.006737499963492155,-0.4511374831199646,-0.007287499960511923
1779997177633323000,12.560322998046875,-0.0042624999769032,-0.28737500309944153,-0.00494999997317791
1779997177650599400,12.577599365234375,-0.0005499999970197678,0.04372499883174896,0.002474999986588955
1779997177667876000,12.5948759765625,0.0042624999769032,0.3478749990463257,0.006049999967217445
1779997177685152800,12.61215283203125,0.005499999970197678,0.4493499994277954,0.0085249999538064
1779997177702429200,12.62942919921875,0.0030249999836087227,0.28558748960494995,0.00494999997317791
1779997177719705600,12.64670556640625,-0.0005499999970197678,-0.047987498342990875,0
1779997177736982000,12.66398193359375,-0.0042624999769032,-0.35089999437332153,-0.00976249948143959
1779997177754258700,12.6812587890625,-0.0042624999769032,-0.4437125027179718,-0.007287499960511923
1779997177771535000,12.69853515625,-0.0030249999836087227,-0.27761250734329224,-0.00494999997317791
1779997177788811800,12.715811767578124,0.0005499999970197678,0.04977500066161156,0.002474999986588955
1779997177806088200,12.733088134765625,0.0042624999769032,0.3478749990463257,0.006049999967217445
1779997177823364900,12.75036474609375,0.006737499963492155,0.4431625008583069,0.007287499960511923
1779997177840641300,12.767641357421875,0.0042624999769032,0.27582499384880066,0.006049999967217445
1779997177857917700,12.784917724609375,-0.0017874999903142452,-0.055275000631809235,-0.002474999986588955
1779997177875194400,12.8021943359375,-0.005499999970197678,-0.35089999437332153,-0.007287499960511923
1779997177892470800,12.819470703125,-0.006737499963492155,-0.4376625120639801,-0.007287499960511923
1779997177909747500,12.83674755859375,-0.003987499978393316,-0.26551249623298645,-0.0037124999798834324
1779997177927023900,12.85402392578125,0.0008249999955296516,0.05829999968409538,0.0010999999940395355
1779997177944300300,12.87130029296875,0.004537499975413084,0.3478749990463257,0.006049999967217445
1779997177961577000,12.888576904296874,0.0057749999687075615,0.4357374906539917,0.007287499960511923
1779997177978853600,12.905853515625,0.0032999999821186066,0.26468750834465027,0.006049999967217445
1779997177996130000,12.923130126953126,-0.0015124999918043613,-0.06393750011920929,-0.0013749999925494194
1779997178013406500,12.940406494140625,-0.006462499964982271,-0.35227498412132263,-0.007424999959766865
1779997178030683100,12.95768310546875,-0.007699999958276749,-0.4291374981403351,-0.007424999959766865
1779997178047959600,12.97495947265625,-0.003987499978393316,-0.2569875121116638,-0.0037124999798834324
1779997178065236200,12.992236328125,0.0008249999955296516,0.06558749824762344,0.0010999999940395355
1779997178082512600,13.0095126953125,0.0032999999821186066,0.34911251068115234,0.006049999967217445
1779997178099789000,13.0267890625,0.004537499975413084,0.42844998836517334,0.008387500420212746
1779997178117065700,13.044065673828126,0.0032999999821186066,0.254925012588501,0.006049999967217445
1779997178134342100,13.061342041015624,-0.0002749999985098839,-0.07122500240802765,-0.0013749999925494194
1779997178151618800,13.078618896484375,-0.005224999971687794,-0.35103750228881836,-0.008662499487400055
1779997178168895200,13.095895263671874,-0.005224999971687794,-0.4218499958515167,-0.006187499966472387
1779997178186172000,13.113171875,-0.002749999985098839,-0.24598750472068787,-0.0037124999798834324
1779997178203448300,13.1304482421875,0.002062499988824129,0.0728750005364418,0.002337499987334013
1779997178220724700,13.147724853515625,0.0057749999687075615,0.34911251068115234,0.006049999967217445
1779997178238001400,13.16500146484375,0.007012499962002039,0.421162486076355,0.007287499960511923
1779997178255277800,13.18227783203125,0.004537499975413084,0.24392500519752502,0.004812499973922968
1779997178272554500,13.199554443359375,-0.0002749999985098839,-0.07727500051259995,-0.0013749999925494194
1779997178289831200,13.2168310546875,-0.003987499978393316,-0.35103750228881836,-0.008662499487400055
1779997178307107600,13.234107666015625,-0.005224999971687794,-0.415800005197525,-0.006187499966472387
1779997178324384000,13.251384033203125,-0.002749999985098839,-0.23498749732971191,-0.0037124999798834324
1779997178341660400,13.268660400390624,0.002062499988824129,0.08030000329017639,0.002337499987334013
1779997178358937000,13.28593701171875,0.004537499975413084,0.34911251068115234,0.006049999967217445
1779997178376213800,13.3032138671875,0.0057749999687075615,0.4137375056743622,0.009624999947845936
1779997178393490200,13.320490234375,0.0032999999821186066,0.23416249454021454,0.0035749999806284904
1779997178410766600,13.3377666015625,-0.0004124999977648258,-0.08470000326633453,-0.002612499985843897
1779997178428043300,13.355043212890624,-0.003987499978393316,-0.3497999906539917,-0.008662499487400055
1779997178445319700,13.372319580078125,-0.005224999971687794,-0.4071374833583832,-0.007424999959766865
1779997178462596000,13.38959619140625,-0.003987499978393316,-0.22632500529289246,-0.0037124999798834324
1779997178479872800,13.406872802734375,-0.0004124999977648258,0.08511249721050262,0.002337499987334013
1779997178497149400,13.4241494140625,0.0032999999821186066,0.3478749990463257,0.006049999967217445
1779997178514425900,13.44142578125,0.004537499975413084,0.4064500033855438,0.008387500420212746
1779997178531702300,13.458702392578125,0.002062499988824129,0.2256374955177307,0.004812499973922968
1779997178548979000,13.47597900390625,-0.0016499999910593033,-0.09075000137090683,-0.0013749999925494194
1779997178566255000,13.493255126953125,-0.005224999971687794,-0.3497999906539917,-0.008662499487400055
1779997178583531800,13.51053173828125,-0.005224999971687794,-0.4010874927043915,-0.007424999959766865
1779997178600808400,13.527808349609375,-0.0028874999843537807,-0.21779999136924744,-0.0037124999798834324
1779997178618085000,13.545085205078125,0.0008249999955296516,0.09253749996423721,0.002337499987334013
1779997178635361500,13.562361572265624,0.0057749999687075615,0.3478749990463257,0.006049999967217445
1779997178652638000,13.579637939453125,0.0057749999687075615,0.40039998292922974,0.007287499960511923
1779997178669914600,13.59691455078125,0.002062499988824129,0.21463750302791595,0.004812499973922968
1779997178687191300,13.61419140625,-0.0016499999910593033,-0.09803749620914459,-0.002612499985843897
1779997178704467500,13.631467529296875,-0.005224999971687794,-0.3497999906539917,-0.007424999959766865
1779997178721744100,13.648744140625,-0.005224999971687794,-0.3937999904155731,-0.006187499966472387
1779997178739020800,13.666020751953125,-0.0028874999843537807,-0.20803749561309814,-0.002612499985843897
1779997178756297200,13.683297119140626,0.0008249999955296516,0.09982500225305557,0.0035749999806284904
1779997178773573600,13.70057373046875,0.004537499975413084,0.3478749990463257,0.004812499973922968
1779997178790850300,13.717850341796876,0.004537499975413084,0.3918749988079071,0.008387500420212746
1779997178808126700,13.735126708984374,0.002062499988824129,0.2073500007390976,0.004812499973922968
1779997178825403100,13.752403076171875,-0.0004124999977648258,-0.10422500222921371,-0.002612499985843897
1779997178842679800,13.7696796875,-0.005224999971687794,-0.3485625088214874,-0.007424999959766865
1779997178859956500,13.78695654296875,-0.005224999971687794,-0.3876124918460846,-0.007424999959766865
1779997178877232600,13.804232666015626,-0.0028874999843537807,-0.1970375031232834,-0.002612499985843897
1779997178894509300,13.82150927734375,0.002062499988824129,0.10587500035762787,0.002337499987334013
1779997178911786000,13.838785888671875,0.004537499975413084,0.346637487411499,0.007287499960511923
1779997178929062100,13.856062255859374,0.004537499975413084,0.38321250677108765,0.007287499960511923
1779997178946338800,13.8733388671875,0.002062499988824129,0.19634999334812164,0.004812499973922968
1779997178963615500,13.890615478515626,-0.0015124999918043613,-0.10903749614953995,-0.002474999986588955
1779997178980892000,13.907891845703125,-0.005224999971687794,-0.34732499718666077,-0.007424999959766865
1779997178998168300,13.925168212890625,-0.005224999971687794,-0.38032498955726624,-0.006187499966472387
1779997179015445000,13.942445068359374,-0.0015124999918043613,-0.18975000083446503,-0.0037124999798834324
1779997179032721700,13.9597216796875,0.002062499988824129,0.10958749800920486,0.002337499987334013
1779997179049998000,13.976998046875,0.004537499975413084,0.34540000557899475,0.006049999967217445
1779997179067274500,13.9942744140625,0.0057749999687075615,0.37716248631477356,0.008387500420212746
1779997179084551200,14.01155126953125,0.0032999999821186066,0.18782499432563782,0.004812499973922968
1779997179101827300,14.028827392578124,-0.0004124999977648258,-0.113987497985363,-0.002474999986588955
1779997179119104000,14.04610400390625,-0.005224999971687794,-0.3460874855518341,-0.007424999959766865
1779997179136380700,14.063380615234376,-0.006462499964982271,-0.3730374872684479,-0.006187499966472387
1779997179153657300,14.0806572265625,-0.002749999985098839,-0.17998750507831573,-0.0037124999798834324
1779997179170933800,14.097933837890626,0.002062499988824129,0.11687500029802322,0.0035749999806284904
1779997179188210200,14.115210205078125,0.0032999999821186066,0.3429250121116638,0.006049999967217445
1779997179205486800,14.13248681640625,0.0032999999821186066,0.3698749840259552,0.007287499960511923
1779997179222763500,14.149763427734374,0.002062499988824129,0.17806249856948853,0.004812499973922968
1779997179240039700,14.167039794921875,-0.0015124999918043613,-0.12127500027418137,-0.0037124999798834324
1779997179257316400,14.18431640625,-0.003987499978393316,-0.3436124920845032,-0.006187499966472387
1779997179274593000,14.201593017578125,-0.003987499978393316,-0.3643749952316284,-0.006187499966472387
1779997179291869700,14.21886962890625,-0.0015124999918043613,-0.1714625060558319,-0.002474999986588955
1779997179309145900,14.236145751953124,0.002062499988824129,0.12182500213384628,0.002337499987334013
1779997179326422500,14.253422607421875,0.0057749999687075615,0.34168750047683716,0.006049999967217445
1779997179343699200,14.27069921875,0.0057749999687075615,0.3624500036239624,0.007287499960511923
1779997179360975400,14.287975341796875,0.002062499988824129,0.16940000653266907,0.004812499973922968
1779997179378252000,14.305251953125,-0.0015124999918043613,-0.12622499465942383,-0.0037124999798834324
1779997179395528700,14.32252880859375,-0.003987499978393316,-0.3423750102519989,-0.007424999959766865
1779997179412805400,14.339805419921875,-0.003987499978393316,-0.3583250045776367,-0.006187499966472387
1779997179430081800,14.357081787109376,-0.002749999985098839,-0.16279999911785126,-0.0013749999925494194
1779997179447358200,14.374358154296875,0.0008249999955296516,0.1266375035047531,0.0035749999806284904
1779997179464635000,14.391634765625,0.004537499975413084,0.3404499888420105,0.006049999967217445
1779997179481911300,14.408911376953125,0.004537499975413084,0.35516250133514404,0.007287499960511923
1779997179499188000,14.42618798828125,0.002062499988824129,0.16087499260902405,0.004812499973922968
1779997179516464400,14.44346435546875,-0.002749999985098839,-0.1297999918460846,-0.002612499985843897
1779997179533741000,14.460740966796875,-0.006462499964982271,-0.3423750102519989,-0.006187499966472387
1779997179551017500,14.478017578125,-0.005224999971687794,-0.35103750228881836,-0.006187499966472387
1779997179568294000,14.4952939453125,-0.002749999985098839,-0.15303750336170197,-0.0013749999925494194
1779997179585570600,14.512570556640625,0.0008249999955296516,0.1303499937057495,0.0035749999806284904
1779997179602847000,14.529846923828124,0.0032999999821186066,0.33934998512268066,0.006049999967217445
1779997179620123400,14.547123291015625,0.004537499975413084,0.3478749990463257,0.007287499960511923
1779997179637400000,14.564400146484376,0.0008249999955296516,0.15111249685287476,0.0035749999806284904
1779997179654676500,14.581676513671875,-0.0016499999910593033,-0.13598750531673431,-0.0037124999798834324
1779997179671953000,14.598952880859375,-0.005224999971687794,-0.3400374948978424,-0.007424999959766865
1779997179689229600,14.6162294921875,-0.003987499978393316,-0.3436124920845032,-0.006187499966472387
1779997179706506200,14.63350634765625,-0.0016499999910593033,-0.14451250433921814,-0.0013749999925494194
1779997179723782700,14.65078271484375,0.002062499988824129,0.13529999554157257,0.002337499987334013
1779997179741059000,14.66805908203125,0.004537499975413084,0.3381125032901764,0.006049999967217445
1779997179758335700,14.685335693359375,0.004537499975413084,0.33934998512268066,0.007287499960511923
1779997179775612200,14.702612060546874,0.002062499988824129,0.14258749783039093,0.0035749999806284904
1779997179792888800,14.719888916015625,-0.0016499999910593033,-0.14079999923706055,-0.002612499985843897
1779997179810165200,14.737165283203124,-0.003987499978393316,-0.33880001306533813,-0.007424999959766865
1779997179827442000,14.75444189453125,-0.003987499978393316,-0.33508750796318054,-0.006187499966472387
1779997179844718600,14.771718505859376,-0.0016499999910593033,-0.13598750531673431,-0.002612499985843897
1779997179861995000,14.7889951171875,0.002062499988824129,0.14135000109672546,0.0035749999806284904
1779997179879271400,14.806271484375,0.004537499975413084,0.33563750982284546,0.006049999967217445
1779997179896547800,14.8235478515625,0.004537499975413084,0.33316248655319214,0.006049999967217445
1779997179913824500,14.840824462890625,0.002062499988824129,0.13529999554157257,0.0035749999806284904
1779997179931101200,14.85810107421875,-0.0016499999910593033,-0.14451250433921814,-0.0037124999798834324
1779997179948377600,14.875377685546875,-0.004124999977648258,-0.3363249897956848,-0.006187499966472387
1779997179965654000,14.892654052734375,-0.004124999977648258,-0.3278000056743622,-0.006187499966472387
1779997179982930700,14.9099306640625,-0.0016499999910593033,-0.12856249511241913,-0.0013749999925494194
1779997180000207400,14.927207275390625,0.002062499988824129,0.14506250619888306,0.002337499987334013
1779997180017483800,14.94448388671875,0.0032999999821186066,0.33316248655319214,0.006049999967217445
1779997180034760400,14.961760498046875,0.0032999999821186066,0.3258749842643738,0.006049999967217445
1779997180052036900,14.979036865234375,0.0008249999955296516,0.12677499651908875,0.0035749999806284904
1779997180069313300,14.996313232421874,-0.0028874999843537807,-0.1494625061750412,-0.0037124999798834324
1779997180086590000,15.01358984375,-0.004124999977648258,-0.3338499963283539,-0.006187499966472387
1779997180103866600,15.03086669921875,-0.004124999977648258,-0.320374995470047,-0.00494999997317791
1779997180121142800,15.048142822265625,-0.0016499999910593033,-0.1200374960899353,-0.0013749999925494194
1779997180138419500,15.06541943359375,0.002062499988824129,0.1498750001192093,0.0035749999806284904
1779997180155695900,15.08269580078125,0.004537499975413084,0.33192500472068787,0.006049999967217445
1779997180172972500,15.09997265625,0.004537499975413084,0.31968748569488525,0.006049999967217445
1779997180190249000,15.1172490234375,0.002062499988824129,0.11811249703168869,0.002337499987334013
1779997180207525600,15.134525634765625,-0.0028874999843537807,-0.15303750336170197,-0.00494999997317791
1779997180224802000,15.151802001953126,-0.004124999977648258,-0.3326124846935272,-0.006187499966472387
1779997180242078700,15.16907861328125,-0.005224999971687794,-0.31308749318122864,-0.00494999997317791
1779997180259355100,15.186355224609375,-0.0016499999910593033,-0.11275000125169754,-0.00013749999925494194
1779997180276631800,15.2036318359375,0.002062499988824129,0.15358750522136688,0.0035749999806284904
1779997180293908500,15.220908447265625,0.0032999999821186066,0.3283500075340271,0.006049999967217445
1779997180311185000,15.238184814453126,0.0032999999821186066,0.3111625015735626,0.006049999967217445
1779997180328461300,15.25546142578125,0.0008249999955296516,0.10958749800920486,0.0035749999806284904
1779997180345738000,15.272738037109375,-0.0028874999843537807,-0.15798750519752502,-0.0037124999798834324
1779997180363014400,15.290014404296874,-0.004124999977648258,-0.32903748750686646,-0.007424999959766865
1779997180380290800,15.307290771484375,-0.004124999977648258,-0.3057999908924103,-0.00494999997317791
1779997180397567500,15.3245673828125,-0.0016499999910593033,-0.10422500222921371,-0.0013749999925494194
1779997180414844000,15.341843994140625,0.002062499988824129,0.15729999542236328,0.0035749999806284904
1779997180432120600,15.35912060546875,0.004537499975413084,0.32711249589920044,0.006049999967217445
1779997180449397000,15.37639697265625,0.0032999999821186066,0.30387499928474426,0.006049999967217445
1779997180466673700,15.393673583984375,0.0008249999955296516,0.10106249898672104,0.002337499987334013
1779997180483950000,15.4109501953125,-0.0028874999843537807,-0.1615625023841858,-0.0037124999798834324
1779997180501226500,15.4282265625,-0.004124999977648258,-0.3265624940395355,-0.006187499966472387
1779997180518503200,15.445503173828126,-0.0028874999843537807,-0.29961249232292175,-0.00494999997317791
1779997180535779800,15.46277978515625,-0.0004124999977648258,-0.09679999947547913,-0.00013749999925494194
1779997180553056300,15.48005615234375,0.002062499988824129,0.16087499260902405,0.0035749999806284904
1779997180570332700,15.497332763671874,0.004537499975413084,0.3246375024318695,0.006049999967217445
1779997180587609300,15.514609375,0.0032999999821186066,0.2965874969959259,0.006049999967217445
1779997180604885800,15.5318857421875,0.0008249999955296516,0.09501250088214874,0.002337499987334013
1779997180622162200,15.549162109375,-0.0016499999910593033,-0.1652749925851822,-0.00494999997317791
1779997180639438800,15.56643896484375,-0.005224999971687794,-0.3240875005722046,-0.006187499966472387
1779997180656715300,15.58371533203125,-0.005224999971687794,-0.2910875082015991,-0.00494999997317791
1779997180673992000,15.600991943359375,-0.0016499999910593033,-0.0882750004529953,-0.00013749999925494194
1779997180691268400,15.618268310546876,0.0008249999955296516,0.16458749771118164,0.0035749999806284904
1779997180708545000,15.635544921875,0.0032999999821186066,0.3221625089645386,0.006049999967217445
1779997180725821700,15.65282177734375,0.0032999999821186066,0.2891624867916107,0.004812499973922968
1779997180743098000,15.67009814453125,0.0008249999955296516,0.08635000139474869,0.002337499987334013
1779997180760374500,15.68737451171875,-0.0016499999910593033,-0.16775000095367432,-0.002612499985843897
1779997180777651200,15.704651123046874,-0.004124999977648258,-0.32161250710487366,-0.007424999959766865
1779997180794927600,15.721927734375,-0.0028874999843537807,-0.28503748774528503,-0.0037124999798834324
1779997180812204300,15.739204345703126,-0.0004124999977648258,-0.082225002348423,-0.0013749999925494194
1779997180829480700,15.756480712890625,0.002062499988824129,0.1695374995470047,0.0035749999806284904
1779997180846757000,15.773757080078125,0.004537499975413084,0.31968748569488525,0.006049999967217445
1779997180864033800,15.79103369140625,0.0032999999821186066,0.283112496137619,0.006049999967217445
1779997180881310200,15.808310302734375,0.0008249999955296516,0.07782500237226486,0.002337499987334013
1779997180898587000,15.8255869140625,-0.0028874999843537807,-0.17256249487400055,-0.0037124999798834324
1779997180915863600,15.842863525390625,-0.003987499978393316,-0.31927499175071716,-0.006187499966472387
1779997180933139700,15.8601396484375,-0.003987499978393316,-0.2777499854564667,-0.006187499966472387
1779997180950416400,15.87741650390625,-0.0002749999985098839,-0.07369999587535858,-0.00013749999925494194
1779997180967693000,15.894693115234375,0.002062499988824129,0.171875,0.002337499987334013
1779997180984969500,15.911969482421876,0.004537499975413084,0.3172124922275543,0.006049999967217445
1779997181002246000,15.929245849609375,0.0032999999821186066,0.27568748593330383,0.004812499973922968
1779997181019522300,15.946522216796875,0.0008249999955296516,0.07177499681711197,0.0010999999940395355
1779997181036799000,15.963799072265624,-0.0015124999918043613,-0.17503750324249268,-0.0037124999798834324
1779997181054075400,15.981075439453125,-0.003987499978393316,-0.31679999828338623,-0.006187499966472387
1779997181071352000,15.99835205078125,-0.003987499978393316,-0.2703250050544739,-0.0037124999798834324
1779997181088628700,16.015628662109375,-0.0015124999918043613,-0.06627500057220459,-0.0013749999925494194
1779997181105905200,16.0329052734375,0.0032999999821186066,0.1755875051021576,0.0035749999806284904
1779997181123181600,16.050181640625,0.004537499975413084,0.3148750066757202,0.006049999967217445
1779997181140458200,16.067458251953123,0.0032999999821186066,0.26840001344680786,0.004812499973922968
1779997181157734700,16.084734619140626,0.0008249999955296516,0.06311249732971191,0.002337499987334013
1779997181175011000,16.102010986328125,-0.0015124999918043613,-0.17874999344348907,-0.0037124999798834324
1779997181192287700,16.119287841796876,-0.003987499978393316,-0.3143250048160553,-0.006187499966472387
1779997181209564400,16.136564453125,-0.003987499978393316,-0.2630375027656555,-0.00494999997317791
1779997181226840800,16.1538408203125,-0.0015124999918043613,-0.060224998742341995,-0.00013749999925494194
1779997181244117200,16.1711171875,0.002062499988824129,0.17916250228881836,0.0035749999806284904
1779997181261394000,16.188393798828123,0.0032999999821186066,0.3111625015735626,0.006049999967217445
1779997181278670600,16.205670654296874,0.002062499988824129,0.2611125111579895,0.0035749999806284904
1779997181295947000,16.222947021484377,-0.0002749999985098839,0.05582499876618385,0.0010999999940395355
1779997181313223400,16.240223388671875,-0.002749999985098839,-0.1812250018119812,-0.0037124999798834324
1779997181330500000,16.2575,-0.003987499978393316,-0.3106124997138977,-0.006187499966472387
1779997181347776800,16.27477685546875,-0.003987499978393316,-0.25575000047683716,-0.0037124999798834324
1779997181365053200,16.29205322265625,-0.0002749999985098839,-0.05169999971985817,-0.00013749999925494194
1779997181382329600,16.30932958984375,0.002062499988824129,0.1816374957561493,0.004812499973922968
1779997181399606300,16.326606201171874,0.004537499975413084,0.3086875081062317,0.006049999967217445
1779997181416882700,16.343882568359376,0.0032999999821186066,0.25382500886917114,0.004812499973922968
1779997181434159000,16.3611591796875,0.0008249999955296516,0.04853750020265579,0.0010999999940395355
1779997181451435800,16.378435791015626,-0.0015124999918043613,-0.1835625022649765,-0.0037124999798834324
1779997181468712200,16.395712158203125,-0.003987499978393316,-0.30703750252723694,-0.006187499966472387
1779997181485988900,16.41298876953125,-0.002749999985098839,-0.24832500517368317,-0.0037124999798834324
1779997181503265300,16.430265380859375,-0.0004124999977648258,-0.045512501150369644,-0.00013749999925494194
1779997181520542000,16.4475419921875,0.002062499988824129,0.18411250412464142,0.0035749999806284904
1779997181537818400,16.464818359375,0.004537499975413084,0.3063499927520752,0.004812499973922968
1779997181555095000,16.482094970703123,0.0032999999821186066,0.24639999866485596,0.004812499973922968
1779997181572371500,16.499371337890626,0.002062499988824129,0.04235000163316727,0.0010999999940395355
1779997181589648100,16.516648193359377,-0.002749999985098839,-0.1872749924659729,-0.00494999997317791
1779997181606924500,16.533924560546875,-0.003987499978393316,-0.304562509059906,-0.006187499966472387
1779997181624201000,16.551200927734374,-0.003987499978393316,-0.24227499961853027,-0.0037124999798834324
1779997181641477600,16.5684775390625,-0.0004124999977648258,-0.03946249932050705,0.0010999999940395355
1779997181658754300,16.58575439453125,0.0008249999955296516,0.18658749759197235,0.0035749999806284904
1779997181676030700,16.60303076171875,0.0032999999821186066,0.3026374876499176,0.006049999967217445
1779997181693307100,16.62030712890625,0.002062499988824129,0.2391124963760376,0.006049999967217445
1779997181710583800,16.637583740234376,-0.0004124999977648258,0.03629999980330467,0.0010999999940395355
1779997181727860500,16.654860595703123,-0.002749999985098839,-0.18851250410079956,-0.002474999986588955
1779997181745137000,16.672136962890626,-0.005224999971687794,-0.3008500039577484,-0.006187499966472387
1779997181762413300,16.689413330078125,-0.002749999985098839,-0.23498749732971191,-0.00494999997317791
1779997181779690000,16.70668994140625,-0.0004124999977648258,-0.033275000751018524,-0.00013749999925494194
1779997181796966700,16.723966552734375,0.002062499988824129,0.18782499432563782,0.0035749999806284904
1779997181814243000,16.7412431640625,0.004537499975413084,0.2989250123500824,0.004812499973922968
1779997181831519500,16.75851953125,0.002062499988824129,0.23292499780654907,0.004812499973922968
1779997181848796200,16.775796142578123,-0.0004124999977648258,0.030249999836087227,0.0010999999940395355
1779997181866072800,16.79307275390625,-0.0015124999918043613,-0.1909874975681305,-0.006187499966472387
1779997181883349000,16.810348876953125,-0.003987499978393316,-0.296037495136261,-0.00494999997317791
1779997181900625700,16.827625732421875,-0.002749999985098839,-0.2287999987602234,-0.0037124999798834324
1779997181917902300,16.84490234375,-0.0004124999977648258,-0.025987500324845314,-0.00013749999925494194
1779997181935178500,16.862178466796873,0.002062499988824129,0.19030000269412994,0.004812499973922968
1779997181952455200,16.879455078125,0.0032999999821186066,0.29534998536109924,0.006049999967217445
1779997181969731800,16.89673193359375,0.002062499988824129,0.22687499225139618,0.006049999967217445
1779997181987008500,16.914008544921874,0.0008249999955296516,0.022824998944997787,-0.00013749999925494194
1779997182004285000,16.931284912109376,-0.0016499999910593033,-0.1933249980211258,-0.0037124999798834324
1779997182021561300,16.948561279296875,-0.004124999977648258,-0.29356250166893005,-0.00494999997317791
1779997182038838000,16.965838134765626,-0.0028874999843537807,-0.22151249647140503,-0.0037124999798834324
1779997182056114400,16.983114501953125,-0.0004124999977648258,-0.018699999898672104,0.0010999999940395355
1779997182073391000,17.00039111328125,0.002062499988824129,0.19263750314712524,0.002337499987334013
1779997182090667500,17.01766748046875,0.0032999999821186066,0.29163751006126404,0.006049999967217445
1779997182107944200,17.034944091796874,0.0032999999821186066,0.219587504863739,0.0035749999806284904
1779997182125220400,17.052220458984376,0.0008249999955296516,0.01677500084042549,0.0010999999940395355
1779997182142497000,17.0694970703125,-0.004124999977648258,-0.19456249475479126,-0.00494999997317791
1779997182159773700,17.086773681640626,-0.004124999977648258,-0.2910875082015991,-0.006187499966472387
1779997182177050400,17.10405029296875,-0.0028874999843537807,-0.21408750116825104,-0.002612499985843897
1779997182194326800,17.121326904296875,-0.0004124999977648258,-0.013749999925494194,0.0010999999940395355
1779997182211603200,17.138603271484374,0.002062499988824129,0.19511249661445618,0.0035749999806284904
1779997182228880000,17.1558798828125,0.0032999999821186066,0.28792500495910645,0.006049999967217445
1779997182246156300,17.17315625,0.0032999999821186066,0.21216249465942383,0.004812499973922968
1779997182263432700,17.1904326171875,-0.0004124999977648258,0.010587500408291817,-0.00013749999925494194
1779997182280709400,17.20770947265625,-0.0028874999843537807,-0.1970375031232834,-0.00494999997317791
1779997182297986000,17.224986083984376,-0.004124999977648258,-0.28751251101493835,-0.006187499966472387
1779997182315262500,17.242262451171875,-0.0028874999843537807,-0.20679999887943268,-0.0037124999798834324
1779997182332539000,17.259538818359374,-0.0004124999977648258,-0.007699999958276749,-0.00013749999925494194
1779997182349815600,17.276815673828125,0.0032999999821186066,0.1975875049829483,0.0035749999806284904
1779997182367092000,17.294092041015624,0.004537499975413084,0.28558748960494995,0.004812499973922968
1779997182384368600,17.31136865234375,0.002062499988824129,0.20611250400543213,0.004812499973922968
1779997182401645000,17.32864501953125,-0.0004124999977648258,0.004537499975413084,-0.00013749999925494194
1779997182418921700,17.345921630859376,-0.002749999985098839,-0.19827499985694885,-0.00494999997317791
1779997182436198100,17.3631982421875,-0.003987499978393316,-0.2825624942779541,-0.00494999997317791
1779997182453474800,17.380474853515626,-0.003987499978393316,-0.20074999332427979,-0.0037124999798834324
1779997182470751200,17.397751220703125,-0.0004124999977648258,-0.0015124999918043613,0.0010999999940395355
1779997182488027600,17.415027587890624,0.002062499988824129,0.1975875049829483,0.004812499973922968
1779997182505304300,17.43230419921875,0.0032999999821186066,0.283112496137619,0.004812499973922968
1779997182522580700,17.449580810546873,0.002062499988824129,0.19882500171661377,0.004812499973922968
1779997182539857400,17.466857421875,-0.0004124999977648258,-0.002749999985098839,-0.00013749999925494194
1779997182557133800,17.4841337890625,-0.003987499978393316,-0.20074999332427979,-0.0037124999798834324
1779997182574410500,17.501410400390625,-0.003987499978393316,-0.28008750081062317,-0.00494999997317791
1779997182591687000,17.51868701171875,-0.0015124999918043613,-0.1933249980211258,-0.0037124999798834324
1779997182608963300,17.53596337890625,0.0008249999955296516,0.004537499975413084,-0.00013749999925494194
1779997182626240000,17.553239990234374,0.002062499988824129,0.20006249845027924,0.0035749999806284904
1779997182643516700,17.5705166015625,0.0032999999821186066,0.2769249975681305,0.004812499973922968
1779997182660793000,17.58779296875,0.002062499988824129,0.19139999151229858,0.004812499973922968
1779997182678069500,17.605069580078126,0.0008249999955296516,-0.007699999958276749,-0.00013749999925494194
1779997182695346200,17.62234619140625,-0.002749999985098839,-0.20198750495910645,-0.0037124999798834324
1779997182712622600,17.63962255859375,-0.003987499978393316,-0.27527499198913574,-0.00494999997317791
1779997182729899300,17.656899169921875,-0.0015124999918043613,-0.1872749924659729,-0.002474999986588955
1779997182747175700,17.67417578125,0.0008249999955296516,0.011824999935925007,-0.00013749999925494194
1779997182764452400,17.691452392578125,0.0032999999821186066,0.20239999890327454,0.004812499973922968
1779997182781728800,17.708728759765624,0.004537499975413084,0.2733500003814697,0.004812499973922968
1779997182799005400,17.72600537109375,0.002062499988824129,0.18411250412464142,0.004812499973922968
1779997182816281900,17.74328173828125,-0.0004124999977648258,-0.013749999925494194,-0.0013749999925494194
1779997182833558300,17.760558349609376,-0.002749999985098839,-0.2032250016927719,-0.00494999997317791
1779997182850835000,17.7778349609375,-0.003987499978393316,-0.27156248688697815,-0.00494999997317791
1779997182868111400,17.795111328125,-0.002749999985098839,-0.17998750507831573,-0.002474999986588955
1779997182885388000,17.812387939453124,-0.0004124999977648258,0.01677500084042549,0.0010999999940395355
1779997182902664400,17.82966455078125,0.0032999999821186066,0.20363749563694,0.0035749999806284904
1779997182919941000,17.846941162109374,0.0032999999821186066,0.26963749527931213,0.006049999967217445
1779997182937217500,17.864217529296877,0.002062499988824129,0.17806249856948853,0.002337499987334013
1779997182954494200,17.881494140625,-0.0002749999985098839,-0.018699999898672104,-0.0013749999925494194
1779997182971770600,17.8987705078125,-0.002749999985098839,-0.20432500541210175,-0.00494999997317791
1779997182989047300,17.91604736328125,-0.003987499978393316,-0.26785001158714294,-0.00494999997317791
1779997183006323700,17.93332373046875,-0.0015124999918043613,-0.17379999160766602,-0.0013749999925494194
1779997183023600000,17.95060009765625,0.0008249999955296516,0.021587500348687172,0.0010999999940395355
1779997183040876800,17.967876708984374,0.002062499988824129,0.20363749563694,0.004812499973922968
1779997183058153500,17.985153564453125,0.004537499975413084,0.26592499017715454,0.004812499973922968
1779997183075430000,18.002429931640624,0.002062499988824129,0.171875,0.0035749999806284904
1779997183092706300,18.019706298828126,-0.0002749999985098839,-0.02474999986588955,-0.0013749999925494194
1779997183109983000,18.03698291015625,-0.002749999985098839,-0.2055625021457672,-0.00494999997317791
1779997183127259400,18.05425927734375,-0.003987499978393316,-0.2642749845981598,-0.0037124999798834324
1779997183144535800,18.071535888671875,-0.002749999985098839,-0.16651250422000885,-0.002474999986588955
1779997183161812500,18.0888125,0.0008249999955296516,0.027775000780820847,0.0010999999940395355
1779997183179089000,18.1060888671875,0.0032999999821186066,0.20487499237060547,0.0035749999806284904
1779997183196365600,18.123365478515623,0.0032999999821186066,0.2623499929904938,0.006049999967217445
1779997183213642000,18.14064208984375,0.002062499988824129,0.16335000097751617,0.0035749999806284904
1779997183230918700,18.157918701171877,-0.0002749999985098839,-0.02969999983906746,-0.00013749999925494194
1779997183248195000,18.175195068359375,-0.002749999985098839,-0.20679999887943268,-0.00494999997317791
1779997183265471700,18.1924716796875,-0.002749999985098839,-0.2593249976634979,-0.006187499966472387
1779997183282748200,18.209748046875,-0.002749999985098839,-0.1592250019311905,-0.0013749999925494194
1779997183300024800,18.22702490234375,-0.0002749999985098839,0.03258749842643738,0.0010999999940395355
1779997183317301200,18.24430126953125,0.0032999999821186066,0.20487499237060547,0.0035749999806284904
1779997183334578000,18.261577880859374,0.0032999999821186066,0.2574000060558319,0.004812499973922968
1779997183351854300,18.278854248046876,0.002062499988824129,0.15729999542236328,0.0035749999806284904
1779997183369130800,18.296130859375,-0.0002749999985098839,-0.03451250120997429,-0.0013749999925494194
1779997183386407400,18.313407470703126,-0.0015124999918043613,-0.20803749561309814,-0.00494999997317791
1779997183403683800,18.330683837890625,-0.002749999985098839,-0.25575000047683716,-0.00494999997317791
1779997183420960500,18.34796044921875,-0.002749999985098839,-0.15303750336170197,-0.002474999986588955
1779997183438237000,18.36523681640625,0.0008249999955296516,0.03753750026226044,0.0010999999940395355
1779997183455513600,18.382513671875,0.0032999999821186066,0.20611250400543213,0.0035749999806284904
1779997183472790000,18.3997900390625,0.0032999999821186066,0.2536875009536743,0.004812499973922968
1779997183490066700,18.417066650390623,0.002062499988824129,0.15111249685287476,0.0035749999806284904
1779997183507343000,18.434343017578126,-0.0002749999985098839,-0.03946249932050705,-0.0013749999925494194
1779997183524619500,18.45161962890625,-0.002749999985098839,-0.20803749561309814,-0.00494999997317791
1779997183541896200,18.468896240234375,-0.002749999985098839,-0.25203749537467957,-0.00494999997317791
1779997183559172600,18.486172607421874,-0.0015124999918043613,-0.14698749780654907,-0.002474999986588955
1779997183576449300,18.50344921875,0.0008249999955296516,0.04235000163316727,0.002337499987334013
1779997183593725700,18.5207255859375,0.0032999999821186066,0.20858749747276306,0.0035749999806284904
1779997183611002000,18.538002197265627,0.0032999999821186066,0.25011250376701355,0.006049999967217445
1779997183628278800,18.55527880859375,0.002062499988824129,0.1438249945640564,0.002337499987334013
1779997183645555500,18.572555419921876,-0.0015124999918043613,-0.045512501150369644,-0.00013749999925494194
1779997183662831900,18.589831787109375,-0.003987499978393316,-0.20803749561309814,-0.00494999997317791
1779997183680108300,18.6071083984375,-0.003987499978393316,-0.2470874935388565,-0.0037124999798834324
1779997183697385000,18.624385009765625,-0.0015124999918043613,-0.1396999955177307,-0.002474999986588955
1779997183714661400,18.641661376953124,0.0008249999955296516,0.04853750020265579,0.0010999999940395355
1779997183731938000,18.65893798828125,0.0032999999821186066,0.2073500007390976,0.0035749999806284904
1779997183749214500,18.67621435546875,0.0032999999821186066,0.2451625019311905,0.006049999967217445
1779997183766491100,18.6934912109375,0.0008249999955296516,0.13763749599456787,0.002337499987334013
1779997183783767600,18.710767578125,-0.0002749999985098839,-0.050462499260902405,-0.0013749999925494194
1779997183801044000,18.7280439453125,-0.002749999985098839,-0.20803749561309814,-0.00494999997317791
1779997183818320600,18.745320556640625,-0.002749999985098839,-0.24227499961853027,-0.00494999997317791
1779997183835597000,18.76259716796875,-0.0015124999918043613,-0.1335124969482422,-0.0013749999925494194
1779997183852873700,18.779873779296874,-0.0002749999985098839,0.05335000157356262,0.0010999999940395355
1779997183870150100,18.797150146484373,0.002062499988824129,0.2073500007390976,0.004812499973922968
1779997183887426800,18.8144267578125,0.0032999999821186066,0.24034999310970306,0.006049999967217445
1779997183904703200,18.831703125,0.002062499988824129,0.13158750534057617,0.002337499987334013
1779997183921980000,18.84897998046875,-0.0004124999977648258,-0.055275000631809235,-0.0013749999925494194
1779997183939256300,18.86625634765625,-0.002749999985098839,-0.20803749561309814,-0.0037124999798834324
1779997183956532700,18.88353271484375,-0.002749999985098839,-0.23732499778270721,-0.0037124999798834324
1779997183973809400,18.900809326171874,-0.0015124999918043613,-0.12622499465942383,-0.0013749999925494194
1779997183991085800,18.9180859375,0.002062499988824129,0.05706249922513962,0.0010999999940395355
1779997184008362500,18.935362548828124,0.0032999999821186066,0.20858749747276306,0.0035749999806284904
1779997184025639000,18.952638916015626,0.0032999999821186066,0.23539999127388,0.004812499973922968
1779997184042915300,18.969915283203125,0.002062499988824129,0.12430000305175781,0.0010999999940395355
1779997184060192000,18.98719189453125,-0.0004124999977648258,-0.06146249920129776,-0.0013749999925494194
1779997184077468400,19.004468505859375,-0.0015124999918043613,-0.20803749561309814,-0.00494999997317791
1779997184094745000,19.0217451171875,-0.002749999985098839,-0.23251250386238098,-0.00494999997317791
1779997184112021500,19.039021484375,-0.0015124999918043613,-0.1200374960899353,-0.00013749999925494194
1779997184129298200,19.056298095703124,0.0008249999955296516,0.06201250106096268,0.0010999999940395355
1779997184146574600,19.07357470703125,0.0032999999821186066,0.20858749747276306,0.004812499973922968
1779997184163851300,19.090851318359373,0.0032999999821186066,0.23182499408721924,0.0035749999806284904
1779997184181127700,19.108127685546876,0.002062499988824129,0.11811249703168869,0.002337499987334013
1779997184198404000,19.125404052734375,-0.0015124999918043613,-0.06503749638795853,-0.002612499985843897
1779997184215680800,19.1426806640625,-0.003987499978393316,-0.2092749923467636,-0.0037124999798834324
1779997184232957400,19.15995751953125,-0.003987499978393316,-0.22756250202655792,-0.0037124999798834324
1779997184250233900,19.17723388671875,-0.0015124999918043613,-0.113987497985363,-0.002612499985843897
1779997184267510300,19.19451025390625,0.0008249999955296516,0.0668250024318695,0.0010999999940395355
1779997184284787000,19.211786865234377,0.0032999999821186066,0.20858749747276306,0.0035749999806284904
1779997184302063600,19.229063720703124,0.0032999999821186066,0.22687499225139618,0.004812499973922968
1779997184319340000,19.246340087890626,-0.0004124999977648258,0.11082500219345093,0.002337499987334013
1779997184336616400,19.263616455078125,-0.002749999985098839,-0.06998749822378159,-0.002612499985843897
1779997184353893000,19.28089306640625,-0.002749999985098839,-0.20803749561309814,-0.0037124999798834324
1779997184371169500,19.29816943359375,-0.0015124999918043613,-0.22398750483989716,-0.00494999997317791
1779997184388446000,19.315446044921874,-0.0004124999977648258,-0.10779999941587448,-0.0013749999925494194
1779997184405722600,19.33272265625,0.002062499988824129,0.0705375000834465,0.0010999999940395355
1779997184422999000,19.3499990234375,0.0032999999821186066,0.20611250400543213,0.004812499973922968
1779997184440275700,19.367275634765626,0.004537499975413084,0.22206249833106995,0.0035749999806284904
1779997184457552100,19.38455224609375,0.002062499988824129,0.10711249709129333,0.0010999999940395355
1779997184474828500,19.40182861328125,-0.0016499999910593033,-0.07246249914169312,-0.0013749999925494194
1779997184492105200,19.419105224609375,-0.003987499978393316,-0.20803749561309814,-0.00494999997317791
1779997184509381600,19.436381591796874,-0.005224999971687794,-0.2190375030040741,-0.0037124999798834324
1779997184526658300,19.453658203125,-0.003987499978393316,-0.10298749804496765,-0.0013749999925494194
1779997184543934700,19.470934814453123,-0.0016499999910593033,0.07301250100135803,0.002337499987334013
1779997184561211100,19.488211181640626,-0.0004124999977648258,0.20611250400543213,0.004812499973922968
1779997184578487800,19.50548779296875,0.002062499988824129,0.2171124964952469,0.0035749999806284904
1779997184595764200,19.52276416015625,0.002062499988824129,0.10106249898672104,0.002337499987334013
1779997184613041000,19.540041015625,-0.0004124999977648258,-0.07493750005960464,-0.002612499985843897
1779997184630317300,19.5573173828125,-0.0004124999977648258,-0.2055625021457672,-0.00494999997317791
1779997184647594000,19.574593994140624,0.0008249999955296516,-0.21408750116825104,-0.0037124999798834324
1779997184664870400,19.591870361328127,0.002062499988824129,-0.09679999947547913,-0.0013749999925494194
1779997184682146800,19.609146728515626,0.0032999999821186066,0.07782500237226486,0.002337499987334013
1779997184699423500,19.626423583984376,0.004537499975413084,0.20611250400543213,0.0035749999806284904
1779997184716700000,19.643699951171875,0.004537499975413084,0.21216249465942383,0.0035749999806284904
1779997184733976600,19.6609765625,0.002062499988824129,0.09487500041723251,0.0010999999940395355
1779997184751253000,19.6782529296875,-0.0016499999910593033,-0.07975000143051147,-0.0013749999925494194
1779997184768529700,19.69552978515625,-0.002749999985098839,-0.2055625021457672,-0.0037124999798834324
1779997184785806300,19.712806396484375,-0.002749999985098839,-0.21051250398159027,-0.002612499985843897
1779997184803082500,19.73008251953125,-0.0016499999910593033,-0.09075000137090683,-0.00013749999925494194
1779997184820359200,19.747359130859376,0.002062499988824129,0.08153750002384186,0.002337499987334013
1779997184837635800,19.7646357421875,0.0032999999821186066,0.20487499237060547,0.004812499973922968
1779997184854912300,19.781912353515626,0.0032999999821186066,0.20858749747276306,0.0035749999806284904
1779997184872188700,19.799188720703125,0.0008249999955296516,0.08758749812841415,0.002337499987334013
1779997184889465300,19.81646533203125,-0.0004124999977648258,-0.08346249908208847,-0.0013749999925494194
1779997184906742000,19.833741943359374,-0.002749999985098839,-0.2055625021457672,-0.0037124999798834324
1779997184924018400,19.851018310546873,-0.0028874999843537807,-0.20432500541210175,-0.0037124999798834324
1779997184941294800,19.868294921875,-0.0016499999910593033,-0.08346249908208847,-0.0013749999925494194
1779997184958571500,19.885571533203127,-0.0004124999977648258,0.08511249721050262,0.002337499987334013
1779997184975848200,19.90284814453125,0.0008249999955296516,0.20363749563694,0.0035749999806284904
1779997184993124400,19.920124267578124,0.0008249999955296516,0.20239999890327454,0.004812499973922968
1779997185010401000,19.937401123046875,-0.0016499999910593033,0.08153750002384186,0.0010999999940395355
1779997185027677700,19.954677734375,-0.0016499999910593033,-0.08703749626874924,-0.0013749999925494194
1779997185044954000,19.9719541015625,-0.0028874999843537807,-0.20432500541210175,-0.0037124999798834324
1779997185062230500,19.98923046875,-0.0028874999843537807,-0.20074999332427979,-0.002612499985843897
1779997185079507200,20.006507080078126,-0.0016499999910593033,-0.07851249724626541,-0.0013749999925494194
1779997185096783600,20.02378369140625,0.0008249999955296516,0.08882500231266022,0.002337499987334013
1779997185114060000,20.04106005859375,0.0032999999821186066,0.20363749563694,0.0035749999806284904
1779997185131336700,20.058336669921875,0.002062499988824129,0.19882500171661377,0.004812499973922968
1779997185148613000,20.075613037109374,0.002062499988824129,0.0765874981880188,0.0010999999940395355
1779997185165889500,20.0928896484375,-0.0004124999977648258,-0.09075000137090683,-0.0013749999925494194
1779997185183166200,20.110166259765624,-0.0028874999843537807,-0.20308749377727509,-0.0037124999798834324
1779997185200443000,20.12744287109375,-0.0016499999910593033,-0.19580000638961792,-0.0037124999798834324
1779997185217719000,20.144718994140625,-0.0004124999977648258,-0.07246249914169312,-0.0013749999925494194
1779997185234995700,20.16199560546875,0.002062499988824129,0.09253749996423721,0.002337499987334013
1779997185252272400,20.1792724609375,0.0032999999821186066,0.20239999890327454,0.004812499973922968
1779997185269548800,20.196548828125,0.002062499988824129,0.1938749998807907,0.0035749999806284904
1779997185286825200,20.2138251953125,0.0008249999955296516,0.0705375000834465,0.0010999999940395355
1779997185304102000,20.231101806640623,-0.0016499999910593033,-0.09446249902248383,-0.002612499985843897
1779997185321378600,20.248378662109374,-0.004124999977648258,-0.20198750495910645,-0.0037124999798834324
1779997185338654700,20.26565478515625,-0.0028874999843537807,-0.1909874975681305,-0.002612499985843897
1779997185355931400,20.282931396484376,-0.0016499999910593033,-0.06627500057220459,-0.00013749999925494194
1779997185373208000,20.3002080078125,0.0008249999955296516,0.09611249715089798,0.0035749999806284904
1779997185390484500,20.317484375,0.002062499988824129,0.20239999890327454,0.0035749999806284904
1779997185407761200,20.33476123046875,0.002062499988824129,0.18906250596046448,0.0035749999806284904
1779997185425037600,20.35203759765625,0.0008249999955296516,0.06435000151395798,0.002337499987334013
1779997185442314000,20.36931396484375,-0.0004124999977648258,-0.09803749620914459,-0.002474999986588955
1779997185459590700,20.386590576171876,-0.002749999985098839,-0.20074999332427979,-0.002474999986588955
1779997185476867000,20.4038671875,-0.002749999985098839,-0.18603749573230743,-0.00494999997317791
1779997185494143700,20.421143798828126,-0.0004124999977648258,-0.06146249920129776,0.0010999999940395355
1779997185511420200,20.438420166015625,0.002062499988824129,0.09982500225305557,0.002337499987334013
1779997185528696600,20.455696533203124,0.002062499988824129,0.20116250216960907,0.0035749999806284904
1779997185545973200,20.47297314453125,0.002062499988824129,0.18411250412464142,0.002337499987334013
1779997185563249700,20.490249755859374,0.0008249999955296516,0.05829999968409538,0.0010999999940395355
1779997185580526300,20.5075263671875,-0.0015124999918043613,-0.10175000131130219,-0.002474999986588955
1779997185597802800,20.524802734375,-0.002749999985098839,-0.20074999332427979,-0.0037124999798834324
1779997185615079400,20.542079345703126,-0.0015124999918043613,-0.17998750507831573,-0.0037124999798834324
1779997185632355800,20.55935595703125,-0.0004124999977648258,-0.0541750006377697,-0.00013749999925494194
1779997185649632300,20.57663232421875,0.002062499988824129,0.1023000031709671,0.0010999999940395355
1779997185666909000,20.593908935546875,0.0032999999821186066,0.19882500171661377,0.0035749999806284904
1779997185684185300,20.611185302734373,0.002062499988824129,0.179299995303154,0.0035749999806284904
1779997185701461800,20.628461669921876,0.0008249999955296516,0.05335000157356262,0.0010999999940395355
1779997185718738200,20.64573828125,-0.0004124999977648258,-0.10422500222921371,-0.0013749999925494194
1779997185736014800,20.663014892578126,-0.002749999985098839,-0.19827499985694885,-0.0037124999798834324
1779997185753291500,20.68029150390625,-0.002749999985098839,-0.17503750324249268,-0.0037124999798834324
1779997185770568000,20.69756787109375,-0.0015124999918043613,-0.050462499260902405,-0.00013749999925494194
1779997185787844400,20.71484423828125,-0.0004124999977648258,0.10477499663829803,0.002337499987334013
1779997185805121000,20.73212109375,0.002062499988824129,0.19882500171661377,0.004812499973922968
1779997185822397700,20.749397705078124,0.0008249999955296516,0.17434999346733093,0.0035749999806284904
1779997185839673900,20.766673828125,0.0008249999955296516,0.04729999974370003,0.0010999999940395355
1779997185856950500,20.783950439453125,-0.0015124999918043613,-0.10670000314712524,-0.002474999986588955
1779997185874227200,20.801227294921876,-0.003987499978393316,-0.1970375031232834,-0.0037124999798834324
1779997185891503600,20.818503662109375,-0.002749999985098839,-0.1714625060558319,-0.002474999986588955
1779997185908780300,20.8357802734375,-0.0004124999977648258,-0.04427500069141388,-0.00013749999925494194
1779997185926056700,20.853056640625,0.0008249999955296516,0.10711249709129333,0.002337499987334013
1779997185943333000,20.8703330078125,0.002062499988824129,0.19634999334812164,0.0035749999806284904
1779997185960609800,20.88760986328125,0.002062499988824129,0.16830000281333923,0.0035749999806284904
