time,seconds_elapsed,z,y,x
1779997165375661800,0.302661865234375,-0.0002749999985098839,0.02694999985396862,0.008662499487400055
1779997165392938000,0.31993798828125,-0.0002749999985098839,0.03671250119805336,0.015949999913573265
1779997165410214400,0.33721435546875,-0.002749999985098839,0.045237500220537186,0.00494999997317791
1779997165427490800,0.35449072265625,-0.003987499978393316,0.035475000739097595,-0.0193875003606081
1779997165444767000,0.37176708984375,-0.002749999985098839,0.015949999913573265,-0.0340999998152256
1779997165462043600,0.389043701171875,-0.0015124999918043613,0.0037124999798834324,-0.02433750033378601
1779997165479319800,0.40631982421875,-0.002749999985098839,0.002474999986588955,-0.010862499475479126
1779997165496596200,0.42359619140625,-0.002749999985098839,0.00494999997317791,-0.002337499987334013
1779997165513872600,0.44087255859375,-0.0015124999918043613,0.0012374999932944775,0.011137500405311584
1779997165531149000,0.458149169921875,-0.0015124999918043613,-0.002337499987334013,0.006187499966472387
1779997165548425500,0.475425537109375,-0.002749999985098839,-0.004812499973922968,-0.0035749999806284904
1779997165565702000,0.492701904296875,-0.003987499978393316,-0.007287499960511923,-0.010862499475479126
1779997165582978000,0.50997802734375,-0.002749999985098839,-0.002337499987334013,0.00013749999925494194
1779997165600254700,0.527254638671875,-0.0015124999918043613,0.008662499487400055,0.00494999997317791
1779997165617531100,0.54453125,-0.0015124999918043613,0.01718750037252903,0.015949999913573265
1779997165634807600,0.5618076171875,-0.0015124999918043613,0.01718750037252903,0.01347499992698431
1779997165652083700,0.579083740234375,-0.0002749999985098839,0.015949999913573265,0.00494999997317791
1779997165669360000,0.596360107421875,-0.0015124999918043613,0.015949999913573265,0.0013749999925494194
1779997165686636500,0.613636474609375,-0.002749999985098839,0.018424998968839645,-0.007287499960511923
1779997165703913000,0.630912841796875,-0.003987499978393316,0.028187500312924385,-0.032862499356269836
1779997165721189400,0.648189453125,-0.002749999985098839,0.035475000739097595,-0.037812501192092896
1779997165738465800,0.6654658203125,-0.0015124999918043613,0.035475000739097595,-0.025575000792741776
1779997165755742000,0.682741943359375,-0.0015124999918043613,0.02694999985396862,-0.010862499475479126
1779997165773018400,0.700018310546875,-0.0015124999918043613,0.010999999940395355,0.002474999986588955
1779997165790294800,0.717294677734375,-0.0015124999918043613,0.002474999986588955,0.012374999932944775
1779997165807571000,0.734571044921875,-0.0015124999918043613,0.010999999940395355,0.020899999886751175
1779997165824847600,0.75184765625,-0.0015124999918043613,0.015949999913573265,0.015949999913573265
1779997165842124000,0.7691240234375,-0.0015124999918043613,0.008662499487400055,0.0013749999925494194
1779997165859400200,0.786400146484375,-0.0015124999918043613,-0.006049999967217445,-0.015812499448657036
1779997165876676600,0.803676513671875,-0.0015124999918043613,-0.004812499973922968,-0.006049999967217445
1779997165893953000,0.820953125,-0.0015124999918043613,0.015949999913573265,0.015949999913573265
1779997165911229400,0.8382294921875,-0.0002749999985098839,0.04895000159740448,0.02694999985396862
1779997165928505600,0.855505615234375,-0.0002749999985098839,0.05871250107884407,0.018424998968839645
1779997165945782000,0.872781982421875,-0.0002749999985098839,0.03671250119805336,0.0013749999925494194
1779997165963058700,0.89005859375,-0.0038499999791383743,0.025712499395012856,-0.018287500366568565
1779997165980334800,0.9073349609375,-0.006324999965727329,0.008662499487400055,-0.037812501192092896
1779997165997611300,0.924611328125,-0.0038499999791383743,-0.007287499960511923,-0.032862499356269836
1779997166014888000,0.941887939453125,-0.0038499999791383743,-0.020762499421834946,-0.0170499999076128
1779997166032164000,0.9591640625,-0.0038499999791383743,-0.04633750021457672,-0.010862499475479126
1779997166049440500,0.9764404296875,-0.0038499999791383743,-0.059812501072883606,0.0013749999925494194
1779997166066717000,0.993717041015625,-0.0038499999791383743,-0.05857500061392784,0.01718750037252903
1779997166092631600,1.019631591796875,-0.005087499972432852,-0.045099999755620956,0.008662499487400055
1779997166109908000,1.036907958984375,-0.005087499972432852,-0.035337500274181366,-0.006049999967217445
1779997166127184400,1.054184326171875,-0.0038499999791383743,-0.014574999921023846,-0.01209999993443489
1779997166144460500,1.07146044921875,-0.002749999985098839,0.008662499487400055,-0.0035749999806284904
1779997166161737200,1.0887373046875,-0.0015124999918043613,0.01223750039935112,0.0037124999798834324
1779997166179013400,1.106013427734375,-0.0002749999985098839,0.006187499966472387,-0.002337499987334013
1779997166196289800,1.123289794921875,-0.0015124999918043613,0.018424998968839645,0.00013749999925494194
1779997166213566500,1.14056640625,-0.0015124999918043613,0.032999999821186066,0.023375000804662704
1779997166230842600,1.157842529296875,-0.0002749999985098839,0.025712499395012856,0.02694999985396862
1779997166256757200,1.18375732421875,-0.0038499999791383743,-0.0035749999806284904,-0.025575000792741776
1779997166282671900,1.209671875,-0.0038499999791383743,-0.0170499999076128,-0.02928750030696392
1779997166299948300,1.2269482421875,-0.002749999985098839,-0.010999999940395355,-0.0010999999940395355
1779997166317224700,1.244224609375,-0.0015124999918043613,-0.0035749999806284904,0.00989999994635582
1779997166334501000,1.261501220703125,-0.0015124999918043613,-0.0010999999940395355,0.020899999886751175
1779997166351777500,1.278777587890625,-0.0002749999985098839,-0.0010999999940395355,0.028187500312924385
1779997166369054000,1.296053955078125,0.0009624999947845936,0.007424999959766865,0.030662499368190765
1779997166386330000,1.313330078125,0.0012374999932944775,0.015949999913573265,0.01952499896287918
1779997166403606500,1.3306064453125,-0.0012374999932944775,0.025712499395012856,-0.007287499960511923
1779997166420883000,1.347883056640625,-0.002474999986588955,0.037812501192092896,-0.0170499999076128
1779997166438159400,1.365159423828125,-0.002474999986588955,0.04399999976158142,-0.0085249999538064
1779997166455436000,1.38243603515625,0,0.03671250119805336,0.020762499421834946
1779997166472712200,1.399712158203125,0,0.01347499992698431,0.015949999913573265
1779997166489988600,1.416988525390625,-0.0037124999798834324,-0.01347499992698431,-0.0147124994546175
1779997166507264800,1.4342646484375,-0.006049999967217445,-0.01952499896287918,-0.02928750030696392
1779997166524541400,1.45154150390625,-0.00494999997317791,-0.0147124994546175,-0.00494999997317791
1779997166541817600,1.468817626953125,-0.002474999986588955,-0.010999999940395355,0.025712499395012856
1779997166559094000,1.486093994140625,-0.0012374999932944775,-0.00976249948143959,0.03904999792575836
1779997166576370400,1.503370361328125,-0.0037124999798834324,-0.0147124994546175,0.023237500339746475
1779997166593646800,1.520646728515625,-0.0037124999798834324,-0.032999999821186066,0.01223750039935112
1779997166610923300,1.53792333984375,-0.0037124999798834324,-0.03423750028014183,0.00494999997317791
1779997166628199700,1.55519970703125,-0.0037124999798834324,-0.020762499421834946,0.007287499960511923
1779997166645476000,1.57247607421875,-0.002474999986588955,-0.006049999967217445,0.0012374999932944775
1779997166671390700,1.598390625,-0.002474999986588955,0.002474999986588955,-0.02199999988079071
1779997166688667100,1.615667236328125,-0.0012374999932944775,0.01347499992698431,-0.00976249948143959
1779997166705943600,1.632943603515625,-0.0012374999932944775,0.030524998903274536,0.01347499992698431
1779997166723220000,1.650219970703125,-0.0012374999932944775,0.03904999792575836,0.028049999848008156
1779997166740496400,1.667496337890625,0.0012374999932944775,0.03671250119805336,0.04647500067949295
1779997166757772800,1.684772705078125,0,0.030524998903274536,0.03671250119805336
1779997166775049200,1.70204931640625,0,0.015949999913573265,0.05128749832510948
1779997166792325400,1.719325439453125,0.0012374999932944775,-0.0037124999798834324,0.05376249924302101
1779997166818240300,1.745240234375,-0.002474999986588955,-0.04647500067949295,0.04399999976158142
1779997166835516400,1.762516357421875,-0.0037124999798834324,-0.08181250095367432,-0.006049999967217445
1779997166852792800,1.779792724609375,-0.00494999997317791,-0.11233749985694885,-0.06104999780654907
1779997166870069200,1.7970693359375,-0.0037124999798834324,-0.1368124932050705,-0.06847500056028366
1779997166887345700,1.814345703125,0,-0.20652499794960022,-0.05857500061392784
1779997166904622000,1.8316220703125,0.0037124999798834324,-0.36162498593330383,-0.035475000739097595
1779997166921898500,1.8488984375,-0.0085249999538064,-0.6047250032424927,0.059812501072883606
1779997166939175000,1.8661748046875,0.010999999940395355,-1.5015000104904175,1.4612125158309937
1779997166956451300,1.883451416015625,-0.05871250107884407,-3.1348624229431152,-0.9187750220298767
1779997166973727500,1.9007275390625,-0.05004999786615372,-3.8788750171661377,0.5802500247955322
1779997166991004000,1.91800390625,0.035475000739097595,-2.0487499237060547,0.5754374861717224
1779997167008280600,1.935280517578125,0.05252499878406525,0.46915000677108765,1.439212441444397
1779997167025557000,1.952556884765625,-0.05376249924302101,2.728137493133545,2.0574123859405518
1779997167042833400,1.96983349609375,-0.22962500154972076,3.3633875846862793,0.18809999525547028
1779997167060109800,1.98710986328125,-0.15399999916553497,1.9193625450134277,-3.512437582015991
1779997167077386000,2.004385986328125,-0.020762499421834946,0.49114999175071716,-2.632849931716919
1779997167094662700,2.02166259765625,0.035475000739097595,-2.1269874572753906,4.370025157928467
1779997167120577000,2.047576904296875,0.14657500386238098,-2.943049907684326,-0.17586250603199005
1779997167137853700,2.064853759765625,0.06599999964237213,-1.3890249729156494,-0.5741999745368958
1779997167155129900,2.0821298828125,-0.00976249948143959,0.8332499861717224,0.1368124932050705
1779997167172406300,2.09940625,-0.10147500038146973,2.666949987411499,0.34814998507499695
1779997167189682700,2.1166826171875,-0.1050499975681305,3.0640499591827393,-1.1789250373840332
1779997167206958800,2.133958740234375,-0.057475000619888306,1.7115999460220337,-3.463487386703491
1779997167224235500,2.151235595703125,0.054999999701976776,-0.7232499718666077,2.7939999103546143
1779997167241512000,2.168511962890625,0.01952499896287918,-2.7427124977111816,0.11233749985694885
1779997167258788400,2.185788330078125,-0.042762499302625656,-3.4256749153137207,-2.023175001144409
1779997167276064800,2.203064697265625,-0.032999999821186066,-1.7555999755859375,0.520437479019165
1779997167293341200,2.220341064453125,0.06476250290870667,0.8075374960899353,2.0829875469207764
1779997167310617300,2.237617431640625,-0.047712501138448715,2.6437125205993652,2.313849925994873
1779997167327894000,2.25489404296875,-0.1868624985218048,2.859999895095825,-0.0085249999538064
1779997167345170400,2.27217041015625,-0.14300000667572021,1.2424499988555908,-3.715250015258789
1779997167371085000,2.2980849609375,0.0012374999932944775,-1.5234999656677246,3.1923375129699707
1779997167388361500,2.315361572265625,0.16101250052452087,-2.024275064468384,2.3372249603271484
1779997167405637600,2.3326376953125,0.13048750162124634,-2.283324956893921,0.0611874982714653
1779997167422914300,2.349914306640625,0.04124999791383743,-0.9578250050544739,-0.6193000078201294
1779997167440190700,2.367190673828125,-0.03451250120997429,0.8967750072479248,-0.3689124882221222
1779997167457467000,2.384466796875,-0.07108750194311142,2.2957000732421875,-0.4629625082015991
1779997167474743600,2.40174365234375,-0.055275000631809235,2.399512529373169,-1.881274938583374
1779997167492019700,2.419019775390625,0.04001250118017197,1.4954500198364258,-0.3469125032424927
1779997167509296400,2.43629638671875,0.009487500414252281,-0.5863000154495239,1.5455000400543213
1779997167526572500,2.453572509765625,-0.05156249925494194,-2.5936625003814697,-1.9460375308990479
1779997167543849000,2.470848876953125,-0.05403750017285347,-2.649899959564209,0.8809624910354614
1779997167561125400,2.48812548828125,0.07796250283718109,-0.808775007724762,1.5651625394821167
1779997167578401800,2.50540185546875,0.03148749843239784,0.8857749700546265,1.8277875185012817
1779997167595678200,2.52267822265625,-0.10656250268220901,2.047650098800659,0.8321499824523926
1779997167612954600,2.53995458984375,-0.1480875015258789,2.0536999702453613,-1.6589374542236328
1779997167630231000,2.55723095703125,-0.09556250274181366,0.8687250018119812,-4.333312511444092
1779997167647507500,2.574507568359375,0.021724998950958252,-0.520437479019165,2.023312568664551
1779997167664784100,2.5917841796875,0.07919999957084656,-1.3585000038146973,2.040362596511841
1779997167682060300,2.609060302734375,0.05596249923110008,-2.230799913406372,-0.5692499876022339
1779997167699336700,2.626336669921875,-0.02708750031888485,-1.5100250244140625,-1.3743125200271606
1779997167716613400,2.64361328125,-0.030799999833106995,0.17104999721050262,-0.8038250207901001
1779997167733889800,2.660889892578125,0.022962499409914017,1.8081250190734863,0.2139499932527542
1779997167751166000,2.678166015625,0.01924999989569187,2.4227499961853027,0.22123749554157257
1779997167768442600,2.695442626953125,0.010724999941885471,1.5712125301361084,-0.3102000057697296
1779997167785719000,2.712718994140625,0.0034374999813735485,-0.21615000069141388,0.38733750581741333
1779997167802995500,2.729995361328125,-0.03451250120997429,-1.8959875106811523,-0.4311999976634979
1779997167820271900,2.74727197265625,-0.030799999833106995,-2.3150875568389893,0.23828749358654022
1779997167837548300,2.76454833984375,-0.0038499999791383743,-1.376787543296814,0.16376249492168427
1779997167854824700,2.78182470703125,0.007149999961256981,0.22123749554157257,0.4655750095844269
1779997167872101000,2.79910107421875,-0.006324999965727329,1.7202625274658203,0.5291000008583069
1779997167889377500,2.81637744140625,-0.020762499421834946,2.1747000217437744,-0.5229125022888184
1779997167906654000,2.833654052734375,-0.00494999997317791,1.539312481880188,-1.601599931716919
1779997167923930400,2.850930419921875,0.032999999821186066,-0.06476250290870667,1.714074969291687
1779997167941206800,2.868206787109375,-0.030524998903274536,-1.7738875150680542,-1.081162452697754
1779997167958483200,2.885483154296875,-0.04895000159740448,-2.086699962615967,0.05857500061392784
1779997167975759600,2.902759521484375,0.002474999986588955,-1.2302124500274658,1.0726374387741089
1779997168001674200,2.92867431640625,0.0037124999798834324,0.8392999768257141,0.9248250126838684
1779997168018950700,2.94595068359375,-0.05871250107884407,1.7385499477386475,0.047712501138448715
1779997168036227000,2.96322705078125,-0.06104999780654907,1.6004999876022339,-1.8203624486923218
1779997168053503500,2.98050341796875,0.0085249999538064,1.1349250078201294,-1.5723124742507935
1779997168070780000,2.99777978515625,0.023237500339746475,-0.4386250078678131,2.4483249187469482
1779997168088056300,3.015056396484375,0.006049999967217445,-1.8081250190734863,-0.8014875054359436
1779997168105332700,3.032332763671875,-0.059812501072883606,-1.6663625240325928,-1.439212441444397
1779997168122609400,3.049609375,-0.00976249948143959,-0.8062999844551086,1.5125000476837158
1779997168139885600,3.066885498046875,0.02199999988079071,0.7855374813079834,1.4269750118255615
1779997168165800400,3.092800537109375,-0.054999999701976776,1.639549970626831,-0.3188624978065491
1779997168183076900,3.110076904296875,-0.06104999780654907,1.053112506866455,-2.5338499546051025
1779997168200353000,3.12735302734375,0.0170499999076128,0.3971000015735626,0.10381250083446503
1779997168217629700,3.144629638671875,-0.0147124994546175,-0.7097749710083008,1.7714124917984009
1779997168234906000,3.161906005859375,0.004812499973922968,-1.7555999755859375,-0.9578250050544739
1779997168260820700,3.18782080078125,-0.01952499896287918,-0.8245875239372253,0.14409999549388885
1779997168278097400,3.205097412109375,0.02447500079870224,0.5179625153541565,1.3866875171661377
1779997168295373600,3.22237353515625,-0.01952499896287918,1.3719749450683594,0.6939625144004822
1779997168312650000,3.23964990234375,-0.02447500079870224,1.3561625480651855,-0.992062509059906
1779997168329926700,3.2569267578125,-0.0147124994546175,0.9065374732017517,-1.9254125356674194
1779997168347202800,3.274202880859375,0.023237500339746475,-0.2993375062942505,2.0842249393463135
1779997168364479500,3.2914794921875,0,-1.359737515449524,-0.47286251187324524
1779997168381755600,3.308755615234375,-0.03423750028014183,-1.3744499683380127,-1.2534500360488892
1779997168399032000,3.326031982421875,-0.01223750039935112,-0.7684875130653381,1.3267375230789185
1779997168416308700,3.343308837890625,0.018287500366568565,0.4398624897003174,0.8722999691963196
1779997168433585200,3.360585205078125,-0.015812499448657036,1.131350040435791,0.06599999964237213
1779997168459499800,3.386499755859375,-0.02447500079870224,1.0543500185012817,-1.9327000379562378
1779997168476776200,3.403776123046875,0.025712499395012856,0.2516250014305115,1.5087875127792358
1779997168494052600,3.421052490234375,-0.01223750039935112,-0.7550125122070312,-0.17352500557899475
1779997168511329000,3.4383291015625,-0.02928750030696392,-1.2717374563217163,-1.1031625270843506
1779997168528605400,3.45560546875,-0.0170499999076128,-1.1129250526428223,1.2607375383377075
1779997168545881900,3.4728818359375,0.01347499992698431,-0.2626250088214874,0.4446749985218048
1779997168563158500,3.490158447265625,-0.0037124999798834324,0.5644375085830688,-0.15757499635219574
1779997168580434700,3.5074345703125,-0.010999999940395355,1.0861124992370605,-0.9846374988555908
1779997168597711400,3.52471142578125,0.02694999985396862,1.2326874732971191,0.05004999786615372
1779997168614987800,3.54198779296875,0.00494999997317791,0.5264874696731567,0.5583875179290771
1779997168632264200,3.55926416015625,-0.023237500339746475,-0.5961999893188477,-0.8882499933242798
1779997168649540600,3.57654052734375,-0.00976249948143959,-1.2522125244140625,0.8430125117301941
1779997168666817300,3.5938173828125,-0.010999999940395355,-1.1923999786376953,-0.31638750433921814
1779997168684093400,3.611093505859375,-0.00976249948143959,-0.3469125032424927,-0.3151499927043915
1779997168701369900,3.628369873046875,0.006187499966472387,0.5839625000953674,0.4984374940395355
1779997168718646500,3.645646484375,0.006187499966472387,1.1716375350952148,-0.19786250591278076
1779997168735922700,3.662922607421875,0.015949999913573265,1.1752125024795532,-0.1368124932050705
1779997168753199400,3.680199462890625,0.006187499966472387,0.4629625082015991,0.3445749878883362
1779997168770475800,3.697475830078125,-0.015812499448657036,-0.5814874768257141,-0.42391249537467957
1779997168787752200,3.714752197265625,-0.014574999921023846,-1.2009249925613403,0.3689124882221222
1779997168805028600,3.732028564453125,-0.015812499448657036,-1.1508749723434448,-0.2773374915122986
1779997168822305300,3.74930517578125,-0.007287499960511923,-0.38967499136924744,0.05004999786615372
1779997168839581700,3.766581787109375,0.0037124999798834324,0.5449125170707703,0.20886249840259552
1779997168856858000,3.783858154296875,0.0085249999538064,1.1325875520706177,-0.2700499892234802
1779997168874134500,3.801134521484375,0.015949999913573265,1.1349250078201294,0.19786250591278076
1779997168891411200,3.8184111328125,0.0009624999947845936,0.4118124842643738,-0.05004999786615372
1779997168908687400,3.835687255859375,-0.010037500411272049,-0.559487521648407,-0.05238749831914902
1779997168925963800,3.8529638671875,-0.016087500378489494,-1.1704000234603882,0.08923749625682831
1779997168943240400,3.870240478515625,-0.01732499897480011,-1.089687466621399,-0.1868624985218048
1779997168960517000,3.88751708984375,-0.005087499972432852,-0.38362500071525574,0.1821874976158142
1779997168977793300,3.904793212890625,0.0034374999813735485,0.520437479019165,-0.02681249938905239
1779997169003708200,3.930708251953125,0.014437500387430191,1.2095874547958374,0.08799999952316284
1779997169029622800,3.956622802734375,-0.0002749999985098839,0.3983374834060669,-0.12815000116825104
1779997169046899200,3.973899169921875,-0.008799999952316284,-0.5484874844551086,0.0929500013589859
1779997169064175600,3.991175537109375,-0.018562499433755875,-1.1617374420166016,-0.09391249716281891
1779997169081452000,4.0084521484375,-0.016087500378489494,-1.0591624975204468,-0.0010999999940395355
1779997169098728700,4.025728759765625,-0.006324999965727329,-0.3591499924659729,0.07342500239610672
1779997169116004900,4.0430048828125,0.004674999974668026,0.5181000232696533,-0.06338749825954437
1779997169133281500,4.060281494140625,0.011962499469518661,1.1155375242233276,0.01347499992698431
1779997169150558000,4.077557861328125,0.010724999941885471,1.0800625085830688,0.050187498331069946
1779997169167834000,4.094834228515625,0.002199999988079071,0.3910500109195709,-0.030387500301003456
1779997169185110800,4.11211083984375,-0.008799999952316284,-0.5399624705314636,0.03189999982714653
1779997169202387500,4.129387451171875,-0.018562499433755875,-1.1349250078201294,-0.07562500238418579
1779997169219664000,4.146663818359375,-0.016087500378489494,-1.032349944114685,0.02447500079870224
1779997169236940300,4.163940185546875,-0.006324999965727329,-0.3529624938964844,0.006187499966472387
1779997169254216700,4.181216796875,0.004674999974668026,0.515625,-0.006049999967217445
1779997169271493000,4.1984931640625,0.010724999941885471,1.0910625457763672,0.0013749999925494194
1779997169288769500,4.21576953125,0.010724999941885471,1.0495375394821167,0.030662499368190765
1779997169306046200,4.233046142578125,0.002199999988079071,0.3788124918937683,0.00494999997317791
1779997169323322600,4.250322509765625,-0.010037500411272049,-0.5302000045776367,-0.013337500393390656
1779997169340599000,4.26759912109375,-0.016087500378489494,-1.1079750061035156,-0.028049999848008156
1779997169357875500,4.28487548828125,-0.01484999991953373,-1.010349988937378,-0.01209999993443489
1779997169375152000,4.302152099609375,-0.005087499972432852,-0.3396250009536743,0.01718750037252903
1779997169392428300,4.31942822265625,0.004674999974668026,0.5106750130653381,0.006187499966472387
1779997169409705000,4.336705078125,0.010724999941885471,1.0690624713897705,-0.018287500366568565
1779997169426981400,4.3539814453125,0.010724999941885471,1.0300124883651733,0.05142499879002571
1779997169444257800,4.3712578125,0.002199999988079071,0.35804998874664307,-0.009624999947845936
1779997169461534200,4.3885341796875,-0.010037500411272049,-0.5314375162124634,-0.002337499987334013
1779997169478811000,4.405810791015625,-0.01732499897480011,-1.0848749876022339,-0.03162499889731407
1779997169496087600,4.423087646484375,-0.016087500378489494,-0.9821624755859375,-0.014574999921023846
1779997169522002000,4.449001953125,0.0009624999947845936,0.0952875018119812,0.015949999913573265
1779997169539278600,4.466278564453125,0.008249999955296516,0.8357250094413757,-0.020624998956918716
1779997169556555300,4.48355517578125,0.010724999941885471,1.105637550354004,0.029424998909235
1779997169573831400,4.50083154296875,0.008249999955296516,0.7354875206947327,0.01966249942779541
1779997169591108000,4.518108154296875,-0.003987499978393316,-0.10009999573230743,-0.010862499475479126
1779997169608384500,4.535384521484375,-0.013749999925494194,-0.8648750185966492,-0.010862499475479126
1779997169625661000,4.552660888671875,-0.016087500378489494,-1.093400001525879,-0.03657500073313713
1779997169642937300,4.569937255859375,-0.011274999938905239,-0.686537504196167,0.015949999913573265
1779997169660213800,4.5872138671875,-0.0002749999985098839,0.10023749619722366,0.008662499487400055
1779997169677490200,4.604490234375,0.008249999955296516,0.825962483882904,-0.009624999947845936
1779997169694766800,4.621766845703125,0.010724999941885471,1.0873500108718872,0.025712499395012856
1779997169712043300,4.639043212890625,0.007012499962002039,0.7147250175476074,0.020899999886751175
1779997169729319700,4.656319580078125,-0.005087499972432852,-0.11110000312328339,-0.010862499475479126
1779997169746596000,4.67359619140625,-0.013749999925494194,-0.861299991607666,-0.01209999993443489
1779997169763872800,4.690872802734375,-0.01732499897480011,-1.0714000463485718,-0.030387500301003456
1779997169781149200,4.708149169921875,-0.010037500411272049,-0.6620625257492065,0.011137500405311584
1779997169798425600,4.725425537109375,0.0009624999947845936,0.10999999940395355,0.011137500405311584
1779997169815702000,4.742701904296875,0.007012499962002039,0.8162000179290771,-0.01209999993443489
1779997169832978700,4.759978759765625,0.009487500414252281,1.0592999458312988,0.02447500079870224
1779997169850255000,4.777255126953125,0.008249999955296516,0.6914874911308289,0.018424998968839645
1779997169867531500,4.794531494140625,-0.003987499978393316,-0.11233749985694885,-0.009624999947845936
1779997169884808200,4.81180810546875,-0.01347499992698431,-0.8430125117301941,-0.01347499992698431
1779997169902084600,4.829084716796875,-0.015812499448657036,-1.049399971961975,-0.030524998903274536
1779997169919361000,4.846361083984375,-0.010999999940395355,-0.6450124979019165,0.010999999940395355
1779997169936637400,4.863637451171875,0,0.11357499659061432,0.007287499960511923
1779997169953914000,4.8809140625,0.007287499960511923,0.8062999844551086,-0.007287499960511923
1779997169971190300,4.898190185546875,0.010999999940395355,1.0458250045776367,0.023237500339746475
1779997169988467000,4.915467041015625,0.007287499960511923,0.6732000112533569,0.018287500366568565
1779997170005743400,4.932743408203125,-0.0037124999798834324,-0.12457499653100967,-0.00976249948143959
1779997170023019800,4.950019775390625,-0.0147124994546175,-0.8368250131607056,-0.0147124994546175
1779997170040296400,4.96729638671875,-0.015812499448657036,-1.027400016784668,-0.02681249938905239
1779997170057572900,4.98457275390625,-0.00976249948143959,-0.6254875063896179,0.007287499960511923
1779997170074849300,5.001849365234375,0,0.12581250071525574,0.00976249948143959
1779997170092125700,5.019125732421875,0.0085249999538064,0.7977749705314636,-0.00494999997317791
1779997170109402400,5.03640234375,0.00976249948143959,1.0201125144958496,0.02199999988079071
1779997170126678800,5.0536787109375,0.006187499966472387,0.6474875211715698,0.020762499421834946
1779997170143955500,5.07095556640625,-0.004812499973922968,-0.13557499647140503,-0.010999999940395355
1779997170161232000,5.08823193359375,-0.01347499992698431,-0.8282999992370605,-0.01223750039935112
1779997170178508000,5.105508056640625,-0.015812499448657036,-1.005537509918213,-0.028049999848008156
1779997170195784700,5.12278466796875,-0.00976249948143959,-0.6011499762535095,0.007287499960511923
1779997170213061400,5.140061279296875,0,0.1331000030040741,0.00976249948143959
1779997170230337500,5.157337646484375,0.0085249999538064,0.7855374813079834,-0.0085249999538064
1779997170247614200,5.1746142578125,0.01223750039935112,0.9981124997138977,0.02681249938905239
1779997170273528800,5.20052880859375,0.0012374999932944775,0.2638624906539917,-0.00494999997317791
1779997170290805200,5.21780517578125,-0.0085249999538064,-0.520437479019165,-0.00494999997317791
1779997170308082000,5.23508203125,-0.0147124994546175,-0.9748749732971191,-0.02928750030696392
1779997170325358300,5.2523583984375,-0.01347499992698431,-0.8454874753952026,-0.006049999967217445
1779997170342634800,5.269634765625,-0.004812499973922968,-0.23457500338554382,0.00494999997317791
1779997170359911400,5.286911376953125,0.00494999997317791,0.5069624781608582,0.002474999986588955
1779997170377187800,5.304187744140625,0.010999999940395355,0.9553499817848206,0.00976249948143959
1779997170394464300,5.32146435546875,0.0085249999538064,0.8575875163078308,0.02681249938905239
1779997170411740700,5.33874072265625,0,0.23828749358654022,0.0012374999932944775
1779997170429017300,5.356017333984375,-0.00976249948143959,-0.5302000045776367,-0.010999999940395355
1779997170446293800,5.373293701171875,-0.0147124994546175,-0.9638749957084656,-0.02447500079870224
1779997170472208400,5.39920849609375,-0.0085249999538064,-0.5583875179290771,0.002474999986588955
1779997170489485000,5.416485107421875,0,0.1648624986410141,0.0085249999538064
1779997170506761500,5.433761474609375,0.007287499960511923,0.7917249798774719,0
1779997170524038000,5.451037841796875,0.010999999940395355,0.9627749919891357,0.023237500339746475
1779997170541314600,5.468314453125,0.006049999967217445,0.568149983882904,0.015949999913573265
1779997170558591000,5.485591064453125,-0.00494999997317791,-0.18205000460147858,-0.00976249948143959
1779997170575867600,5.50286767578125,-0.01223750039935112,-0.8137249946594238,-0.0170499999076128
1779997170593144000,5.52014404296875,-0.0147124994546175,-0.9468249678611755,-0.02199999988079071
1779997170610420500,5.53742041015625,-0.0085249999538064,-0.5326749682426453,0.00494999997317791
1779997170627697000,5.55469677734375,0,0.18205000460147858,0.007287499960511923
1779997170644973300,5.571973388671875,0.007287499960511923,0.7880125045776367,0.0012374999932944775
1779997170662250000,5.58925,0.00976249948143959,0.9418749809265137,0.02199999988079071
1779997170679526400,5.6065263671875,0.00494999997317791,0.5411999821662903,0.0147124994546175
1779997170696802800,5.623802734375,-0.00494999997317791,-0.19676250219345093,-0.0085249999538064
1779997170714079500,5.64107958984375,-0.01223750039935112,-0.808775007724762,-0.015949999913573265
1779997170731356000,5.65835595703125,-0.0147124994546175,-0.9248250126838684,-0.01952499896287918
1779997170748632600,5.675632568359375,-0.00976249948143959,-0.5081999897956848,0.0037124999798834324
1779997170765909000,5.692908935546875,0,0.1942874938249588,0.006049999967217445
1779997170783185400,5.710185302734375,0.007287499960511923,0.7842999696731567,0
1779997170800461800,5.7274619140625,0.00976249948143959,0.9235875010490417,0.02447500079870224
1779997170817738200,5.74473828125,0.00494999997317791,0.5167250037193298,0.010999999940395355
1779997170835015000,5.762014892578125,-0.006049999967217445,-0.21133749186992645,-0.006049999967217445
1779997170852291300,5.779291259765625,-0.01347499992698431,-0.8027250170707703,-0.018287500366568565
1779997170869567700,5.796567626953125,-0.0147124994546175,-0.9065374732017517,-0.0170499999076128
1779997170886844400,5.813844482421875,-0.008799999952316284,-0.48496249318122864,0.002612499985843897
1779997170904120800,5.831120849609375,-0.0002749999985098839,0.20776249468326569,0.006187499966472387
1779997170921397200,5.848397216796875,0.007149999961256981,0.7794874906539917,0.0013749999925494194
1779997170938674000,5.865673828125,0.009487500414252281,0.9040625095367432,0.023375000804662704
1779997170955950300,5.882950439453125,0.004674999974668026,0.4936249852180481,0.011137500405311584
1779997170973226800,5.900226806640625,-0.005087499972432852,-0.22357499599456787,-0.007287499960511923
1779997170990503400,5.91750341796875,-0.01251249946653843,-0.7977749705314636,-0.0193875003606081
1779997171007779800,5.93477978515625,-0.013612499460577965,-0.8868749737739563,-0.018287500366568565
1779997171033694500,5.960694580078125,-0.002749999985098839,-0.13062499463558197,0.00494999997317791
1779997171050971100,5.97797119140625,0.004674999974668026,0.5400999784469604,0.0037124999798834324
1779997171068247600,5.99524755859375,0.009487500414252281,0.8992499709129333,0.012374999932944775
1779997171085524200,6.012524169921875,0.007149999961256981,0.7404375076293945,0.020899999886751175
1779997171102800600,6.029800537109375,-0.0002749999985098839,0.12828749418258667,0.00013749999925494194
1779997171120077000,6.0470771484375,-0.010037500411272049,-0.5619624853134155,-0.013337500393390656
1779997171137353500,6.064353515625,-0.013612499460577965,-0.8978750109672546,-0.02186249941587448
1779997171154630100,6.081630126953125,-0.011274999938905239,-0.7048249840736389,-0.006049999967217445
1779997171171906600,6.098906494140625,-0.002749999985098839,-0.10986249893903732,0.00494999997317791
1779997171189183200,6.116183349609375,0.004674999974668026,0.5473874807357788,0.00494999997317791
1779997171206459600,6.133459716796875,0.009487500414252281,0.8894875049591064,0.012374999932944775
1779997171223736000,6.150736083984375,0.007149999961256981,0.717199981212616,0.020899999886751175
1779997171241012500,6.168012451171875,-0.0015124999918043613,0.10628750175237656,0.00013749999925494194
1779997171258289200,6.1852890625,-0.010037500411272049,-0.5704874992370605,-0.013337500393390656
1779997171284203800,6.211203857421875,-0.01484999991953373,-0.8478249907493591,-0.014574999921023846
1779997171301480400,6.22848046875,-0.008799999952316284,-0.41538751125335693,0.0013749999925494194
1779997171318756600,6.245756591796875,-0.0002749999985098839,0.2529999911785126,0.00494999997317791
1779997171336033300,6.263033203125,0.005912499967962503,0.7734375,0.00494999997317791
1779997171353309700,6.280309814453125,0.008249999955296516,0.847962498664856,0.020899999886751175
1779997171370586000,6.297586181640625,0.002199999988079071,0.41786250472068787,0.00989999994635582
1779997171387862800,6.31486279296875,-0.006049999967217445,-0.26881250739097595,-0.007287499960511923
1779997171405139200,6.33213916015625,-0.01223750039935112,-0.7880125045776367,-0.01952499896287918
1779997171422415600,6.34941552734375,-0.01347499992698431,-0.8282999992370605,-0.01347499992698431
1779997171439692300,6.3666923828125,-0.007287499960511923,-0.3909125030040741,0.0012374999932944775
1779997171456968700,6.38396875,0.002474999986588955,0.26881250739097595,0.00494999997317791
1779997171474245000,6.4012451171875,0.0085249999538064,0.7697250247001648,0.006049999967217445
1779997171491521800,6.418521728515625,0.0085249999538064,0.8282999992370605,0.020762499421834946
1779997171508798200,6.435798095703125,0.0037124999798834324,0.39214998483657837,0.00976249948143959
1779997171526075000,6.453074951171875,-0.00494999997317791,-0.28462499380111694,-0.0085249999538064
1779997171543351300,6.470351318359375,-0.01223750039935112,-0.781962513923645,-0.018287500366568565
1779997171560627700,6.487627685546875,-0.01223750039935112,-0.8075374960899353,-0.01347499992698431
1779997171577904400,6.504904296875,-0.006049999967217445,-0.3665750026702881,0
1779997171595181000,6.52218115234375,0.002474999986588955,0.282150000333786,0.00494999997317791
1779997171612457200,6.539457275390625,0.0085249999538064,0.7660124897956848,0.006049999967217445
1779997171629734000,6.55673388671875,0.00976249948143959,0.808775007724762,0.01952499896287918
1779997171647010300,6.57401025390625,0.0037124999798834324,0.37014999985694885,0.007287499960511923
1779997171664287000,6.591286865234375,-0.006049999967217445,-0.29809999465942383,-0.007287499960511923
1779997171681563400,6.6085634765625,-0.01347499992698431,-0.778249979019165,-0.01952499896287918
1779997171698839800,6.62583984375,-0.01347499992698431,-0.7892500162124634,-0.01223750039935112
1779997171716116500,6.643116455078125,-0.007287499960511923,-0.3445749878883362,0.0012374999932944775
1779997171733393000,6.660392822265625,0,0.29438748955726624,0.00494999997317791
1779997171750669300,6.67766943359375,0.007287499960511923,0.7623000144958496,0.007287499960511923
1779997171767946000,6.694946044921875,0.0085249999538064,0.7892500162124634,0.01952499896287918
1779997171785222100,6.71222216796875,0.002474999986588955,0.3469125032424927,0.0085249999538064
1779997171802498800,6.729498779296875,-0.007287499960511923,-0.3128125071525574,-0.00976249948143959
1779997171819775500,6.746775390625,-0.01223750039935112,-0.7732999920845032,-0.018287500366568565
1779997171837051600,6.7640517578125,-0.01223750039935112,-0.7697250247001648,-0.01223750039935112
1779997171854328300,6.781328369140625,-0.006049999967217445,-0.32133749127388,0
1779997171871605000,6.79860498046875,0.002474999986588955,0.3091000020503998,0.007287499960511923
1779997171888881400,6.81588134765625,0.007287499960511923,0.7599624991416931,0.007287499960511923
1779997171906157800,6.83315771484375,0.0085249999538064,0.7709624767303467,0.020762499421834946
1779997171923434200,6.850434326171875,0.002474999986588955,0.32381248474121094,0.006049999967217445
1779997171940711000,6.8677109375,-0.006049999967217445,-0.32491248846054077,-0.0085249999538064
1779997171957987600,6.884987548828125,-0.01223750039935112,-0.7684875130653381,-0.01952499896287918
1779997171975264000,6.902263916015625,-0.01223750039935112,-0.7501999735832214,-0.00976249948143959
1779997171992540400,6.91954052734375,-0.006049999967217445,-0.2993375062942505,0.0012374999932944775
1779997172009817000,6.936817138671875,0.002474999986588955,0.32133749127388,0.00494999997317791
1779997172027093800,6.95409375,0.0085249999538064,0.7550125122070312,0.0085249999538064
1779997172044370000,6.971369873046875,0.007287499960511923,0.7525374889373779,0.018287500366568565
1779997172061646600,6.988646484375,0.0012374999932944775,0.30057498812675476,0.007287499960511923
1779997172078923000,7.005923095703125,-0.007287499960511923,-0.33838748931884766,-0.0085249999538064
1779997172096199700,7.02319970703125,-0.01223750039935112,-0.7623000144958496,-0.018287500366568565
1779997172113476000,7.04047607421875,-0.010999999940395355,-0.7293000221252441,-0.010999999940395355
1779997172130752500,7.05775244140625,-0.006049999967217445,-0.2773374915122986,0
1779997172148029000,7.07502880859375,0.002474999986588955,0.3310999870300293,0.007287499960511923
1779997172173943800,7.10094384765625,0.0085249999538064,0.8038250207901001,0.0147124994546175
1779997172191220500,7.118220458984375,0.006187499966472387,0.5546749830245972,0.0147124994546175
1779997172208496600,7.13549658203125,-0.0012374999932944775,-0.03904999792575836,-0.002474999986588955
1779997172225773300,7.152773193359375,-0.00976249948143959,-0.6059625148773193,-0.0147124994546175
1779997172251688200,7.178688232421875,-0.01223750039935112,-0.7110124826431274,-0.010999999940395355
1779997172268964400,7.19596435546875,-0.004812499973922968,-0.2578125,0
1779997172286241000,7.213240966796875,0.002474999986588955,0.3445749878883362,0.006049999967217445
1779997172303517700,7.230517578125,0.007287499960511923,0.7452499866485596,0.0085249999538064
1779997172320794000,7.247794189453125,0.006187499966472387,0.7147250175476074,0.0170499999076128
1779997172338070800,7.26507080078125,0.0012374999932944775,0.25657498836517334,0.006049999967217445
1779997172355347200,7.28234716796875,-0.007287499960511923,-0.36038750410079956,-0.0085249999538064
1779997172372623600,7.29962353515625,-0.01223750039935112,-0.7489625215530396,-0.018287500366568565
1779997172389900300,7.316900390625,-0.01251249946653843,-0.6925874948501587,-0.008387500420212746
1779997172407176700,7.3341767578125,-0.006324999965727329,-0.23691250383853912,0.00013749999925494194
1779997172424453000,7.351453125,0.0034374999813735485,0.3543374836444855,0.00494999997317791
1779997172441729800,7.368729736328125,0.007149999961256981,0.7391999959945679,0.008662499487400055
1779997172467644400,7.39464453125,0.004674999974668026,0.5094375014305115,0.012374999932944775
1779997172484920800,7.4119208984375,-0.0038499999791383743,-0.07452499866485596,-0.0010999999940395355
1779997172502197200,7.429197265625,-0.011274999938905239,-0.6107749938964844,-0.014574999921023846
1779997172519474000,7.446473876953125,-0.01251249946653843,-0.7708249688148499,-0.013337500393390656
1779997172536750300,7.463750244140625,-0.007562499959021807,-0.4824874997138977,-0.004812499973922968
1779997172554027000,7.481027099609375,-0.0015124999918043613,0.08195000141859055,0.00494999997317791
1779997172571303400,7.498303466796875,0.005912499967962503,0.594962477684021,0.007424999959766865
1779997172588579800,7.515579833984375,0.008249999955296516,0.7647749781608582,0.01347499992698431
1779997172605856500,7.5328564453125,0.004674999974668026,0.48867499828338623,0.01347499992698431
1779997172623133000,7.5501328125,-0.002749999985098839,-0.09157499670982361,-0.004812499973922968
1779997172640409600,7.56740966796875,-0.010037500411272049,-0.612012505531311,-0.014574999921023846
1779997172657686000,7.58468603515625,-0.01251249946653843,-0.7562500238418579,-0.014574999921023846
1779997172674962700,7.601962646484375,-0.008799999952316284,-0.4604874849319458,-0.002337499987334013
1779997172692238800,7.61923876953125,-0.002749999985098839,0.0989999994635582,0.0037124999798834324
1779997172709515500,7.636515625,0.004674999974668026,0.5974375009536743,0.007424999959766865
1779997172726792200,7.653792236328125,0.007149999961256981,0.7501999735832214,0.01347499992698431
1779997172744068400,7.671068359375,0.0034374999813735485,0.46681249141693115,0.012374999932944775
1779997172761344800,7.6883447265625,-0.0038499999791383743,-0.10628750175237656,-0.0035749999806284904
1779997172778621400,7.705621337890625,-0.010037500411272049,-0.6095374822616577,-0.015812499448657036
1779997172795897900,7.72289794921875,-0.011274999938905239,-0.7415375113487244,-0.010862499475479126
1779997172813174500,7.740174560546875,-0.007562499959021807,-0.4409624934196472,-0.006049999967217445
1779997172830451000,7.757450927734375,-0.0015124999918043613,0.11123749613761902,0.007424999959766865
1779997172847727400,7.774727294921875,0.004674999974668026,0.5961999893188477,0.00494999997317791
1779997172865004000,7.792004150390625,0.007149999961256981,0.7379624843597412,0.015949999913573265
1779997172882280700,7.80928076171875,0.0034374999813735485,0.4483875036239624,0.011137500405311584
1779997172899557000,7.82655712890625,-0.0038499999791383743,-0.12086249887943268,-0.0035749999806284904
1779997172916833500,7.84383349609375,-0.011274999938905239,-0.6107749938964844,-0.014574999921023846
1779997172934110000,7.86110986328125,-0.01251249946653843,-0.7293000221252441,-0.01209999993443489
1779997172951386600,7.87838671875,-0.008799999952316284,-0.42143750190734863,-0.0035749999806284904
1779997172968663300,7.895663330078125,-0.0015124999918043613,0.1247124969959259,0.0037124999798834324
1779997172985939700,7.912939697265625,0.004674999974668026,0.5974375009536743,0.008662499487400055
1779997173011854300,7.938854248046875,0.005912499967962503,0.6256250143051147,0.0147124994546175
1779997173029131000,7.956131103515625,-0.0002749999985098839,0.16005000472068787,0.0037124999798834324
1779997173046407400,7.973407470703125,-0.008799999952316284,-0.4054875075817108,-0.010862499475479126
1779997173063684000,7.99068408203125,-0.01251249946653843,-0.7145875096321106,-0.014574999921023846
1779997173080960500,8.00796044921875,-0.011274999938905239,-0.603487491607666,-0.008387500420212746
1779997173098237000,8.02523681640625,-0.0038499999791383743,-0.14409999549388885,0.002612499985843897
1779997173115513300,8.042513427734375,0.002199999988079071,0.3983374834060669,0.006187499966472387
1779997173132790000,8.0597900390625,0.007149999961256981,0.708674967288971,0.011137500405311584
1779997173150066400,8.07706640625,0.005912499967962503,0.607200026512146,0.015949999913573265
1779997173167342800,8.0943427734375,-0.0002749999985098839,0.1405249983072281,0.002612499985843897
1779997173184619500,8.11161962890625,-0.007562499959021807,-0.4141499996185303,-0.009624999947845936
1779997173201896200,8.128896240234376,-0.011274999938905239,-0.7060624957084656,-0.0170499999076128
1779997173227811000,8.15481103515625,-0.006324999965727329,-0.3823874890804291,-0.0035749999806284904
1779997173245087200,8.172087158203125,0.0009624999947845936,0.15399999916553497,0.00494999997317791
1779997173262364000,8.189364013671875,0.007149999961256981,0.5974375009536743,0.008662499487400055
1779997173279640300,8.206640380859374,0.007149999961256981,0.6964374780654907,0.01347499992698431
1779997173296917000,8.2239169921875,0.002199999988079071,0.38733750581741333,0.011137500405311584
1779997173314193400,8.241193359375,-0.005087499972432852,-0.16362500190734863,-0.0035749999806284904
1779997173331469800,8.2584697265625,-0.010037500411272049,-0.6095374822616577,-0.015812499448657036
1779997173348746200,8.275746337890626,-0.01251249946653843,-0.6840624809265137,-0.009624999947845936
1779997173366023000,8.29302294921875,-0.008799999952316284,-0.36162498593330383,-0.0035749999806284904
1779997173383299600,8.310299560546875,-0.0002749999985098839,0.1662375032901764,0.006187499966472387
1779997173400576000,8.327575927734374,0.006187499966472387,0.5974375009536743,0.006049999967217445
1779997173417852400,8.344852294921875,0.006187499966472387,0.6829624772071838,0.0147124994546175
1779997173435129000,8.362129150390626,0.0037124999798834324,0.3676750063896179,0.0085249999538064
1779997173452405500,8.379405517578125,-0.0035749999806284904,-0.17710000276565552,-0.006049999967217445
1779997173469682000,8.396681884765625,-0.00976249948143959,-0.6084374785423279,-0.01347499992698431
1779997173486958600,8.41395849609375,-0.010999999940395355,-0.6707249879837036,-0.01223750039935112
1779997173504235000,8.431235107421875,-0.006049999967217445,-0.3433375060558319,-0.0037124999798834324
1779997173521511400,8.448511474609376,0.0012374999932944775,0.18081249296665192,0.00494999997317791
1779997173538788000,8.4657880859375,0.00494999997317791,0.5974375009536743,0.006049999967217445
1779997173556064500,8.483064453125,0.006187499966472387,0.6682500243186951,0.015949999913573265
1779997173573341000,8.5003408203125,0.002474999986588955,0.3469125032424927,0.006049999967217445
1779997173590617600,8.51761767578125,-0.004812499973922968,-0.19181250035762787,-0.0037124999798834324
1779997173607894000,8.53489404296875,-0.00976249948143959,-0.6059625148773193,-0.0147124994546175
1779997173625170700,8.552170654296875,-0.0085249999538064,-0.6560124754905701,-0.00976249948143959
1779997173642447000,8.569447021484375,-0.004812499973922968,-0.32615000009536743,-0.00494999997317791
1779997173659723500,8.5867236328125,0.0012374999932944775,0.1905750036239624,0.00494999997317791
1779997173677000200,8.604000244140625,0.006187499966472387,0.594962477684021,0.007287499960511923
1779997173694276600,8.621276611328126,0.0085249999538064,0.6547750234603882,0.0147124994546175
1779997173711553000,8.638552978515625,0.0037124999798834324,0.329862505197525,0.007287499960511923
1779997173728829700,8.65582958984375,-0.0035749999806284904,-0.20281249284744263,-0.00494999997317791
1779997173746106000,8.673106201171874,-0.010999999940395355,-0.6059625148773193,-0.015812499448657036
1779997173772021000,8.69902099609375,-0.0085249999538064,-0.5143874883651733,-0.00494999997317791
1779997173789297400,8.71629736328125,-0.002337499987334013,-0.05871250107884407,0.0012374999932944775
1779997173806573800,8.73357373046875,0.0037124999798834324,0.4324375092983246,0.0085249999538064
1779997173823850500,8.7508505859375,0.006187499966472387,0.6707249879837036,0.01223750039935112
1779997173841127000,8.768126953125,0.0037124999798834324,0.5191999673843384,0.010999999940395355
1779997173858403300,8.7854033203125,-0.0012374999932944775,0.05252499878406525,0.002474999986588955
1779997173875680000,8.802679931640625,-0.007287499960511923,-0.4446749985218048,-0.0147124994546175
1779997173901595000,8.828594970703126,-0.010037500411272049,-0.6279624700546265,-0.009624999947845936
1779997173918871000,8.84587109375,-0.006324999965727329,-0.28943750262260437,-0.0035749999806284904
1779997173936147700,8.863147705078125,-0.0002749999985098839,0.21381250023841858,0.006187499966472387
1779997173953424400,8.88042431640625,0.004674999974668026,0.5913875102996826,0.007424999959766865
1779997173970700800,8.89770068359375,0.005912499967962503,0.6279624700546265,0.0147124994546175
1779997173987977200,8.914977294921876,0.002199999988079071,0.2932874858379364,0.006187499966472387
1779997174005254000,8.93225390625,-0.005087499972432852,-0.22591249644756317,-0.007287499960511923
1779997174022530300,8.9495302734375,-0.010037500411272049,-0.5997750163078308,-0.013337500393390656
1779997174039807000,8.966806884765624,-0.011274999938905239,-0.6144874691963196,-0.009624999947845936
1779997174057083400,8.98408349609375,-0.005087499972432852,-0.2723875045776367,-0.0010999999940395355
1779997174074359800,9.00135986328125,0.0009624999947845936,0.22357499599456787,0.0037124999798834324
1779997174091636500,9.018636474609375,0.007012499962002039,0.5889124870300293,0.008662499487400055
1779997174108913000,9.035912841796875,0.004674999974668026,0.6146249771118164,0.01347499992698431
1779997174134827800,9.061827880859376,-0.0015124999918043613,0.02199999988079071,0.00013749999925494194
1779997174152104400,9.0791044921875,-0.007562499959021807,-0.45196250081062317,-0.010862499475479126
1779997174169380900,9.096380859375,-0.010037500411272049,-0.6487249732017517,-0.01209999993443489
1779997174186657300,9.1136572265625,-0.007562499959021807,-0.46543750166893005,-0.004812499973922968
1779997174203933700,9.13093359375,-0.0015124999918043613,-0.013337500393390656,0.002612499985843897
1779997174221210400,9.14821044921875,0.002199999988079071,0.443574994802475,0.006187499966472387
1779997174238486800,9.16548681640625,0.005912499967962503,0.64267498254776,0.012374999932944775
1779997174255763500,9.182763427734375,0.0034374999813735485,0.46681249141693115,0.011137500405311584
1779997174273040000,9.200039794921874,-0.002749999985098839,0.00976249948143959,0.00013749999925494194
1779997174290316500,9.217316650390625,-0.008799999952316284,-0.4544374942779541,-0.013337500393390656
1779997174307593000,9.234593017578124,-0.011274999938905239,-0.6377249956130981,-0.010862499475479126
1779997174324869400,9.251869384765625,-0.008799999952316284,-0.4482499957084656,-0.006049999967217445
1779997174342146000,9.26914599609375,-0.0015124999918043613,0,0.002612499985843897
1779997174368060700,9.295060791015626,0.005912499967962503,0.5841000080108643,0.007424999959766865
1779997174385337300,9.31233740234375,0.005912499967962503,0.5864375233650208,0.012374999932944775
1779997174402613800,9.32961376953125,0.002474999986588955,0.24062499403953552,0.007287499960511923
1779997174419890200,9.34689013671875,-0.00494999997317791,-0.25533750653266907,-0.0085249999538064
1779997174437166800,9.364166748046875,-0.00976249948143959,-0.5876749753952026,-0.01347499992698431
1779997174454443300,9.381443359375,-0.00976249948143959,-0.5717250108718872,-0.010999999940395355
1779997174471720000,9.398719970703125,-0.00494999997317791,-0.22481249272823334,0
1779997174488996000,9.41599609375,0.0012374999932944775,0.2503874897956848,0.00494999997317791
1779997174506272800,9.433272705078124,0.00494999997317791,0.5802500247955322,0.0085249999538064
1779997174523549200,9.450549072265625,0.00494999997317791,0.5729625225067139,0.01347499992698431
1779997174540825900,9.467825927734374,0,0.22481249272823334,0.00494999997317791
1779997174558102300,9.485102294921875,-0.006049999967217445,-0.2626250088214874,-0.006049999967217445
1779997174575379000,9.50237890625,-0.010999999940395355,-0.5827249884605408,-0.0147124994546175
1779997174592655000,9.519655029296874,-0.00976249948143959,-0.5583875179290771,-0.007287499960511923
1779997174609931800,9.536931884765625,-0.00494999997317791,-0.210099995136261,-0.0012374999932944775
1779997174627208400,9.55420849609375,0.0012374999932944775,0.25905001163482666,0.006049999967217445
1779997174644484900,9.57148486328125,0.00494999997317791,0.5766749978065491,0.0085249999538064
1779997174661761300,9.58876123046875,0.006049999967217445,0.5607249736785889,0.01223750039935112
1779997174679038000,9.606037841796875,0,0.20886249840259552,0.006049999967217445
1779997174696314400,9.623314453125,-0.006049999967217445,-0.2712875008583069,-0.006049999967217445
1779997174722229200,9.649229248046876,-0.00976249948143959,-0.6109125018119812,-0.010999999940395355
1779997174739506000,9.666505859375,-0.007287499960511923,-0.39943748712539673,-0.0037124999798834324
1779997174756782000,9.683781982421875,-0.0012374999932944775,0.04028749838471413,0.002474999986588955
1779997174774058800,9.701058837890624,0.0037124999798834324,0.45567500591278076,0.0085249999538064
1779997174791335400,9.71833544921875,0.006049999967217445,0.6059625148773193,0.010999999940395355
1779997174808611800,9.73561181640625,0.0037124999798834324,0.4031499922275543,0.010999999940395355
1779997174825888500,9.752888427734375,-0.002474999986588955,-0.045237500220537186,-0.0012374999932944775
1779997174843164700,9.77016455078125,-0.0085249999538064,-0.4641999900341034,-0.01223750039935112
1779997174860441300,9.78744140625,-0.00976249948143959,-0.6022499799728394,-0.00976249948143959
1779997174877718000,9.804718017578125,-0.007287499960511923,-0.38609999418258667,-0.00494999997317791
1779997174894994400,9.821994384765626,-0.0012374999932944775,0.05252499878406525,0.002474999986588955
1779997174920909300,9.847909423828124,0.00494999997317791,0.5704874992370605,0.0085249999538064
1779997174938185700,9.865185791015625,0.00494999997317791,0.5339124798774719,0.010999999940395355
1779997174955462400,9.88246240234375,0,0.17957499623298645,0.00494999997317791
1779997174972738600,9.899738525390624,-0.006049999967217445,-0.2858625054359436,-0.007287499960511923
1779997174990015200,9.91701513671875,-0.0085249999538064,-0.5704874992370605,-0.01347499992698431
1779997175015930000,9.94293017578125,-0.007287499960511923,-0.37014999985694885,-0.0037124999798834324
1779997175033206500,9.96020654296875,-0.0012374999932944775,0.06476250290870667,0.0037124999798834324
1779997175050483200,9.977483154296875,0.0037124999798834324,0.45938751101493835,0.007287499960511923
1779997175067759600,9.994759521484376,0.006187499966472387,0.5876749753952026,0.010999999940395355
1779997175085036000,10.0120361328125,0.0037124999798834324,0.37386250495910645,0.0085249999538064
1779997175102312700,10.029312744140626,-0.0035749999806284904,-0.07081250101327896,-0.0012374999932944775
1779997175119589000,10.046589111328124,-0.0085249999538064,-0.467912495136261,-0.01223750039935112
1779997175136865500,10.063865478515625,-0.00976249948143959,-0.5827249884605408,-0.00976249948143959
1779997175154142200,10.08114208984375,-0.006049999967217445,-0.3543374836444855,-0.00494999997317791
1779997175171419000,10.0984189453125,-0.0012374999932944775,0.07452499866485596,0.002474999986588955
1779997175188695300,10.1156953125,0.00494999997317791,0.4618625044822693,0.0085249999538064
1779997175205971700,10.1329716796875,0.00494999997317791,0.5779125094413757,0.010999999940395355
1779997175223248400,10.150248291015625,0.002474999986588955,0.3591499924659729,0.0085249999538064
1779997175240524800,10.16752490234375,-0.0035749999806284904,-0.08057499676942825,-0.002474999986588955
1779997175257801200,10.18480126953125,-0.0085249999538064,-0.46915000677108765,-0.010999999940395355
1779997175275077600,10.20207763671875,-0.00976249948143959,-0.5729625225067139,-0.00976249948143959
1779997175292354300,10.219354248046875,-0.006049999967217445,-0.340862512588501,-0.0037124999798834324
1779997175318269200,10.245269287109375,0.0012374999932944775,0.29438748955726624,0.006049999967217445
1779997175335545600,10.262545654296876,0.00494999997317791,0.5571500062942505,0.0085249999538064
1779997175352822300,10.279822265625,0.00494999997317791,0.4936249852180481,0.00976249948143959
1779997175370098700,10.2970986328125,0,0.13557499647140503,0.0037124999798834324
1779997175387375000,10.314375,-0.006049999967217445,-0.30662500858306885,-0.0085249999538064
1779997175404651800,10.33165185546875,-0.00976249948143959,-0.5559124946594238,-0.010999999940395355
1779997175421928400,10.348928466796876,-0.0085249999538064,-0.47891250252723694,-0.006049999967217445
1779997175439204600,10.36620458984375,-0.0035749999806284904,-0.12581250071525574,-0.0012374999932944775
1779997175456481300,10.383481201171875,0.002474999986588955,0.30057498812675476,0.007287499960511923
1779997175482396000,10.40939599609375,0.00494999997317791,0.5582500100135803,0.010999999940395355
1779997175499672300,10.42667236328125,0.002474999986588955,0.3310999870300293,0.0085249999538064
1779997175516949000,10.443948974609375,-0.0035749999806284904,-0.10257499665021896,-0.0037124999798834324
1779997175534225700,10.4612255859375,-0.00976249948143959,-0.467912495136261,-0.010999999940395355
1779997175551502000,10.478502197265625,-0.00976249948143959,-0.5522000193595886,-0.0085249999538064
1779997175568778500,10.495778564453126,-0.006049999967217445,-0.3115749955177307,-0.00494999997317791
1779997175586055200,10.51305517578125,-0.0012374999932944775,0.10628750175237656,0.0037124999798834324
1779997175603331800,10.530331787109375,0.0037124999798834324,0.4618625044822693,0.0085249999538064
1779997175620608300,10.547608154296874,0.00494999997317791,0.5484874844551086,0.00976249948143959
1779997175637884700,10.564884765625,0.002474999986588955,0.3151499927043915,0.006049999967217445
1779997175655161300,10.582161376953126,-0.0035749999806284904,-0.11233749985694885,-0.002474999986588955
1779997175681076000,10.608075927734374,-0.0085249999538064,-0.5449125170707703,-0.010999999940395355
1779997175706990800,10.633990966796874,-0.004812499973922968,-0.29809999465942383,-0.0037124999798834324
1779997175724267300,10.651267333984375,0,0.11481250077486038,0.002474999986588955
1779997175741544000,10.6685439453125,0.00494999997317791,0.4618625044822693,0.0085249999538064
1779997175758820400,10.6858203125,0.00494999997317791,0.5374875068664551,0.0085249999538064
1779997175776097000,10.703096923828125,0.0012374999932944775,0.30057498812675476,0.0085249999538064
1779997175793373400,10.72037353515625,-0.004812499973922968,-0.12223749607801437,-0.00494999997317791
1779997175810649900,10.73764990234375,-0.0085249999538064,-0.4666749835014343,-0.010999999940395355
1779997175827926500,10.754926513671874,-0.00976249948143959,-0.5289624929428101,-0.00976249948143959
1779997175845203000,10.772202880859375,-0.006049999967217445,-0.28462499380111694,-0.0037124999798834324
1779997175871117600,10.79811767578125,0.002474999986588955,0.31638750433921814,0.00494999997317791
1779997175888394200,10.815394287109376,0.00494999997317791,0.5351499915122986,0.00976249948143959
1779997175905671000,10.8326708984375,0.0037124999798834324,0.44110000133514404,0.00976249948143959
1779997175922947000,10.849947021484375,-0.0012374999932944775,0.08304999768733978,0.0012374999932944775
1779997175940223700,10.8672236328125,-0.006049999967217445,-0.32381248474121094,-0.0085249999538064
1779997175957500400,10.88450048828125,-0.0085249999538064,-0.5326749682426453,-0.010999999940395355
1779997175974776800,10.90177685546875,-0.007287499960511923,-0.4288625121116638,-0.00494999997317791
1779997175992053200,10.91905322265625,-0.002474999986588955,-0.07452499866485596,0
1779997176009330000,10.936329833984376,0.002474999986588955,0.32133749127388,0.007287499960511923
1779997176026606600,10.953606689453125,0.00494999997317791,0.5289624929428101,0.0085249999538064
1779997176043882800,10.9708828125,0.00494999997317791,0.42762500047683716,0.0085249999538064
1779997176061159400,10.988159423828124,-0.0012374999932944775,0.07204999774694443,0.002474999986588955
1779997176078436000,11.00543603515625,-0.006049999967217445,-0.329862505197525,-0.0085249999538064
1779997176095712500,11.02271240234375,-0.0085249999538064,-0.5266249775886536,-0.00976249948143959
1779997176112989000,11.039989013671875,-0.007287499960511923,-0.4166249930858612,-0.006049999967217445
1779997176130265600,11.057265625,-0.0037124999798834324,-0.0635249987244606,0
1779997176147542000,11.0745419921875,0.0012374999932944775,0.32381248474121094,0.006049999967217445
1779997176164818400,11.091818359375,0.0037124999798834324,0.5229125022888184,0.0085249999538064
1779997176182095000,11.10909521484375,0.002474999986588955,0.4141499996185303,0.00976249948143959
1779997176199371500,11.12637158203125,-0.0012374999932944775,0.059812501072883606,0.002474999986588955
1779997176216648000,11.14364794921875,-0.007287499960511923,-0.33233749866485596,-0.0085249999538064
1779997176233924600,11.160924560546874,-0.0085249999538064,-0.5216749906539917,-0.00976249948143959
1779997176251201000,11.178200927734375,-0.007287499960511923,-0.40191251039505005,-0.006049999967217445
1779997176268477700,11.195477783203126,-0.0037124999798834324,-0.05128749832510948,0
1779997176285754000,11.212754150390625,0.0012374999932944775,0.3273875117301941,0.00494999997317791
1779997176303030800,11.23003076171875,0.00494999997317791,0.5167250037193298,0.00976249948143959
1779997176320307200,11.24730712890625,0.002474999986588955,0.4031499922275543,0.00976249948143959
1779997176337583900,11.264583984375,-0.0012374999932944775,0.04881250113248825,0.002474999986588955
1779997176354860300,11.2818603515625,-0.006049999967217445,-0.3348124921321869,-0.0085249999538064
1779997176372136700,11.29913671875,-0.0085249999538064,-0.5143874883651733,-0.00976249948143959
1779997176389413400,11.316413330078126,-0.007287499960511923,-0.38967499136924744,-0.00494999997317791
1779997176406690000,11.33368994140625,-0.002474999986588955,-0.04152499884366989,0.0012374999932944775
1779997176423966200,11.35096630859375,0.002474999986588955,0.3310999870300293,0.006049999967217445
1779997176441243000,11.368242919921874,0.004812499973922968,0.5106750130653381,0.0085249999538064
1779997176458519300,11.385519287109375,0.0037124999798834324,0.3909125030040741,0.00976249948143959
1779997176484434200,11.41143408203125,-0.0037124999798834324,-0.16376249492168427,-0.0037124999798834324
1779997176501710600,11.428710693359376,-0.0085249999538064,-0.4581499993801117,-0.010999999940395355
1779997176518987300,11.4459873046875,-0.0085249999538064,-0.4801499843597412,-0.0085249999538064
1779997176536264000,11.463263916015626,-0.006049999967217445,-0.2223374992609024,-0.0037124999798834324
1779997176553540400,11.480540283203124,0,0.16376249492168427,0.00494999997317791
1779997176570816800,11.497816650390625,0.0037124999798834324,0.4544374942779541,0.006049999967217445
1779997176588093400,11.515093505859374,0.004812499973922968,0.4776749908924103,0.010999999940395355
1779997176605369900,11.532369873046875,0.0012374999932944775,0.22110000252723694,0.00494999997317791
1779997176622646300,11.549646240234376,-0.00494999997317791,-0.17104999721050262,-0.0037124999798834324
1779997176639923000,11.5669228515625,-0.007287499960511923,-0.45567500591278076,-0.010999999940395355
1779997176665837800,11.592837890625,-0.007287499960511923,-0.3653374910354614,-0.00494999997317791
1779997176683114200,11.6101142578125,-0.002474999986588955,-0.020762499421834946,0.0012374999932944775
1779997176700391000,11.627390869140624,0.002474999986588955,0.3371500074863434,0.006049999967217445
1779997176717667300,11.644667236328125,0.004812499973922968,0.4984374940395355,0.0085249999538064
1779997176734943700,11.66194384765625,0.002474999986588955,0.3665750026702881,0.007287499960511923
1779997176752220400,11.679220458984375,-0.002474999986588955,0.015949999913573265,0
1779997176769496800,11.696496826171876,-0.007287499960511923,-0.3433375060558319,-0.0085249999538064
1779997176786773500,11.7137734375,-0.00976249948143959,-0.49472498893737793,-0.0085249999538064
1779997176804050000,11.7310498046875,-0.007287499960511923,-0.3543374836444855,-0.006049999967217445
1779997176821326300,11.748326416015624,-0.002474999986588955,-0.010999999940395355,0.002474999986588955
1779997176838603000,11.76560302734375,0.002474999986588955,0.3396250009536743,0.007287499960511923
1779997176855879400,11.78287939453125,0.0037124999798834324,0.49114999175071716,0.0085249999538064
1779997176873155800,11.80015576171875,0.002474999986588955,0.3543374836444855,0.0085249999538064
1779997176890432500,11.8174326171875,-0.002474999986588955,0.006049999967217445,0
1779997176907709000,11.834708984375,-0.006049999967217445,-0.345674991607666,-0.0085249999538064
1779997176924985600,11.851985595703125,-0.0085249999538064,-0.48743748664855957,-0.0085249999538064
1779997176942262000,11.869261962890626,-0.006049999967217445,-0.3433375060558319,-0.00494999997317791
1779997176959538400,11.886538330078125,-0.002474999986588955,0,0.0012374999932944775
1779997176976815000,11.903815185546875,0.002474999986588955,0.34209999442100525,0.006049999967217445
1779997176994091500,11.921091552734374,0.0037124999798834324,0.48496249318122864,0.0085249999538064
1779997177011368200,11.9383681640625,0.002474999986588955,0.3433375060558319,0.007287499960511923
1779997177028644600,11.95564453125,-0.0012374999932944775,-0.0037124999798834324,0
1779997177045921000,11.972921142578125,-0.006049999967217445,-0.34814998507499695,-0.0085249999538064
1779997177063197700,11.99019775390625,-0.007287499960511923,-0.48138749599456787,-0.0085249999538064
1779997177080474000,12.00747412109375,-0.00494999997317791,-0.3310999870300293,-0.00494999997317791
1779997177097750500,12.02475048828125,-0.0012374999932944775,0.00976249948143959,0.0012374999932944775
1779997177115027200,12.042027099609374,0.0037124999798834324,0.3433375060558319,0.006049999967217445
1779997177132304000,12.059303955078125,0.004812499973922968,0.4776749908924103,0.0085249999538064
1779997177149580300,12.076580322265626,0.002474999986588955,0.33233749866485596,0.007287499960511923
1779997177166856700,12.093856689453125,-0.002474999986588955,-0.01223750039935112,-0.0012374999932944775
1779997177184133000,12.111133056640625,-0.007287499960511923,-0.34814998507499695,-0.0085249999538064
1779997177201409800,12.128409912109374,-0.00976249948143959,-0.4739624857902527,-0.00976249948143959
1779997177218686200,12.145686279296875,-0.0085249999538064,-0.32010000944137573,-0.0037124999798834324
1779997177235963000,12.162962890625,-0.002474999986588955,0.018287500366568565,0.0012374999932944775
1779997177253239300,12.1802392578125,0.002474999986588955,0.34581249952316284,0.006049999967217445
1779997177270516000,12.197515869140625,0.0037124999798834324,0.4716250002384186,0.0085249999538064
1779997177287792400,12.21479248046875,0.0012374999932944775,0.32010000944137573,0.007287499960511923
1779997177305069000,12.232069091796875,-0.0012374999932944775,-0.02199999988079071,0
1779997177322345500,12.249345458984376,-0.007287499960511923,-0.3493874967098236,-0.00976249948143959
1779997177339622100,12.2666220703125,-0.0085249999538064,-0.46543750166893005,-0.007287499960511923
1779997177356898600,12.283898681640625,-0.006049999967217445,-0.3091000020503998,-0.00494999997317791
1779997177374175000,12.301175048828124,-0.002474999986588955,0.02681249938905239,0.002474999986588955
1779997177391451600,12.31845166015625,0.002474999986588955,0.3469125032424927,0.006049999967217445
1779997177408728000,12.33572802734375,0.0034374999813735485,0.4643374979496002,0.00989999994635582
1779997177426004700,12.353004638671875,0.0009624999947845936,0.3078624904155731,0.006187499966472387
1779997177443281200,12.37028125,-0.002749999985098839,-0.0317624993622303,0.00013749999925494194
1779997177460557600,12.3875576171875,-0.006324999965727329,-0.35062500834465027,-0.008387500420212746
1779997177477834200,12.404834228515625,-0.008799999952316284,-0.4604874849319458,-0.008387500420212746
1779997177495111000,12.42211083984375,-0.006324999965727329,-0.29809999465942383,-0.0035749999806284904
1779997177521025500,12.448025634765624,0.0009624999947845936,0.20776249468326569,0.0037124999798834324
1779997177538302200,12.46530224609375,0.004674999974668026,0.4361499845981598,0.007424999959766865
1779997177555578600,12.48257861328125,0.0034374999813735485,0.40933749079704285,0.008662499487400055
1779997177572855000,12.49985498046875,-0.0002749999985098839,0.1405249983072281,0.0037124999798834324
1779997177590131700,12.517131591796876,-0.005087499972432852,-0.21381250023841858,-0.006049999967217445
1779997177607408000,12.534408203125,-0.008799999952316284,-0.4349125027656555,-0.008387500420212746
1779997177633323000,12.560322998046875,-0.006324999965727329,-0.2870999872684479,-0.004812499973922968
1779997177650599400,12.577599365234375,-0.002749999985098839,0.04399999976158142,0.002612499985843897
1779997177667876000,12.5948759765625,0.002199999988079071,0.3482874929904938,0.006187499966472387
1779997177685152800,12.61215283203125,0.0034374999813735485,0.4496249854564667,0.008662499487400055
1779997177702429200,12.62942919921875,0.0009624999947845936,0.28600001335144043,0.00494999997317791
1779997177719705600,12.64670556640625,-0.002749999985098839,-0.047575000673532486,0.00013749999925494194
1779997177736982000,12.66398193359375,-0.006324999965727329,-0.35062500834465027,-0.009624999947845936
1779997177754258700,12.6812587890625,-0.006324999965727329,-0.44343748688697815,-0.007287499960511923
1779997177771535000,12.69853515625,-0.005087499972432852,-0.2773374915122986,-0.004812499973922968
1779997177788811800,12.715811767578124,-0.0015124999918043613,0.050187498331069946,0.002612499985843897
1779997177806088200,12.733088134765625,0.002199999988079071,0.3482874929904938,0.006187499966472387
1779997177823364900,12.75036474609375,0.004674999974668026,0.443574994802475,0.007424999959766865
1779997177840641300,12.767641357421875,0.002199999988079071,0.2761000096797943,0.006187499966472387
1779997177857917700,12.784917724609375,-0.0038499999791383743,-0.05486249923706055,-0.002337499987334013
1779997177875194400,12.8021943359375,-0.007562499959021807,-0.35062500834465027,-0.007287499960511923
1779997177892470800,12.819470703125,-0.008799999952316284,-0.4372499883174896,-0.007287499960511923
1779997177909747500,12.83674755859375,-0.006049999967217445,-0.26510000228881836,-0.0037124999798834324
1779997177927023900,12.85402392578125,-0.0012374999932944775,0.05857500061392784,0.0012374999932944775
1779997177952938500,12.8799384765625,0.0037124999798834324,0.4251500070095062,0.0085249999538064
1779997177970215200,12.897215087890626,0.002474999986588955,0.37991249561309814,0.007287499960511923
1779997177987491800,12.914491943359375,-0.0012374999932944775,0.10876250267028809,0.0037124999798834324
1779997178004768300,12.931768310546875,-0.006049999967217445,-0.22605000436306,-0.006049999967217445
1779997178022044700,12.949044677734374,-0.0085249999538064,-0.42391249537467957,-0.007287499960511923
1779997178039321300,12.9663212890625,-0.0085249999538064,-0.3713875114917755,-0.006049999967217445
1779997178056597800,12.98359765625,-0.004812499973922968,-0.10023749619722366,0
1779997178073874200,13.000874267578125,0,0.22605000436306,0.0037124999798834324
1779997178091150800,13.01815087890625,0.002474999986588955,0.420199990272522,0.0085249999538064
1779997178108427500,13.035427490234374,0.002474999986588955,0.3689124882221222,0.007287499960511923
1779997178134342100,13.061342041015624,-0.002474999986588955,-0.07081250101327896,-0.0012374999932944775
1779997178151618800,13.078618896484375,-0.007287499960511923,-0.35062500834465027,-0.0085249999538064
1779997178168895200,13.095895263671874,-0.007287499960511923,-0.42143750190734863,-0.006049999967217445
1779997178186172000,13.113171875,-0.004812499973922968,-0.24557499587535858,-0.0037124999798834324
1779997178203448300,13.1304482421875,0,0.07328750193119049,0.002474999986588955
1779997178220724700,13.147724853515625,0.0037124999798834324,0.3493874967098236,0.006049999967217445
1779997178238001400,13.16500146484375,0.00494999997317791,0.42143750190734863,0.007287499960511923
1779997178255277800,13.18227783203125,0.002474999986588955,0.24433749914169312,0.00494999997317791
1779997178272554500,13.199554443359375,-0.002474999986588955,-0.07699999958276749,-0.0012374999932944775
1779997178289831200,13.2168310546875,-0.006049999967217445,-0.35062500834465027,-0.0085249999538064
1779997178307107600,13.234107666015625,-0.007287499960511923,-0.41538751125335693,-0.006049999967217445
1779997178324384000,13.251384033203125,-0.004812499973922968,-0.23457500338554382,-0.0037124999798834324
1779997178341660400,13.268660400390624,0,0.08057499676942825,0.002474999986588955
1779997178358937000,13.28593701171875,0.002474999986588955,0.3493874967098236,0.006049999967217445
1779997178376213800,13.3032138671875,0.0037124999798834324,0.4141499996185303,0.00976249948143959
1779997178393490200,13.320490234375,0.0012374999932944775,0.23457500338554382,0.0037124999798834324
1779997178410766600,13.3377666015625,-0.002474999986588955,-0.08428750187158585,-0.002474999986588955
1779997178428043300,13.355043212890624,-0.006049999967217445,-0.3493874967098236,-0.0085249999538064
1779997178445319700,13.372319580078125,-0.007287499960511923,-0.4068624973297119,-0.007287499960511923
1779997178471234600,13.398234619140625,-0.00494999997317791,-0.07328750193119049,-0.0012374999932944775
1779997178488511200,13.41551123046875,0,0.2358125001192093,0.0037124999798834324
1779997178505787600,13.43278759765625,0.002474999986588955,0.4081000089645386,0.007287499960511923
1779997178523064000,13.45006396484375,0.0012374999932944775,0.34209999442100525,0.007287499960511923
1779997178540340700,13.4673408203125,-0.002474999986588955,0.07328750193119049,0.002474999986588955
1779997178557617200,13.4846171875,-0.00494999997317791,-0.24186250567436218,-0.00494999997317791
1779997178574893600,13.5018935546875,-0.007287499960511923,-0.4068624973297119,-0.0085249999538064
1779997178592170200,13.519170166015625,-0.006049999967217445,-0.3335750102996826,-0.00494999997317791
1779997178609447000,13.536447021484374,-0.002474999986588955,-0.0672374963760376,0
1779997178626723000,13.55372314453125,0.0012374999932944775,0.23828749358654022,0.00494999997317791
1779997178643999700,13.570999755859376,0.0037124999798834324,0.404387503862381,0.007287499960511923
1779997178661276400,13.5882763671875,0.002474999986588955,0.33233749866485596,0.007287499960511923
1779997178678552800,13.605552734375,-0.0012374999932944775,0.06476250290870667,0.0012374999932944775
1779997178695829200,13.622829345703124,-0.00494999997317791,-0.24310000240802765,-0.00494999997317791
1779997178721744100,13.648744140625,-0.007287499960511923,-0.39338749647140503,-0.006049999967217445
1779997178739020800,13.666020751953125,-0.00494999997317791,-0.20762500166893005,-0.002474999986588955
1779997178756297200,13.683297119140626,-0.0012374999932944775,0.10023749619722366,0.0037124999798834324
1779997178782211800,13.7092119140625,0.002474999986588955,0.4006749987602234,0.0085249999538064
1779997178799488500,13.726488525390625,0.002474999986588955,0.32381248474121094,0.0085249999538064
1779997178816765000,13.743764892578126,-0.0012374999932944775,0.05623750016093254,0.0012374999932944775
1779997178834041600,13.76104150390625,-0.00494999997317791,-0.24557499587535858,-0.006049999967217445
1779997178851318000,13.778318115234375,-0.007287499960511923,-0.3983374834060669,-0.007287499960511923
1779997178868594400,13.795594482421874,-0.006049999967217445,-0.3139125108718872,-0.00494999997317791
1779997178885871000,13.81287109375,-0.002474999986588955,-0.04881250113248825,0
1779997178903147500,13.8301474609375,0,0.24433749914169312,0.00494999997317791
1779997178920424200,13.847424072265625,0.002474999986588955,0.39586248993873596,0.007287499960511923
1779997178937700600,13.86470068359375,0.002474999986588955,0.3139125108718872,0.006049999967217445
1779997178954977300,13.881977294921874,-0.0012374999932944775,0.047575000673532486,0.002474999986588955
1779997178972253700,13.899253662109375,-0.006049999967217445,-0.2480500042438507,-0.006049999967217445
1779997178989530000,13.916530029296876,-0.007287499960511923,-0.39338749647140503,-0.007287499960511923
1779997179006806800,13.933806884765625,-0.004812499973922968,-0.30662500858306885,-0.00494999997317791
1779997179024083200,13.951083251953126,-0.002474999986588955,-0.04152499884366989,0
1779997179041360000,13.96835986328125,0.0012374999932944775,0.24681249260902405,0.006049999967217445
1779997179058636300,13.98563623046875,0.0037124999798834324,0.3909125030040741,0.007287499960511923
1779997179075913000,14.002912841796874,0.002474999986588955,0.3053874969482422,0.006049999967217445
1779997179093189400,14.020189453125,-0.0012374999932944775,0.03904999792575836,0.0012374999932944775
1779997179119104000,14.04610400390625,-0.007287499960511923,-0.34581249952316284,-0.007287499960511923
1779997179136380700,14.063380615234376,-0.0085249999538064,-0.3726249933242798,-0.006049999967217445
1779997179153657300,14.0806572265625,-0.004812499973922968,-0.17957499623298645,-0.0037124999798834324
1779997179170934000,14.09793408203125,0,0.11728750169277191,0.0037124999798834324
1779997179188210200,14.115210205078125,0.0012374999932944775,0.3433375060558319,0.006049999967217445
1779997179205486800,14.13248681640625,0.0012374999932944775,0.37014999985694885,0.007287499960511923
1779997179231401700,14.158401611328125,-0.002474999986588955,0.0317624993622303,0
1779997179248678100,14.17567822265625,-0.004812499973922968,-0.2516250014305115,-0.006049999967217445
1779997179265954600,14.19295458984375,-0.006049999967217445,-0.38362500071525574,-0.006049999967217445
1779997179283231200,14.210231201171876,-0.004812499973922968,-0.28833749890327454,-0.0037124999798834324
1779997179300508000,14.2275078125,-0.002474999986588955,-0.025712499395012856,0
1779997179317784300,14.244784423828126,0.002474999986588955,0.2516250014305115,0.00494999997317791
1779997179335060700,14.262060791015625,0.0037124999798834324,0.3811500072479248,0.007287499960511923
1779997179352337200,14.279337158203125,0.002474999986588955,0.28833749890327454,0.006049999967217445
1779997179369613800,14.29661376953125,-0.002474999986588955,0.023237500339746475,0.0012374999932944775
1779997179386890500,14.313890380859375,-0.004812499973922968,-0.2540999948978424,-0.006049999967217445
1779997179404167000,14.3311669921875,-0.007287499960511923,-0.37757501006126404,-0.006049999967217445
1779997179430081800,14.357081787109376,-0.00494999997317791,-0.1625249981880188,-0.0012374999932944775
1779997179455996400,14.382996337890624,0.0012374999932944775,0.25286251306533813,0.00494999997317791
1779997179473273000,14.400273193359375,0.0037124999798834324,0.37757501006126404,0.007287499960511923
1779997179490549500,14.417549560546876,0.0012374999932944775,0.2798124849796295,0.006049999967217445
1779997179507826200,14.434826171875,-0.002474999986588955,0.015812499448657036,0.0012374999932944775
1779997179525102600,14.4521025390625,-0.006049999967217445,-0.25533750653266907,-0.006049999967217445
1779997179542379000,14.46937890625,-0.007287499960511923,-0.37386250495910645,-0.006049999967217445
1779997179559655700,14.48665576171875,-0.007287499960511923,-0.2723875045776367,-0.0037124999798834324
1779997179576932000,14.50393212890625,-0.002474999986588955,-0.01223750039935112,0
1779997179594208800,14.521208740234375,0.0012374999932944775,0.25533750653266907,0.00494999997317791
1779997179611485200,14.538485107421875,0.002474999986588955,0.3726249933242798,0.007287499960511923
1779997179628761900,14.555761962890625,0.0012374999932944775,0.2700499892234802,0.006049999967217445
1779997179646038300,14.573038330078125,-0.002474999986588955,0.0085249999538064,0.0012374999932944775
1779997179663315000,14.59031494140625,-0.00494999997317791,-0.2578125,-0.006049999967217445
1779997179680591400,14.60759130859375,-0.006049999967217445,-0.3689124882221222,-0.007287499960511923
1779997179697867800,14.62486767578125,-0.006049999967217445,-0.2626250088214874,-0.00494999997317791
1779997179715144400,14.64214453125,-0.0012374999932944775,-0.0037124999798834324,0.0012374999932944775
1779997179732420900,14.6594208984375,0.0012374999932944775,0.25657498836517334,0.00494999997317791
1779997179749697300,14.676697265625,0.0037124999798834324,0.3676750063896179,0.007287499960511923
1779997179766974000,14.693973876953125,0.002474999986588955,0.26138749718666077,0.00494999997317791
1779997179784250400,14.71125048828125,-0.0012374999932944775,0.0012374999932944775,0
1779997179801527000,14.728527099609375,-0.006049999967217445,-0.25905001163482666,-0.006049999967217445
1779997179818803500,14.745803466796875,-0.006049999967217445,-0.36410000920295715,-0.006049999967217445
1779997179836080000,14.763080078125,-0.0037124999798834324,-0.25533750653266907,-0.0037124999798834324
1779997179853356500,14.7803564453125,-0.0012374999932944775,0.002474999986588955,0.0012374999932944775
1779997179870633200,14.79763330078125,0.0012374999932944775,0.25905001163482666,0.00494999997317791
1779997179887909600,14.81490966796875,0.002474999986588955,0.3628624975681305,0.006049999967217445
1779997179905186300,14.832186279296875,0.002474999986588955,0.2540999948978424,0.006049999967217445
1779997179922463000,14.849462890625,-0.0012374999932944775,-0.004812499973922968,0
1779997179948377600,14.875377685546875,-0.006187499966472387,-0.3359124958515167,-0.006049999967217445
1779997179965654000,14.892654052734375,-0.006187499966472387,-0.3273875117301941,-0.006049999967217445
1779997179982930700,14.9099306640625,-0.0037124999798834324,-0.12828749418258667,-0.0012374999932944775
1779997180008845300,14.93584521484375,0.0012374999932944775,0.25905001163482666,0.00494999997317791
1779997180026122000,14.9531220703125,0.002474999986588955,0.3568125069141388,0.007287499960511923
1779997180043398700,14.970398681640624,0,0.24557499587535858,0.00494999997317791
1779997180060674800,14.9876748046875,-0.002474999986588955,-0.01223750039935112,0
1779997180077951500,15.004951416015626,-0.006187499966472387,-0.26138749718666077,-0.006049999967217445
1779997180095228200,15.022228271484375,-0.007424999959766865,-0.35557499527931213,-0.006049999967217445
1779997180112504800,15.0395048828125,-0.006187499966472387,-0.23704999685287476,-0.0037124999798834324
1779997180129781000,15.056781005859374,-0.002474999986588955,0.015949999913573265,0
1779997180147057700,15.0740576171875,0.0012374999932944775,0.26028749346733093,0.00494999997317791
1779997180164334300,15.091334228515626,0.002474999986588955,0.3531000018119812,0.007287499960511923
1779997180181610500,15.108610595703125,0.0012374999932944775,0.23704999685287476,0.00494999997317791
1779997180198887200,15.12588720703125,-0.002474999986588955,-0.018287500366568565,0
1779997180216163800,15.143163818359374,-0.006187499966472387,-0.2626250088214874,-0.00494999997317791
1779997180242078700,15.16907861328125,-0.007424999959766865,-0.3128125071525574,-0.00494999997317791
1779997180259355100,15.186355224609375,-0.0037124999798834324,-0.11233749985694885,0
1779997180276631800,15.2036318359375,0,0.15399999916553497,0.0037124999798834324
1779997180293908500,15.220908447265625,0.0012374999932944775,0.32862499356269836,0.006049999967217445
1779997180311185000,15.238184814453126,0.0012374999932944775,0.3115749955177307,0.006049999967217445
1779997180328461300,15.25546142578125,-0.0012374999932944775,0.10999999940395355,0.0037124999798834324
1779997180345738000,15.272738037109375,-0.00494999997317791,-0.15757499635219574,-0.0037124999798834324
1779997180363014400,15.290014404296874,-0.006187499966472387,-0.32862499356269836,-0.007287499960511923
1779997180380290800,15.307290771484375,-0.006187499966472387,-0.3053874969482422,-0.00494999997317791
1779997180397567500,15.3245673828125,-0.0037124999798834324,-0.10381250083446503,-0.0012374999932944775
1779997180414844000,15.341843994140625,0,0.15757499635219574,0.0037124999798834324
1779997180432120600,15.35912060546875,0.002474999986588955,0.3273875117301941,0.006049999967217445
1779997180449397000,15.37639697265625,0.0012374999932944775,0.3041499853134155,0.006049999967217445
1779997180466673700,15.393673583984375,-0.0012374999932944775,0.10147500038146973,0.002474999986588955
1779997180483950000,15.4109501953125,-0.00494999997317791,-0.16128750145435333,-0.0037124999798834324
1779997180501226500,15.4282265625,-0.006187499966472387,-0.32615000009536743,-0.006049999967217445
1779997180518503200,15.445503173828126,-0.00494999997317791,-0.2993375062942505,-0.00494999997317791
1779997180544417800,15.471417724609376,-0.0012374999932944775,0.035475000739097595,0.002474999986588955
1779997180561694200,15.488694091796875,0.002474999986588955,0.2638624906539917,0.00494999997317791
1779997180578971000,15.505970947265626,0.002474999986588955,0.3371500074863434,0.006049999967217445
1779997180596247300,15.523247314453124,0.0012374999932944775,0.21133749186992645,0.00494999997317791
1779997180613524000,15.54052392578125,-0.0012374999932944775,-0.037812501192092896,-0.0012374999932944775
1779997180630800400,15.55780029296875,-0.006187499966472387,-0.2638624906539917,-0.006049999967217445
1779997180648077000,15.5750771484375,-0.007424999959766865,-0.3335750102996826,-0.006049999967217445
1779997180665353700,15.592353759765626,-0.006187499966472387,-0.20652499794960022,-0.0037124999798834324
1779997180682630100,15.609630126953125,-0.002474999986588955,0.04152499884366989,0.0012374999932944775
1779997180699906600,15.626906494140625,0.0012374999932944775,0.26510000228881836,0.00494999997317791
1779997180717183200,15.644183349609374,0.002474999986588955,0.3310999870300293,0.006049999967217445
1779997180734460000,15.6614599609375,0,0.2040500044822693,0.0037124999798834324
1779997180751736300,15.678736328125,-0.002474999986588955,-0.04399999976158142,0
1779997180769012700,15.6960126953125,-0.00494999997317791,-0.26510000228881836,-0.006049999967217445
1779997180786289400,15.713289306640625,-0.006187499966472387,-0.32862499356269836,-0.007287499960511923
1779997180803566000,15.730566162109374,-0.00494999997317791,-0.1966249942779541,-0.002474999986588955
1779997180820842500,15.747842529296875,-0.0012374999932944775,0.047712501138448715,0.0012374999932944775
1779997180838119000,15.765118896484376,0.0012374999932944775,0.26510000228881836,0.00494999997317791
1779997180855395600,15.7823955078125,0.002474999986588955,0.32615000009536743,0.006049999967217445
1779997180872672000,15.799672119140626,0,0.19676250219345093,0.006049999967217445
1779997180889948400,15.816948486328124,-0.002474999986588955,-0.05252499878406525,-0.0012374999932944775
1779997180907225000,15.83422509765625,-0.006049999967217445,-0.26633748412132263,-0.00494999997317791
1779997180924501500,15.85150146484375,-0.007287499960511923,-0.32257500290870667,-0.006049999967217445
1779997180941778200,15.868778076171875,-0.004812499973922968,-0.18933749198913574,-0.002474999986588955
1779997180967693000,15.894693115234375,0,0.1722874939441681,0.002474999986588955
1779997180984969500,15.911969482421876,0.002474999986588955,0.3176249861717224,0.006049999967217445
1779997181002246000,15.929245849609375,0.0012374999932944775,0.2761000096797943,0.00494999997317791
1779997181019522300,15.946522216796875,-0.0012374999932944775,0.07204999774694443,0.0012374999932944775
1779997181036799000,15.963799072265624,-0.0035749999806284904,-0.17476250231266022,-0.0037124999798834324
1779997181054075400,15.981075439453125,-0.006049999967217445,-0.31638750433921814,-0.006049999967217445
1779997181071352000,15.99835205078125,-0.006049999967217445,-0.2700499892234802,-0.0037124999798834324
1779997181088628700,16.015628662109375,-0.0035749999806284904,-0.06599999964237213,-0.0012374999932944775
1779997181105905200,16.0329052734375,0.0012374999932944775,0.17586250603199005,0.0037124999798834324
1779997181123181600,16.050181640625,0.002474999986588955,0.3151499927043915,0.006049999967217445
1779997181149096700,16.0760966796875,0.0012374999932944775,0.17957499623298645,0.00494999997317791
1779997181166373000,16.093373046875,-0.002337499987334013,-0.06228749826550484,-0.0012374999932944775
1779997181183649500,16.1106494140625,-0.006049999967217445,-0.26633748412132263,-0.00494999997317791
1779997181200926000,16.127926025390625,-0.006049999967217445,-0.3128125071525574,-0.00494999997317791
1779997181218202600,16.14520263671875,-0.004812499973922968,-0.17352500557899475,-0.0012374999932944775
1779997181235479300,16.162479248046875,-0.002337499987334013,0.06476250290870667,0.002474999986588955
1779997181261394000,16.188393798828123,0.0012374999932944775,0.3115749955177307,0.006049999967217445
1779997181278670600,16.205670654296874,0,0.26138749718666077,0.0037124999798834324
1779997181295947000,16.222947021484377,-0.002337499987334013,0.05623750016093254,0.0012374999932944775
1779997181313223400,16.240223388671875,-0.004812499973922968,-0.18081249296665192,-0.0037124999798834324
1779997181330500000,16.2575,-0.006049999967217445,-0.31033748388290405,-0.006049999967217445
1779997181347776800,16.27477685546875,-0.006049999967217445,-0.25533750653266907,-0.0037124999798834324
1779997181365053200,16.29205322265625,-0.002337499987334013,-0.05128749832510948,0
1779997181382329600,16.30932958984375,0,0.18205000460147858,0.00494999997317791
1779997181399606300,16.326606201171874,0.002474999986588955,0.3091000020503998,0.006049999967217445
1779997181416882700,16.343882568359376,0.0012374999932944775,0.2540999948978424,0.00494999997317791
1779997181434159000,16.3611591796875,-0.0012374999932944775,0.04881250113248825,0.0012374999932944775
1779997181451435800,16.378435791015626,-0.0037124999798834324,-0.18328750133514404,-0.0037124999798834324
1779997181468712200,16.395712158203125,-0.006049999967217445,-0.30662500858306885,-0.006049999967217445
1779997181485988900,16.41298876953125,-0.004812499973922968,-0.2480500042438507,-0.0037124999798834324
1779997181503265300,16.430265380859375,-0.002474999986588955,-0.045237500220537186,0
1779997181520542000,16.4475419921875,0,0.1845249980688095,0.0037124999798834324
1779997181537818400,16.464818359375,0.002474999986588955,0.30662500858306885,0.00494999997317791
1779997181555095000,16.482094970703123,0.0012374999932944775,0.24681249260902405,0.00494999997317791
1779997181572371500,16.499371337890626,0,0.042762499302625656,0.0012374999932944775
1779997181589648100,16.516648193359377,-0.004812499973922968,-0.1868624985218048,-0.00494999997317791
1779997181606924500,16.533924560546875,-0.006049999967217445,-0.3041499853134155,-0.006049999967217445
1779997181624201000,16.551200927734374,-0.006049999967217445,-0.24186250567436218,-0.0037124999798834324
1779997181658754300,16.58575439453125,-0.0012374999932944775,0.1868624985218048,0.0037124999798834324
1779997181676030700,16.60303076171875,0.0012374999932944775,0.30291250348091125,0.006049999967217445
1779997181693307100,16.62030712890625,0,0.23938749730587006,0.006049999967217445
1779997181710583800,16.637583740234376,-0.002474999986588955,0.03671250119805336,0.0012374999932944775
1779997181727860500,16.654860595703123,-0.004812499973922968,-0.18809999525547028,-0.002474999986588955
1779997181745137000,16.672136962890626,-0.007287499960511923,-0.30057498812675476,-0.006049999967217445
1779997181771051800,16.6980517578125,-0.0037124999798834324,-0.14409999549388885,-0.0012374999932944775
1779997181788328200,16.715328125,-0.0012374999932944775,0.08552499860525131,0.0012374999932944775
1779997181805604600,16.7326044921875,0.0012374999932944775,0.2638624906539917,0.006049999967217445
1779997181822881300,16.74988134765625,0.0012374999932944775,0.2895750105381012,0.0037124999798834324
1779997181840158000,16.767157958984374,0,0.14300000667572021,0.0037124999798834324
1779997181857434400,16.784434326171876,-0.0037124999798834324,-0.08676250278949738,-0.0012374999932944775
1779997181874711000,16.8017109375,-0.004812499973922968,-0.2638624906539917,-0.00494999997317791
1779997181891987500,16.818987548828126,-0.004812499973922968,-0.28462499380111694,-0.00494999997317791
1779997181909264000,16.836263916015625,-0.0037124999798834324,-0.1368124932050705,-0.0012374999932944775
1779997181926540500,16.85354052734375,-0.0012374999932944775,0.08923749625682831,0.002474999986588955
1779997181943817000,16.87081689453125,0.0012374999932944775,0.2638624906539917,0.00494999997317791
1779997181961093600,16.88809375,0.0012374999932944775,0.28338751196861267,0.006049999967217445
1779997181978370000,16.9053701171875,0,0.13557499647140503,0.0037124999798834324
1779997181995646500,16.922646484375,-0.0037124999798834324,-0.09157499670982361,-0.002474999986588955
1779997182012923100,16.939923095703126,-0.00494999997317791,-0.2638624906539917,-0.0037124999798834324
1779997182030199800,16.95719970703125,-0.006187499966472387,-0.27857500314712524,-0.00494999997317791
1779997182047476200,16.974476318359375,-0.0037124999798834324,-0.1307625025510788,-0.0012374999932944775
1779997182073391000,17.00039111328125,0,0.19304999709129333,0.002474999986588955
1779997182090667500,17.01766748046875,0.0012374999932944775,0.29205000400543213,0.006049999967217445
1779997182107944200,17.034944091796874,0.0012374999932944775,0.21986250579357147,0.0037124999798834324
1779997182125220400,17.052220458984376,-0.0012374999932944775,0.0170499999076128,0.0012374999932944775
1779997182151135500,17.078135498046876,-0.006187499966472387,-0.2626250088214874,-0.00494999997317791
1779997182168412200,17.095412109375,-0.00494999997317791,-0.273624986410141,-0.00494999997317791
1779997182185688600,17.1126884765625,-0.0037124999798834324,-0.12209999561309814,0
1779997182202965000,17.129965087890625,-0.0012374999932944775,0.0989999994635582,0.002474999986588955
1779997182220241700,17.14724169921875,0.0012374999932944775,0.2626250088214874,0.006049999967217445
1779997182237518300,17.164518310546875,0.0012374999932944775,0.2723875045776367,0.00494999997317791
1779997182254794500,17.18179443359375,0,0.12099999934434891,0.002474999986588955
1779997182272071200,17.1990712890625,-0.0037124999798834324,-0.1013374999165535,-0.002474999986588955
1779997182289347800,17.216347900390623,-0.006187499966472387,-0.2626250088214874,-0.006049999967217445
1779997182306624000,17.2336240234375,-0.006187499966472387,-0.2675749957561493,-0.0037124999798834324
1779997182323900700,17.250900634765625,-0.0037124999798834324,-0.11604999750852585,-0.0012374999932944775
1779997182341177300,17.26817724609375,0,0.10257499665021896,0.002474999986588955
1779997182358453800,17.285453857421874,0.002474999986588955,0.26138749718666077,0.00494999997317791
1779997182375730200,17.302730224609373,0.0012374999932944775,0.26633748412132263,0.00494999997317791
1779997182393006800,17.3200068359375,-0.0012374999932944775,0.11233749985694885,0.002474999986588955
1779997182410283500,17.337283447265627,-0.002474999986588955,-0.10381250083446503,-0.002474999986588955
1779997182427560200,17.354560302734374,-0.004812499973922968,-0.26028749346733093,-0.006049999967217445
1779997182444836600,17.371836669921876,-0.006049999967217445,-0.26028749346733093,-0.00494999997317791
1779997182462113000,17.389113037109375,-0.0035749999806284904,-0.10876250267028809,0
1779997182479389700,17.4063896484375,-0.0012374999932944775,0.10628750175237656,0.0012374999932944775
1779997182496666000,17.423666015625,0.0012374999932944775,0.2601499855518341,0.006049999967217445
1779997182513942500,17.440942626953124,0.0012374999932944775,0.2601499855518341,0.00494999997317791
1779997182531219200,17.45821923828125,-0.0012374999932944775,0.10628750175237656,0.002474999986588955
1779997182548496000,17.475495849609374,-0.004812499973922968,-0.10876250267028809,-0.002474999986588955
1779997182565772000,17.49277197265625,-0.004812499973922968,-0.26028749346733093,-0.00494999997317791
1779997182583048700,17.510048583984375,-0.006049999967217445,-0.25533750653266907,-0.00494999997317791
1779997182600325400,17.527325439453126,-0.0035749999806284904,-0.10147500038146973,-0.0012374999932944775
1779997182617601500,17.5446015625,-0.0012374999932944775,0.11110000312328339,0.002474999986588955
1779997182634878200,17.561878173828124,0,0.2578125,0.00494999997317791
1779997182652155000,17.57915478515625,0.0012374999932944775,0.2540999948978424,0.00494999997317791
1779997182669431300,17.596431396484373,-0.0012374999932944775,0.0989999994635582,0.002474999986588955
1779997182686707700,17.613707763671876,-0.0035749999806284904,-0.11357499659061432,-0.002474999986588955
1779997182703984400,17.630984375,-0.004812499973922968,-0.2578125,-0.006049999967217445
1779997182721261000,17.648260986328125,-0.004812499973922968,-0.24928750097751617,-0.00494999997317791
1779997182738537500,17.665537353515624,-0.002474999986588955,-0.09404999762773514,0
1779997182755814000,17.68281396484375,0,0.11481250077486038,0.002474999986588955
1779997182773090600,17.700090576171874,0.0012374999932944775,0.2578125,0.0037124999798834324
1779997182790367200,17.7173671875,0.0012374999932944775,0.2480500042438507,0.00494999997317791
1779997182807643400,17.734643310546875,-0.0012374999932944775,0.09404999762773514,0.0012374999932944775
1779997182824920000,17.751920166015626,-0.0035749999806284904,-0.11604999750852585,-0.002474999986588955
1779997182842196700,17.76919677734375,-0.006049999967217445,-0.25657498836517334,-0.00494999997317791
1779997182859473400,17.786473388671876,-0.006049999967217445,-0.24310000240802765,-0.00494999997317791
1779997182876749600,17.80374951171875,-0.0035749999806284904,-0.08799999952316284,0.0012374999932944775
1779997182894026200,17.821026123046874,-0.0012374999932944775,0.11852499842643738,0.002474999986588955
1779997182911303000,17.838302978515625,0.0012374999932944775,0.25657498836517334,0.00494999997317791
1779997182928579300,17.855579345703124,0.0012374999932944775,0.24310000240802765,0.00494999997317791
1779997182945856000,17.87285595703125,-0.0012374999932944775,0.08676250278949738,0.002474999986588955
1779997182971770600,17.8987705078125,-0.004812499973922968,-0.2040500044822693,-0.00494999997317791
1779997182989047300,17.91604736328125,-0.006049999967217445,-0.2675749957561493,-0.00494999997317791
1779997183006323700,17.93332373046875,-0.0035749999806284904,-0.17352500557899475,-0.0012374999932944775
1779997183023600000,17.95060009765625,-0.0012374999932944775,0.02199999988079071,0.0012374999932944775
1779997183040876800,17.967876708984374,0,0.2040500044822693,0.00494999997317791
1779997183058153500,17.985153564453125,0.002474999986588955,0.26633748412132263,0.00494999997317791
1779997183075430000,18.002429931640624,0,0.1722874939441681,0.0037124999798834324
1779997183101344800,18.0283447265625,-0.0035749999806284904,-0.12457499653100967,-0.0037124999798834324
1779997183118621400,18.045621337890626,-0.006049999967217445,-0.2540999948978424,-0.00494999997317791
1779997183135897600,18.062897705078125,-0.006049999967217445,-0.2320999950170517,-0.00494999997317791
1779997183153174300,18.08017431640625,-0.0035749999806284904,-0.07452499866485596,0.0012374999932944775
1779997183170451000,18.097450927734375,-0.0012374999932944775,0.1270499974489212,0.002474999986588955
1779997183187727000,18.11472705078125,0.0012374999932944775,0.25286251306533813,0.00494999997317791
1779997183205003800,18.132003662109376,0,0.23086249828338623,0.00494999997317791
1779997183222280200,18.1492802734375,-0.0012374999932944775,0.07328750193119049,0.0012374999932944775
1779997183239556600,18.166556640625,-0.0035749999806284904,-0.1270499974489212,-0.002474999986588955
1779997183256833300,18.183833251953125,-0.006049999967217445,-0.2516250014305115,-0.00494999997317791
1779997183282748200,18.209748046875,-0.004812499973922968,-0.1588124930858612,-0.0012374999932944775
1779997183300024800,18.22702490234375,-0.002337499987334013,0.032999999821186066,0.0012374999932944775
1779997183317301200,18.24430126953125,0.0012374999932944775,0.20528750121593475,0.0037124999798834324
1779997183334578000,18.261577880859374,0.0012374999932944775,0.2578125,0.00494999997317791
1779997183351854300,18.278854248046876,0,0.15757499635219574,0.0037124999798834324
1779997183369130800,18.296130859375,-0.002337499987334013,-0.03423750028014183,-0.0012374999932944775
1779997183386407400,18.313407470703126,-0.0035749999806284904,-0.20776249468326569,-0.00494999997317791
1779997183403683800,18.330683837890625,-0.004812499973922968,-0.25533750653266907,-0.00494999997317791
1779997183420960300,18.347960205078124,-0.004812499973922968,-0.1527625024318695,-0.002474999986588955
1779997183446875100,18.373875244140624,-0.0012374999932944775,0.1331000030040741,0.002474999986588955
1779997183464151800,18.39115185546875,0.0012374999932944775,0.24914999306201935,0.00494999997317791
1779997183481428500,18.408428466796874,0.0012374999932944775,0.21986250579357147,0.00494999997317791
1779997183498705000,18.425704833984376,-0.0012374999932944775,0.06104999780654907,0.002474999986588955
1779997183515981300,18.442981201171875,-0.0035749999806284904,-0.13433749973773956,-0.0037124999798834324
1779997183533258000,18.460258056640626,-0.006049999967217445,-0.2480500042438507,-0.0037124999798834324
1779997183550534400,18.477534423828125,-0.004812499973922968,-0.21504999697208405,-0.0037124999798834324
1779997183567810800,18.494810791015624,-0.002337499987334013,-0.054999999701976776,0
1779997183585087500,18.51208740234375,0,0.1368124932050705,0.002474999986588955
1779997183602364000,18.529364013671874,0.0012374999932944775,0.2480500042438507,0.006049999967217445
1779997183619640600,18.546640625,0.0012374999932944775,0.2125750035047531,0.0037124999798834324
1779997183636917000,18.5639169921875,-0.002337499987334013,0.05252499878406525,0.0012374999932944775
1779997183654193700,18.581193603515626,-0.0035749999806284904,-0.13805000483989716,-0.0037124999798834324
1779997183671470000,18.598469970703125,-0.006049999967217445,-0.24681249260902405,-0.00494999997317791
1779997183688746500,18.61574658203125,-0.006049999967217445,-0.20886249840259552,-0.0037124999798834324
1779997183706023200,18.633023193359374,-0.002337499987334013,-0.04881250113248825,0
1779997183723299800,18.6502998046875,0,0.13928750157356262,0.0037124999798834324
1779997183740576300,18.667576171875,0.0012374999932944775,0.24557499587535858,0.00494999997317791
1779997183757852700,18.684852783203127,0,0.20762500166893005,0.00494999997317791
1779997183775129300,18.70212939453125,-0.0012374999932944775,0.04647500067949295,0.0012374999932944775
1779997183792405800,18.71940576171875,-0.0035749999806284904,-0.1405249983072281,-0.002474999986588955
1779997183809682400,18.736682373046875,-0.004812499973922968,-0.24310000240802765,-0.006049999967217445
1779997183826958800,18.753958740234374,-0.0035749999806284904,-0.20281249284744263,-0.0037124999798834324
1779997183852873700,18.779873779296874,-0.002337499987334013,0.05376249924302101,0.0012374999932944775
1779997183870150100,18.797150146484373,0,0.20762500166893005,0.00494999997317791
1779997183887426800,18.8144267578125,0.0012374999932944775,0.24062499403953552,0.006049999967217445
1779997183904703200,18.831703125,0,0.13199999928474426,0.002474999986588955
1779997183921980000,18.84897998046875,-0.002474999986588955,-0.054999999701976776,-0.0012374999932944775
1779997183939256300,18.86625634765625,-0.004812499973922968,-0.20776249468326569,-0.0037124999798834324
1779997183956532700,18.88353271484375,-0.004812499973922968,-0.23704999685287476,-0.0037124999798834324
1779997183973809400,18.900809326171874,-0.0037124999798834324,-0.12581250071525574,-0.0012374999932944775
1779997183991085800,18.9180859375,0,0.057475000619888306,0.0012374999932944775
1779997184008362500,18.935362548828124,0.0012374999932944775,0.20886249840259552,0.0037124999798834324
1779997184034277400,18.96127734375,0.0012374999932944775,0.19552500545978546,0.0037124999798834324
1779997184051553800,18.9785537109375,-0.0012374999932944775,0.03423750028014183,0
1779997184068830200,18.995830322265626,-0.0037124999798834324,-0.14533749222755432,-0.0012374999932944775
1779997184086107000,19.01310693359375,-0.0037124999798834324,-0.23952500522136688,-0.00494999997317791
1779997184103383300,19.03038330078125,-0.004812499973922968,-0.1905750036239624,-0.0012374999932944775
1779997184120659700,19.04765966796875,-0.002474999986588955,-0.0317624993622303,0
1779997184137936400,19.064936279296877,0,0.14657500386238098,0.002474999986588955
1779997184155213000,19.082213134765624,0,0.23828749358654022,0.00494999997317791
1779997184172489500,19.099489501953126,0.0012374999932944775,0.18933749198913574,0.0037124999798834324
1779997184189766100,19.11676611328125,-0.0012374999932944775,0.02928750030696392,0.0012374999932944775
1779997184207042600,19.13404248046875,-0.004812499973922968,-0.14781250059604645,-0.0037124999798834324
1779997184224319200,19.1513193359375,-0.006049999967217445,-0.2358125001192093,-0.00494999997317791
1779997184241595600,19.168595703125,-0.004812499973922968,-0.1845249980688095,-0.002474999986588955
1779997184258872000,19.1858720703125,-0.002474999986588955,-0.025712499395012856,0
1779997184276148700,19.203148681640624,0,0.14904999732971191,0.002474999986588955
1779997184293425400,19.22042529296875,0,0.2358125001192093,0.00494999997317791
1779997184310701800,19.237701904296873,0,0.18328750133514404,0.0037124999798834324
1779997184327978200,19.254978271484376,-0.0037124999798834324,0.023237500339746475,0
1779997184345255000,19.2722548828125,-0.004812499973922968,-0.15028749406337738,-0.002474999986588955
1779997184362531300,19.28953125,-0.004812499973922968,-0.23333749175071716,-0.00494999997317791
1779997184379807700,19.306807861328124,-0.0037124999798834324,-0.17957499623298645,-0.002474999986588955
1779997184397084400,19.32408447265625,-0.0012374999932944775,-0.01952499896287918,0
1779997184414360800,19.34136083984375,0.0012374999932944775,0.15152500569820404,0.002474999986588955
1779997184431637200,19.35863720703125,0.002474999986588955,0.23333749175071716,0.006049999967217445
1779997184448914000,19.375913818359376,0.002474999986588955,0.17833749949932098,0.002474999986588955
1779997184466190000,19.393190185546874,-0.002474999986588955,0.018287500366568565,0
1779997184483466800,19.410466796875,-0.00494999997317791,-0.15152500569820404,-0.0037124999798834324
1779997184500743400,19.427743408203124,-0.007287499960511923,-0.23086249828338623,-0.00494999997317791
1779997184518020000,19.44502001953125,-0.006049999967217445,-0.17476250231266022,-0.0012374999932944775
1779997184535296500,19.462296630859374,-0.00494999997317791,-0.015949999913573265,-0.0012374999932944775
1779997184552573000,19.479572998046876,-0.002474999986588955,0.15152500569820404,0.00494999997317791
1779997184569849600,19.496849609375,-0.0012374999932944775,0.22962500154972076,0.00494999997317791
1779997184587126000,19.5141259765625,0,0.1722874939441681,0.0037124999798834324
1779997184604402400,19.53140234375,-0.0012374999932944775,0.01347499992698431,0
1779997184621679000,19.54867919921875,-0.002474999986588955,-0.1527625024318695,-0.0037124999798834324
1779997184638955800,19.565955810546875,-0.002474999986588955,-0.22728750109672546,-0.00494999997317791
1779997184656232200,19.583232177734374,-0.0012374999932944775,-0.16733749210834503,-0.0037124999798834324
1779997184673508600,19.600508544921876,0,-0.010999999940395355,0
1779997184690785300,19.617785400390623,0.0012374999932944775,0.15399999916553497,0.0037124999798834324
1779997184708062000,19.63506201171875,0.002474999986588955,0.22728750109672546,0.00494999997317791
1779997184725338400,19.65233837890625,0.0012374999932944775,0.16609999537467957,0.0037124999798834324
1779997184742614800,19.66961474609375,-0.0012374999932944775,0.0085249999538064,0
1779997184759891500,19.686891357421874,-0.0037124999798834324,-0.1551000028848648,-0.002474999986588955
1779997184777168000,19.70416796875,-0.00494999997317791,-0.22605000436306,-0.00494999997317791
1779997184794444500,19.721444580078124,-0.00494999997317791,-0.16128750145435333,-0.0012374999932944775
1779997184811721000,19.738720947265627,-0.002474999986588955,-0.00494999997317791,0
1779997184828997400,19.755997314453126,0.0012374999932944775,0.1551000028848648,0.0037124999798834324
1779997184846274000,19.773274169921876,0.0012374999932944775,0.22481249272823334,0.00494999997317791
1779997184863550500,19.790550537109375,0.0012374999932944775,0.16128750145435333,0.0037124999798834324
1779997184880827000,19.807826904296874,-0.0012374999932944775,0.002474999986588955,0
1779997184898103600,19.825103515625,-0.0037124999798834324,-0.15757499635219574,-0.002474999986588955
1779997184915380000,19.8423798828125,-0.00494999997317791,-0.22110000252723694,-0.0037124999798834324
1779997184932656600,19.85965673828125,-0.00494999997317791,-0.15633749961853027,-0.002474999986588955
1779997184949933300,19.876933349609374,-0.002474999986588955,0.0012374999932944775,0.0012374999932944775
1779997184967209700,19.894209716796876,-0.002474999986588955,0.15633749961853027,0.002474999986588955
1779997184984486100,19.911486083984375,-0.0012374999932944775,0.22110000252723694,0.006049999967217445
1779997185001762600,19.928762451171874,-0.002474999986588955,0.15399999916553497,0.0037124999798834324
1779997185019039200,19.946039306640625,-0.0037124999798834324,-0.002474999986588955,0
1779997185036316000,19.96331591796875,-0.00494999997317791,-0.15757499635219574,-0.002474999986588955
1779997185053592300,19.98059228515625,-0.00494999997317791,-0.21986250579357147,-0.0037124999798834324
1779997185070868700,19.99786865234375,-0.00494999997317791,-0.15028749406337738,-0.002474999986588955
1779997185088145400,20.0151455078125,-0.002474999986588955,0.006049999967217445,0
1779997185105421800,20.032421875,0,0.15757499635219574,0.002474999986588955
1779997185122698200,20.0496982421875,0.0012374999932944775,0.2186249941587448,0.0037124999798834324
1779997185139975000,20.066974853515624,0,0.15028749406337738,0.0037124999798834324
1779997185157251300,20.084251220703123,-0.002474999986588955,-0.007287499960511923,-0.0012374999932944775
1779997185174528000,20.101528076171874,-0.0037124999798834324,-0.1588124930858612,-0.002474999986588955
1779997185191804400,20.118804443359377,-0.00494999997317791,-0.2162874937057495,-0.00494999997317791
1779997185209080800,20.136080810546876,-0.00494999997317791,-0.14533749222755432,-0.0012374999932944775
1779997185234995700,20.16199560546875,0,0.09281250089406967,0.002474999986588955
1779997185252272400,20.1792724609375,0.0012374999932944775,0.20281249284744263,0.00494999997317791
1779997185269548800,20.196548828125,0,0.1942874938249588,0.0037124999798834324
1779997185286825200,20.2138251953125,-0.0012374999932944775,0.07081250101327896,0.0012374999932944775
1779997185304102000,20.231101806640623,-0.0037124999798834324,-0.09404999762773514,-0.002474999986588955
1779997185321378600,20.248378662109374,-0.006187499966472387,-0.20157499611377716,-0.0037124999798834324
1779997185338654700,20.26565478515625,-0.00494999997317791,-0.1905750036239624,-0.002474999986588955
1779997185355931400,20.282931396484376,-0.0037124999798834324,-0.06599999964237213,0
1779997185373208000,20.3002080078125,-0.0012374999932944775,0.09652499854564667,0.0037124999798834324
1779997185390484500,20.317484375,0,0.20281249284744263,0.0037124999798834324
1779997185407761200,20.33476123046875,0,0.18933749198913574,0.0037124999798834324
1779997185425037600,20.35203759765625,-0.0012374999932944775,0.06476250290870667,0.002474999986588955
1779997185442314000,20.36931396484375,-0.002474999986588955,-0.09776250272989273,-0.002474999986588955
1779997185468228900,20.395228759765626,-0.004812499973922968,-0.210099995136261,-0.0037124999798834324
1779997185485505300,20.41250537109375,-0.004812499973922968,-0.13323749601840973,-0.002474999986588955
1779997185511420200,20.438420166015625,0,0.10023749619722366,0.002474999986588955
1779997185528696600,20.455696533203124,0,0.20157499611377716,0.0037124999798834324
1779997185545973200,20.47297314453125,0,0.1845249980688095,0.002474999986588955
1779997185563249700,20.490249755859374,-0.0012374999932944775,0.05857500061392784,0.0012374999932944775
1779997185580526300,20.5075263671875,-0.0037124999798834324,-0.10147500038146973,-0.002474999986588955
1779997185597802800,20.524802734375,-0.004812499973922968,-0.2003374993801117,-0.0037124999798834324
1779997185615079400,20.542079345703126,-0.0037124999798834324,-0.17957499623298645,-0.0037124999798834324
1779997185632355800,20.55935595703125,-0.002474999986588955,-0.05376249924302101,0
1779997185649632300,20.57663232421875,0,0.10257499665021896,0.0012374999932944775
1779997185666909000,20.593908935546875,0.0012374999932944775,0.19910000264644623,0.0037124999798834324
1779997185684185300,20.611185302734373,0,0.17957499623298645,0.0037124999798834324
1779997185701461800,20.628461669921876,-0.0012374999932944775,0.05376249924302101,0.0012374999932944775
1779997185718738200,20.64573828125,-0.002474999986588955,-0.10381250083446503,-0.0012374999932944775
1779997185736014800,20.663014892578126,-0.004812499973922968,-0.19786250591278076,-0.0037124999798834324
1779997185753291500,20.68029150390625,-0.004812499973922968,-0.17476250231266022,-0.0037124999798834324
1779997185770568000,20.69756787109375,-0.0037124999798834324,-0.05004999786615372,0
1779997185787844400,20.71484423828125,-0.002474999986588955,0.1050499975681305,0.002474999986588955
1779997185805121000,20.73212109375,0,0.19910000264644623,0.00494999997317791
1779997185822397700,20.749397705078124,-0.0012374999932944775,0.17476250231266022,0.0037124999798834324
1779997185839673900,20.766673828125,-0.0012374999932944775,0.047575000673532486,0.0012374999932944775
1779997185856950500,20.783950439453125,-0.0037124999798834324,-0.10628750175237656,-0.002474999986588955
1779997185874227200,20.801227294921876,-0.006049999967217445,-0.19676250219345093,-0.0037124999798834324
1779997185891503600,20.818503662109375,-0.004812499973922968,-0.17104999721050262,-0.002474999986588955
1779997185908780300,20.8357802734375,-0.002474999986588955,-0.04399999976158142,0
1779997185934695000,20.86169482421875,-0.0012374999932944775,0.16609999537467957,0.0037124999798834324
1779997185951971600,20.8789716796875,0,0.19910000264644623,0.0037124999798834324
1779997185969248000,20.896248046875,-0.0012374999932944775,0.11357499659061432,0.002474999986588955
1779997185986524400,20.9135244140625,-0.002337499987334013,-0.035475000739097595,-0.0012374999932944775
1779997186003801000,20.930801025390625,-0.004812499973922968,-0.16499999165534973,-0.002474999986588955
1779997186021077800,20.948077880859376,-0.0035749999806284904,-0.19552500545978546,-0.0037124999798834324
1779997186038354000,20.96535400390625,-0.0035749999806284904,-0.10999999940395355,-0.0012374999932944775
1779997186055630600,20.982630615234374,-0.0012374999932944775,0.03904999792575836,0.0012374999932944775
1779997186072907300,20.9999072265625,0,0.1648624986410141,0.0037124999798834324
1779997186090183700,21.01718359375,0.0012374999932944775,0.1942874938249588,0.00494999997317791
1779997186107460000,21.034460205078126,-0.0012374999932944775,0.10876250267028809,0.002474999986588955
1779997186124736800,21.05173681640625,-0.002337499987334013,-0.04028749838471413,0
1779997186142013200,21.06901318359375,-0.004812499973922968,-0.16499999165534973,-0.0037124999798834324
1779997186159289600,21.08628955078125,-0.004812499973922968,-0.19181250035762787,-0.0037124999798834324
1779997186176566300,21.103566162109374,-0.002337499987334013,-0.1050499975681305,-0.002474999986588955
1779997186193842700,21.1208427734375,-0.0012374999932944775,0.04399999976158142,0.0012374999932944775
1779997186211119000,21.138119140625,0,0.16609999537467957,0.0037124999798834324
1779997186228395800,21.155395751953126,0,0.1905750036239624,0.0037124999798834324
1779997186245672200,21.172672119140625,-0.0012374999932944775,0.10381250083446503,0.002474999986588955
1779997186271587000,21.198587158203125,-0.0035749999806284904,-0.11481250077486038,-0.002474999986588955
1779997186288863500,21.215863525390624,-0.004812499973922968,-0.19181250035762787,-0.002474999986588955
1779997186306140200,21.23314013671875,-0.0035749999806284904,-0.15633749961853027,-0.0037124999798834324
1779997186323416600,21.25041650390625,-0.002337499987334013,-0.02928750030696392,0.0012374999932944775
1779997186340693200,21.267693359375,0,0.11604999750852585,0.0012374999932944775
1779997186357969700,21.2849697265625,0,0.19181250035762787,0.0037124999798834324
1779997186383884500,21.310884521484375,-0.0012374999932944775,0.0989999994635582,0.0012374999932944775
1779997186401161000,21.328160888671874,-0.002337499987334013,-0.04881250113248825,-0.0012374999932944775
1779997186418437400,21.345437255859373,-0.004812499973922968,-0.16609999537467957,-0.0012374999932944775
1779997186435714000,21.362714111328124,-0.004812499973922968,-0.1845249980688095,-0.0037124999798834324
1779997186452990500,21.379990478515627,-0.004812499973922968,-0.0952875018119812,-0.0012374999932944775
1779997186470267000,21.397266845703125,-0.002474999986588955,0.05128749832510948,0.0012374999932944775
1779997186487543600,21.41454345703125,0,0.16609999537467957,0.00494999997317791
1779997186504820000,21.431820068359375,0,0.18328750133514404,0.0037124999798834324
1779997186522096400,21.449096435546874,-0.0012374999932944775,0.09157499670982361,0.002474999986588955
1779997186539373000,21.466373046875,-0.0035749999806284904,-0.05376249924302101,-0.0012374999932944775
1779997186556649500,21.4836494140625,-0.004812499973922968,-0.16609999537467957,-0.0037124999798834324
1779997186573926100,21.500926025390626,-0.004812499973922968,-0.17957499623298645,-0.0012374999932944775
1779997186591202600,21.51820263671875,-0.0035749999806284904,-0.08799999952316284,-0.0012374999932944775
1779997186608479200,21.535479248046876,-0.0012374999932944775,0.054999999701976776,0.0012374999932944775
1779997186634393900,21.561393798828124,0,0.18809999525547028,0.0037124999798834324
1779997186651670300,21.578670166015623,-0.0012374999932944775,0.14409999549388885,0.002474999986588955
1779997186668947000,21.595947021484374,-0.002474999986588955,0.015812499448657036,0
1779997186686223600,21.6132236328125,-0.0035749999806284904,-0.12099999934434891,-0.002474999986588955
1779997186703500000,21.6305,-0.0035749999806284904,-0.18576249480247498,-0.00494999997317791
1779997186720776700,21.647776611328126,-0.0035749999806284904,-0.1405249983072281,-0.0012374999932944775
1779997186738053000,21.66505322265625,-0.0012374999932944775,-0.01223750039935112,0
1779997186755329800,21.682329833984376,0.0012374999932944775,0.12333749979734421,0.0037124999798834324
1779997186772606000,21.69960595703125,0.0012374999932944775,0.18562500178813934,0.0037124999798834324
1779997186789882600,21.716882568359374,0,0.13928750157356262,0.002474999986588955
1779997186807159300,21.7341591796875,-0.0012374999932944775,0.01223750039935112,0.0012374999932944775
1779997186824435700,21.751435791015624,-0.002474999986588955,-0.12223749607801437,-0.0037124999798834324
1779997186841712000,21.768712158203126,-0.0035749999806284904,-0.1845249980688095,-0.0012374999932944775
1779997186858988800,21.78598876953125,-0.0035749999806284904,-0.1368124932050705,-0.0037124999798834324
1779997186876265200,21.80326513671875,-0.002474999986588955,-0.0085249999538064,0.0012374999932944775
1779997186893542000,21.8205419921875,0.0012374999932944775,0.12457499653100967,0.002474999986588955
1779997186910818300,21.837818359375,0.002474999986588955,0.1845249980688095,0.0037124999798834324
1779997186928094700,21.8550947265625,0.0012374999932944775,0.13557499647140503,0.0037124999798834324
1779997186945371400,21.872371337890623,0,0.007287499960511923,0
1779997186962647800,21.889647705078126,-0.0037124999798834324,-0.12581250071525574,-0.002474999986588955
1779997186979924200,21.90692431640625,-0.0037124999798834324,-0.18328750133514404,-0.0037124999798834324
1779997186997201000,21.924200927734375,-0.0037124999798834324,-0.13199999928474426,-0.0012374999932944775
1779997187023115500,21.950115478515624,-0.0012374999932944775,0.0672374963760376,0.0012374999932944775
1779997187040392200,21.96739208984375,-0.0012374999932944775,0.16733749210834503,0.002474999986588955
1779997187057668600,21.984668701171874,-0.002474999986588955,0.16733749210834503,0.0037124999798834324
1779997187074945000,22.001945068359376,-0.0037124999798834324,0.07081250101327896,0.0012374999932944775
1779997187100860000,22.02785986328125,-0.004812499973922968,-0.1270499974489212,-0.002474999986588955
1779997187118136600,22.045136474609375,-0.006049999967217445,-0.18081249296665192,-0.002474999986588955
