time,seconds_elapsed,z,y,x
1779997165282241500,0.209241455078125,20.943750381469727,29.793750762939453,9.881250381469727
1779997165302433500,0.22943359375,21.131250381469727,29.73750114440918,9.46875
1779997165322826000,0.249825927734375,21.150001525878906,29.718751907348633,9.450000762939453
1779997165342863000,0.269863037109375,21.1875,29.73750114440918,9.43125057220459
1779997165362873300,0.289873291015625,21.20625114440918,29.73750114440918,9.412500381469727
1779997165383058700,0.31005859375,21.262500762939453,29.718751907348633,9.375
1779997165402869200,0.329869140625,21.30000114440918,29.718751907348633,9.393750190734863
1779997165423018000,0.35001806640625,21.20625114440918,29.718751907348633,9.375
1779997165443082200,0.370082275390625,21.11250114440918,29.73750114440918,9.356250762939453
1779997165462995500,0.389995361328125,21.01875114440918,29.73750114440918,9.33750057220459
1779997165482849000,0.40984912109375,21,29.73750114440918,9.318750381469727
1779997165502973400,0.429973388671875,21,29.73750114440918,9.300000190734863
1779997165523050000,0.450050048828125,20.962501525878906,29.756250381469727,9.28125
1779997165542888700,0.469888671875,20.887500762939453,29.756250381469727,9.262500762939453
1779997165562996200,0.489996337890625,20.90625,29.756250381469727,9.225000381469727
1779997165583071000,0.510071044921875,21,29.756250381469727,9.206250190734863
1779997165602941000,0.52994091796875,21,29.756250381469727,9.168750762939453
1779997165622818800,0.54981884765625,20.981250762939453,29.775001525878906,9.168750762939453
1779997165642965500,0.569965576171875,20.962501525878906,29.775001525878906,9.1875
1779997165662724400,0.589724365234375,21.01875114440918,29.775001525878906,9.206250190734863
1779997165682916900,0.609916748046875,20.943750381469727,29.793750762939453,9.206250190734863
1779997165703038500,0.63003857421875,20.962501525878906,29.793750762939453,9.168750762939453
1779997165722828500,0.64982861328125,21.131250381469727,29.793750762939453,9.168750762939453
1779997165810483700,0.737483642578125,21.131250381469727,29.793750762939453,9.168750762939453
1779997165906813400,0.8338134765625,21,29.83125114440918,9.168750762939453
1779997166047311400,0.974311279296875,9.28125,33.35625076293945,8.175000190734863
1779997166140925200,1.06792529296875,-13.800000190734863,40.29375076293945,6.393750190734863
1779997166187692300,1.1146923828125,-13.818750381469727,40.3125,6.393750190734863
1779997166234414300,1.161414306640625,-13.74375057220459,40.3125,6.375000476837158
1779997166281074000,1.208073974609375,-13.687500953674316,40.29375076293945,6.356250286102295
1779997166327647700,1.254647705078125,-13.706250190734863,40.3125,6.337500095367432
1779997166374108700,1.301108642578125,-13.65000057220459,40.3125,6.318750381469727
1779997166420424700,1.3474248046875,-13.668750762939453,40.3125,6.300000190734863
1779997166466557700,1.3935576171875,-13.781250953674316,40.3125,6.300000190734863
1779997166512620000,1.4396201171875,-13.65000057220459,40.29375076293945,6.281250476837158
1779997166603891200,1.53089111328125,-13.237500190734863,40.21875,6.318750381469727
1779997166737539300,1.664539306640625,-1.162500023841858,36.65625,7.350000381469727
1779997166780886800,1.70788671875,22.087501525878906,29.718751907348633,9.1875
1779997166823533800,1.750533935546875,22.05000114440918,29.700000762939453,9.225000381469727
1779997166865390800,1.792390869140625,22.125,29.681251525878906,9.262500762939453
1779997166906362600,1.833362548828125,22.05000114440918,29.662500381469727,9.318750381469727
1779997166947101700,1.874101806640625,21.900001525878906,29.64375114440918,9.33750057220459
1779997167025114400,1.9521142578125,21.76875114440918,29.606250762939453,9.393750190734863
1779997167131609300,2.058609375,21.65625,29.606250762939453,9.450000762939453
1779997167163804000,2.090803955078125,9.975000381469727,33.09375,8.550000190734863
1779997167194375700,2.121375732421875,9.84375,33.09375,8.550000190734863
1779997167223246300,2.150246337890625,9.693750381469727,33.09375,8.550000190734863
1779997167250350300,2.177350341796875,9.61875057220459,33.09375,8.550000190734863
1779997167277531100,2.20453125,9.450000762939453,33.07500076293945,8.550000190734863
1779997167325665300,2.252665283203125,9.112500190734863,33.03750228881836,8.550000190734863
1779997167365453600,2.29245361328125,-14.362500190734863,40.01250076293945,6.618750095367432
1779997167408963800,2.3359638671875,-14.437500953674316,40.087501525878906,6.637500286102295
1779997167419843800,2.34684375,-14.437500953674316,40.087501525878906,6.618750095367432
1779997167436801800,2.3638017578125,-14.512500762939453,40.087501525878906,6.618750095367432
1779997167448064000,2.37506396484375,-2.6625001430511475,36.60000228881836,7.537500381469727
1779997167460696300,2.3876962890625,18.58125114440918,29.83125114440918,10.537500381469727
1779997167472249000,2.3992490234375,18.637500762939453,29.887500762939453,10.518750190734863
1779997167485853700,2.412853759765625,18.75,29.868751525878906,10.575000762939453
1779997167501490200,2.428490234375,18.412500381469727,29.868751525878906,10.612500190734863
1779997167518993400,2.445993408203125,18.48750114440918,29.906251907348633,10.631250381469727
1779997167538360000,2.465360107421875,18.731250762939453,29.887500762939453,10.612500190734863
1779997167548698000,2.475697998046875,18.787500381469727,29.906251907348633,10.631250381469727
1779997167559505200,2.486505126953125,18.618751525878906,29.887500762939453,10.631250381469727
1779997167570718000,2.497718017578125,18.431251525878906,29.868751525878906,10.631250381469727
1779997167582328000,2.509328125,18.356250762939453,29.850000381469727,10.612500190734863
1779997167594794000,2.5217939453125,18.375,29.850000381469727,10.612500190734863
1779997167612259600,2.539259521484375,18.431251525878906,29.850000381469727,10.575000762939453
1779997167635831800,2.562831787109375,18.356250762939453,29.812501907348633,10.55625057220459
1779997167659881200,2.586881103515625,18.30000114440918,29.812501907348633,10.537500381469727
1779997167682125600,2.60912548828125,18.11250114440918,29.812501907348633,10.537500381469727
1779997167702970400,2.629970458984375,18.056251525878906,29.793750762939453,10.537500381469727
1779997167723151400,2.6501513671875,18.168750762939453,29.793750762939453,10.55625057220459
1779997167743489300,2.6704892578125,18.20625114440918,29.775001525878906,10.518750190734863
1779997167763321600,2.690321533203125,18.225000381469727,29.775001525878906,10.5
1779997167782850800,2.709850830078125,18.11250114440918,29.793750762939453,10.5
1779997167802560500,2.729560546875,18.01875114440918,29.812501907348633,10.481250762939453
1779997167822385700,2.7493857421875,18.01875114440918,29.812501907348633,10.5
1779997167842311700,2.769311767578125,18.09375,29.812501907348633,10.537500381469727
1779997167862335000,2.7893349609375,18.09375,29.793750762939453,10.55625057220459
1779997167882451700,2.80945166015625,18.20625114440918,29.812501907348633,10.55625057220459
1779997167902388000,2.829387939453125,18.28125,29.793750762939453,10.537500381469727
1779997167922630000,2.8496298828125,18.39375114440918,29.793750762939453,10.518750190734863
1779997167942498800,2.869498779296875,18.337501525878906,29.793750762939453,10.5
1779997167962413000,2.8894130859375,18.375,29.812501907348633,10.537500381469727
1779997167982572000,2.909572021484375,18.337501525878906,29.793750762939453,10.537500381469727
1779997168002451200,2.929451171875,18.506250381469727,29.793750762939453,10.55625057220459
1779997168022378200,2.949378173828125,18.48750114440918,29.793750762939453,10.537500381469727
1779997168042347500,2.969347412109375,18.712501525878906,29.793750762939453,10.518750190734863
1779997168062518000,2.98951806640625,18.731250762939453,29.775001525878906,10.518750190734863
1779997168082406000,3.009406005859375,18.825000762939453,29.73750114440918,10.5
1779997168102637300,3.02963720703125,18.787500381469727,29.73750114440918,10.518750190734863
1779997168122768600,3.0497685546875,18.65625,29.73750114440918,10.537500381469727
1779997168142569700,3.06956982421875,18.58125114440918,29.73750114440918,10.55625057220459
1779997168162697200,3.089697265625,18.65625,29.775001525878906,10.518750190734863
1779997168182976000,3.10997607421875,18.825000762939453,29.756250381469727,10.5
1779997168202663700,3.12966357421875,18.881250381469727,29.756250381469727,10.5
1779997168222451000,3.149450927734375,18.84375,29.756250381469727,10.5
1779997168242343200,3.16934326171875,18.881250381469727,29.775001525878906,10.518750190734863
1779997168262428400,3.189428466796875,18.731250762939453,29.756250381469727,10.518750190734863
1779997168282361000,3.209361083984375,18.65625,29.775001525878906,10.5
1779997168302688000,3.22968798828125,18.506250381469727,29.775001525878906,10.481250762939453
1779997168322777900,3.24977783203125,18.67500114440918,29.775001525878906,10.481250762939453
1779997168343009300,3.27000927734375,18.65625,29.756250381469727,10.481250762939453
1779997168363118000,3.2901181640625,18.618751525878906,29.793750762939453,10.481250762939453
1779997168382907100,3.3099072265625,18.543750762939453,29.793750762939453,10.5
1779997168402808600,3.32980859375,18.506250381469727,29.793750762939453,10.518750190734863
1779997168422770400,3.3497705078125,18.46875,29.812501907348633,10.537500381469727
1779997168442492000,3.369491943359375,18.5625,29.83125114440918,10.518750190734863
1779997168462551600,3.389551513671875,18.506250381469727,29.812501907348633,10.518750190734863
1779997168482401000,3.409401123046875,18.525001525878906,29.812501907348633,10.5
1779997168502589000,3.4295888671875,18.48750114440918,29.83125114440918,10.5
1779997168522462000,3.4494619140625,18.412500381469727,29.850000381469727,10.518750190734863
1779997168542383000,3.469383056640625,18.48750114440918,29.83125114440918,10.55625057220459
1779997168562657300,3.4896572265625,18.506250381469727,29.850000381469727,10.575000762939453
1779997168582555100,3.50955517578125,18.525001525878906,29.850000381469727,10.575000762939453
1779997168602436400,3.529436279296875,18.65625,29.83125114440918,10.575000762939453
1779997168622635800,3.5496357421875,18.58125114440918,29.83125114440918,10.55625057220459
1779997168642496300,3.569496337890625,18.506250381469727,29.83125114440918,10.55625057220459
1779997168662401800,3.58940185546875,18.506250381469727,29.812501907348633,10.55625057220459
1779997168682355500,3.60935546875,18.39375114440918,29.83125114440918,10.55625057220459
1779997168702655200,3.6296552734375,18.1875,29.850000381469727,10.575000762939453
1779997168722495500,3.64949560546875,18.150001525878906,29.850000381469727,10.55625057220459
1779997168742398000,3.66939794921875,18.225000381469727,29.83125114440918,10.518750190734863
1779997168762414600,3.68941455078125,18.150001525878906,29.83125114440918,10.537500381469727
1779997168782366500,3.709366455078125,18.168750762939453,29.868751525878906,10.537500381469727
1779997168802346000,3.729345947265625,18.131250381469727,29.850000381469727,10.55625057220459
1779997168822585900,3.7495859375,18.11250114440918,29.83125114440918,10.55625057220459
1779997168842477300,3.769477294921875,17.943750381469727,29.83125114440918,10.55625057220459
1779997168862415000,3.7894150390625,17.850000381469727,29.83125114440918,10.55625057220459
1779997168882574800,3.809574951171875,17.775001525878906,29.83125114440918,10.55625057220459
1779997168902455800,3.829455810546875,17.73750114440918,29.850000381469727,10.537500381469727
1779997168922389500,3.849389404296875,17.700000762939453,29.850000381469727,10.537500381469727
1779997168942614800,3.86961474609375,17.64375114440918,29.850000381469727,10.537500381469727
1779997168962487300,3.8894873046875,17.587501525878906,29.850000381469727,10.537500381469727
1779997168982408700,3.90940869140625,17.73750114440918,29.850000381469727,10.575000762939453
1779997169070355700,3.997355712890625,17.850000381469727,29.83125114440918,10.537500381469727
1779997169166982000,4.09398193359375,17.681251525878906,29.83125114440918,10.575000762939453
1779997169260926700,4.1879267578125,17.4375,29.793750762939453,10.575000762939453
1779997169401780500,4.328780517578125,-17.006250381469727,40.21875,7.687500476837158
1779997169448684300,4.375684326171875,-16.856250762939453,40.21875,7.668750286102295
1779997169495543300,4.422543212890625,-16.650001525878906,40.20000076293945,7.668750286102295
1779997169542339000,4.469339111328125,-16.537500381469727,40.21875,7.650000095367432
1779997169589049000,4.516049072265625,-16.556251525878906,40.23750305175781,7.668750286102295
1779997169635645400,4.5626455078125,-16.481250762939453,40.23750305175781,7.706250190734863
1779997169682095900,4.609095947265625,-16.556251525878906,40.23750305175781,7.706250190734863
1779997169728362200,4.6553623046875,-16.631250381469727,40.21875,7.687500476837158
1779997169774400500,4.701400390625,-16.575000762939453,40.23750305175781,7.668750286102295
1779997169820161500,4.74716162109375,-16.537500381469727,40.23750305175781,7.668750286102295
1779997169865588500,4.79258837890625,-16.51875114440918,40.25625228881836,7.650000095367432
1779997169910621000,4.837620849609375,-16.462501525878906,40.29375076293945,7.668750286102295
1779997169955189200,4.882189208984375,-16.33125114440918,40.3125,7.687500476837158
1779997169999218000,4.926218017578125,6.675000190734863,33.375,9.600000381469727
1779997170042627800,4.9696279296875,18.243751525878906,29.868751525878906,10.575000762939453
1779997170085332500,5.01233251953125,18.39375114440918,29.887500762939453,10.59375
1779997170127244500,5.05424462890625,18.48750114440918,29.868751525878906,10.575000762939453
1779997170168272100,5.095272216796875,18.39375114440918,29.868751525878906,10.55625057220459
1779997170208991200,5.1359912109375,18.375,29.850000381469727,10.575000762939453
1779997170287006700,5.2140068359375,18.48750114440918,29.812501907348633,10.537500381469727
1779997170324038100,5.2510380859375,18.618751525878906,29.83125114440918,10.518750190734863
1779997170425696500,5.352696533203125,18.731250762939453,29.887500762939453,10.518750190734863
1779997170456274200,5.383274169921875,18.75,29.887500762939453,10.55625057220459
1779997170485145600,5.4121455078125,18.75,29.83125114440918,10.55625057220459
1779997170512252200,5.439252197265625,18.65625,29.83125114440918,10.575000762939453
1779997170537553700,5.4645537109375,18.637500762939453,29.83125114440918,10.55625057220459
1779997170561006300,5.48800634765625,18.48750114440918,29.83125114440918,10.537500381469727
1779997170582597000,5.50959716796875,18.375,29.850000381469727,10.537500381469727
1779997170602318800,5.52931884765625,18.20625114440918,29.850000381469727,10.55625057220459
1779997170620179200,5.54717919921875,18.318750381469727,29.850000381469727,10.575000762939453
1779997170636193300,5.563193359375,18.1875,29.850000381469727,10.612500190734863
1779997170650418400,5.57741845703125,18.09375,29.850000381469727,10.631250381469727
1779997170662889500,5.589889404296875,18.075000762939453,29.850000381469727,10.65000057220459
1779997170673691600,5.600691650390625,18.11250114440918,29.850000381469727,10.631250381469727
1779997170690565600,5.617565673828125,18.075000762939453,29.812501907348633,10.612500190734863
1779997170701787100,5.628787109375,18.075000762939453,29.793750762939453,10.631250381469727
1779997170712415500,5.63941552734375,18.825000762939453,29.868751525878906,10.59375
1779997170723232800,5.650232666015625,18.46875,29.868751525878906,10.575000762939453
1779997170736073700,5.66307373046875,18.11250114440918,29.887500762939453,10.575000762939453
1779997170750923300,5.67792333984375,18.243751525878906,29.868751525878906,10.59375
1779997170767683600,5.69468359375,18.262500762939453,29.850000381469727,10.55625057220459
1779997170786337500,5.713337646484375,18.168750762939453,29.83125114440918,10.55625057220459
1779997170796336400,5.72333642578125,18.11250114440918,29.850000381469727,10.575000762939453
1779997170806775800,5.73377587890625,18.056251525878906,29.83125114440918,10.55625057220459
1779997170817647400,5.7446474609375,18,29.850000381469727,10.537500381469727
1779997170828958000,5.7559580078125,18.01875114440918,29.850000381469727,10.518750190734863
1779997170840666400,5.767666259765625,18.131250381469727,29.812501907348633,10.481250762939453
1779997170853357600,5.780357666015625,18.262500762939453,29.812501907348633,10.5
1779997170871348500,5.798348388671875,18.30000114440918,29.812501907348633,10.5
1779997170895206400,5.822206298828125,18.262500762939453,29.793750762939453,10.481250762939453
1779997170919614500,5.846614501953125,18.262500762939453,29.793750762939453,10.518750190734863
1779997170941997600,5.86899755859375,18.11250114440918,29.793750762939453,10.5
1779997170963051000,5.890051025390625,18.318750381469727,29.775001525878906,10.5
1779997170983506200,5.910506103515625,18.506250381469727,29.793750762939453,10.5
1779997171003263200,5.93026318359375,18.412500381469727,29.775001525878906,10.518750190734863
1779997171022937300,5.949937255859375,18.600000381469727,29.756250381469727,10.55625057220459
1779997171043108600,5.970108642578125,18.75,29.756250381469727,10.55625057220459
1779997171062719000,5.989718994140625,18.918750762939453,29.793750762939453,10.537500381469727
1779997171082669300,6.00966943359375,18.881250381469727,29.812501907348633,10.55625057220459
1779997171102708000,6.0297080078125,18.86250114440918,29.812501907348633,10.55625057220459
1779997171122509300,6.04950927734375,18.825000762939453,29.812501907348633,10.55625057220459
1779997171142380800,6.069380859375,18.787500381469727,29.812501907348633,10.55625057220459
1779997171162320100,6.089320068359375,18.65625,29.83125114440918,10.55625057220459
1779997171182415000,6.1094150390625,18.67500114440918,29.83125114440918,10.575000762939453
1779997171202374400,6.12937451171875,18.84375,29.850000381469727,10.59375
1779997171222613500,6.149613525390625,18.900001525878906,29.868751525878906,10.575000762939453
1779997171242706200,6.1697060546875,19.012500762939453,29.887500762939453,10.575000762939453
1779997171262521600,6.189521484375,18.918750762939453,29.906251907348633,10.55625057220459
1779997171282665700,6.209665771484375,18.731250762939453,29.906251907348633,10.575000762939453
1779997171302768400,6.229768310546875,18.693750381469727,29.906251907348633,10.575000762939453
1779997171322534700,6.24953466796875,18.48750114440918,29.906251907348633,10.537500381469727
1779997171342399700,6.269399658203125,18.30000114440918,29.906251907348633,10.537500381469727
1779997171362447400,6.289447265625,18.1875,29.906251907348633,10.5
1779997171382378500,6.30937841796875,18.225000381469727,29.906251907348633,10.5
1779997171402348000,6.32934814453125,18.131250381469727,29.887500762939453,10.481250762939453
1779997171422596600,6.3495966796875,18.168750762939453,29.868751525878906,10.481250762939453
1779997171442483200,6.369483154296875,18.168750762939453,29.850000381469727,10.481250762939453
1779997171462409200,6.3894091796875,18.30000114440918,29.850000381469727,10.518750190734863
1779997171482837200,6.409837158203125,18.28125,29.83125114440918,10.518750190734863
1779997171502958300,6.429958251953125,18.243751525878906,29.83125114440918,10.481250762939453
1779997171522641400,6.449641357421875,18.243751525878906,29.812501907348633,10.46250057220459
1779997171542447000,6.469447021484375,18.131250381469727,29.812501907348633,10.443750381469727
1779997171562441200,6.489441162109375,18.09375,29.793750762939453,10.46250057220459
1779997171582366000,6.509365966796875,18.037500381469727,29.793750762939453,10.481250762939453
1779997171602331100,6.5293310546875,17.83125114440918,29.812501907348633,10.5
1779997171622599200,6.54959912109375,17.756250381469727,29.812501907348633,10.481250762939453
1779997171642474800,6.569474853515625,17.756250381469727,29.812501907348633,10.5
1779997171662392000,6.58939208984375,17.83125114440918,29.793750762939453,10.481250762939453
1779997171682555400,6.609555419921875,17.90625,29.793750762939453,10.481250762939453
1779997171702444500,6.629444580078125,17.90625,29.812501907348633,10.46250057220459
1779997171722374700,6.649374755859375,17.868751525878906,29.850000381469727,10.5
1779997171742776600,6.669776611328125,17.850000381469727,29.887500762939453,10.5
1779997171762579500,6.689579345703125,17.8125,29.887500762939453,10.481250762939453
1779997171782434000,6.70943408203125,17.90625,29.887500762939453,10.46250057220459
1779997171802822700,6.72982275390625,17.887500762939453,29.887500762939453,10.481250762939453
1779997171822580700,6.749580810546875,17.943750381469727,29.868751525878906,10.518750190734863
1779997171842430500,6.769430419921875,17.962501525878906,29.868751525878906,10.55625057220459
1779997171862622000,6.7896220703125,17.90625,29.887500762939453,10.55625057220459
1779997171882827800,6.809827880859375,18,29.906251907348633,10.55625057220459
1779997171902577700,6.82957763671875,18.28125,29.887500762939453,10.55625057220459
1779997171922697000,6.849697021484375,18.431251525878906,29.887500762939453,10.575000762939453
1779997171942500900,6.8695009765625,18.543750762939453,29.906251907348633,10.55625057220459
1779997171962388700,6.889388671875,18.450000762939453,29.906251907348633,10.575000762939453
1779997171982340600,6.909340576171875,18.356250762939453,29.906251907348633,10.612500190734863
1779997172002321700,6.92932177734375,18.318750381469727,29.887500762939453,10.631250381469727
1779997172022324200,6.94932421875,18.1875,29.868751525878906,10.612500190734863
1779997172042338300,6.96933837890625,18.131250381469727,29.850000381469727,10.59375
1779997172062438700,6.989438720703125,18.09375,29.812501907348633,10.55625057220459
1779997172082414800,7.009414794921875,18.11250114440918,29.812501907348633,10.55625057220459
1779997172102387200,7.02938720703125,18.11250114440918,29.812501907348633,10.537500381469727
1779997172122567700,7.049567626953125,18.150001525878906,29.812501907348633,10.537500381469727
1779997172142476300,7.069476318359375,18.168750762939453,29.83125114440918,10.518750190734863
1779997172162406100,7.08940625,18.225000381469727,29.812501907348633,10.5
1779997172182834700,7.109834716796875,18.318750381469727,29.793750762939453,10.481250762939453
1779997172202869200,7.129869140625,18.318750381469727,29.812501907348633,10.46250057220459
1779997172222594800,7.1495947265625,18.39375114440918,29.812501907348633,10.443750381469727
1779997172242426600,7.169426513671875,18.431251525878906,29.812501907348633,10.46250057220459
1779997172262359800,7.18935986328125,18.506250381469727,29.793750762939453,10.46250057220459
1779997172282786000,7.2097861328125,18.58125114440918,29.775001525878906,10.46250057220459
1779997172302776300,7.2297763671875,18.712501525878906,29.775001525878906,10.481250762939453
1779997172322633500,7.249633544921875,18.881250381469727,29.793750762939453,10.481250762939453
1779997172342434300,7.269434326171875,18.900001525878906,29.793750762939453,10.481250762939453
1779997172362347000,7.289346923828125,18.975000381469727,29.812501907348633,10.481250762939453
1779997172382514700,7.3095146484375,18.75,29.812501907348633,10.481250762939453
1779997172402413600,7.32941357421875,18.65625,29.812501907348633,10.5
1779997172422365200,7.349365234375,18.58125114440918,29.812501907348633,10.5
1779997172442339600,7.369339599609375,18.637500762939453,29.793750762939453,10.5
1779997172462600200,7.38960009765625,18.637500762939453,29.793750762939453,10.518750190734863
1779997172482493700,7.40949365234375,18.543750762939453,29.793750762939453,10.518750190734863
1779997172502827800,7.429827880859375,18.39375114440918,29.793750762939453,10.537500381469727
1779997172522827000,7.449826904296875,18.356250762939453,29.793750762939453,10.537500381469727
1779997172542573000,7.469572998046875,18.318750381469727,29.775001525878906,10.537500381469727
1779997172562969300,7.48996923828125,18.28125,29.775001525878906,10.537500381469727
1779997172582644700,7.509644775390625,18.11250114440918,29.793750762939453,10.518750190734863
1779997172602439200,7.529439208984375,17.92500114440918,29.793750762939453,10.481250762939453
1779997172622603500,7.549603515625,17.92500114440918,29.775001525878906,10.481250762939453
1779997172642458000,7.5694580078125,17.962501525878906,29.73750114440918,10.5
1779997172662371800,7.589371826171875,18,29.718751907348633,10.518750190734863
1779997172682335700,7.609335693359375,18.09375,29.718751907348633,10.55625057220459
1779997172702332200,7.629332275390625,18.11250114440918,29.718751907348633,10.55625057220459
1779997172722333200,7.649333251953125,18.131250381469727,29.718751907348633,10.537500381469727
1779997172742341600,7.669341552734375,18.01875114440918,29.718751907348633,10.537500381469727
1779997172762568000,7.68956787109375,17.962501525878906,29.73750114440918,10.518750190734863
1779997172782462700,7.709462646484375,17.92500114440918,29.718751907348633,10.518750190734863
1779997172802394600,7.72939453125,17.981250762939453,29.718751907348633,10.518750190734863
1779997172822412500,7.74941259765625,18.01875114440918,29.73750114440918,10.537500381469727
1779997172842659800,7.769659912109375,18.037500381469727,29.73750114440918,10.55625057220459
1779997172862760200,7.78976025390625,18.037500381469727,29.73750114440918,10.537500381469727
1779997172882749200,7.809749267578125,18.037500381469727,29.718751907348633,10.55625057220459
1779997172902517800,7.829517822265625,18.30000114440918,29.756250381469727,10.55625057220459
1779997172922390500,7.849390625,18.375,29.775001525878906,10.575000762939453
1779997172942704000,7.8697041015625,18.318750381469727,29.812501907348633,10.59375
1779997172962541000,7.889541015625,18.1875,29.83125114440918,10.612500190734863
1779997172982423600,7.909423583984375,18.075000762939453,29.83125114440918,10.59375
1779997173002354700,7.929354736328125,18.150001525878906,29.83125114440918,10.59375
1779997173022385700,7.9493857421875,18.037500381469727,29.83125114440918,10.575000762939453
1779997173042359300,7.969359375,18.01875114440918,29.850000381469727,10.575000762939453
1779997173062343200,7.98934326171875,18.056251525878906,29.83125114440918,10.575000762939453
1779997173082538800,8.009538818359376,18.01875114440918,29.812501907348633,10.59375
1779997173102650600,8.029650634765625,17.887500762939453,29.83125114440918,10.59375
1779997173122748400,8.04974853515625,17.83125114440918,29.83125114440918,10.59375
1779997173142793700,8.069793701171875,17.756250381469727,29.812501907348633,10.575000762939453
1779997173162541000,8.089541015625,17.8125,29.812501907348633,10.55625057220459
1779997173182396000,8.10939599609375,18.01875114440918,29.83125114440918,10.55625057220459
1779997173202665000,8.1296650390625,17.92500114440918,29.83125114440918,10.537500381469727
1779997173222527500,8.149527587890624,17.756250381469727,29.812501907348633,10.537500381469727
1779997173242609000,8.16960888671875,17.64375114440918,29.812501907348633,10.537500381469727
1779997173262906400,8.18990625,17.662500381469727,29.83125114440918,10.5
1779997173282603500,8.209603515625,17.71875,29.812501907348633,10.518750190734863
1779997173302421000,8.2294208984375,17.73750114440918,29.83125114440918,10.518750190734863
1779997173322359000,8.249359130859375,17.756250381469727,29.83125114440918,10.5
1779997173342634500,8.269634521484376,17.83125114440918,29.83125114440918,10.5
1779997173362951700,8.28995166015625,17.756250381469727,29.83125114440918,10.518750190734863
1779997173382645800,8.309645751953125,17.700000762939453,29.850000381469727,10.537500381469727
1779997173402453800,8.329453857421875,17.83125114440918,29.850000381469727,10.55625057220459
1779997173422358500,8.349358642578125,17.850000381469727,29.850000381469727,10.537500381469727
1779997173442782500,8.369782470703125,17.868751525878906,29.850000381469727,10.537500381469727
1779997173462790100,8.3897900390625,17.887500762939453,29.83125114440918,10.518750190734863
1779997173482541000,8.409541015625,17.83125114440918,29.850000381469727,10.518750190734863
1779997173502390500,8.429390625,17.92500114440918,29.83125114440918,10.537500381469727
1779997173522526200,8.449526123046875,18,29.83125114440918,10.537500381469727
1779997173542877700,8.469877685546875,18.1875,29.83125114440918,10.518750190734863
1779997173562868200,8.4898681640625,18.262500762939453,29.83125114440918,10.537500381469727
1779997173582876200,8.509876220703125,18.337501525878906,29.83125114440918,10.537500381469727
1779997173602823000,8.529822998046875,18.337501525878906,29.812501907348633,10.518750190734863
1779997173622989800,8.54998974609375,18.30000114440918,29.83125114440918,10.537500381469727
1779997173643077600,8.57007763671875,18.225000381469727,29.83125114440918,10.55625057220459
1779997173662650600,8.589650634765626,18.412500381469727,29.850000381469727,10.537500381469727
1779997173682873900,8.609873779296874,18.506250381469727,29.83125114440918,10.518750190734863
1779997173702816000,8.62981591796875,18.39375114440918,29.83125114440918,10.5
1779997173722518800,8.649518798828124,18.337501525878906,29.83125114440918,10.5
1779997173742361000,8.669361083984375,18.243751525878906,29.850000381469727,10.518750190734863
1779997173762322700,8.68932275390625,18.09375,29.850000381469727,10.518750190734863
1779997173782406700,8.70940673828125,17.8125,29.83125114440918,10.537500381469727
1779997173802359300,8.729359375,17.700000762939453,29.850000381469727,10.537500381469727
1779997173822608000,8.74960791015625,17.700000762939453,29.850000381469727,10.537500381469727
1779997173842730200,8.769730224609376,17.587501525878906,29.83125114440918,10.518750190734863
1779997173862790100,8.7897900390625,17.512500762939453,29.83125114440918,10.518750190734863
1779997173882553600,8.8095537109375,17.4375,29.83125114440918,10.537500381469727
1779997173902412300,8.829412353515625,17.4375,29.83125114440918,10.537500381469727
1779997173922348000,8.84934814453125,17.475000381469727,29.83125114440918,10.537500381469727
1779997173942320600,8.869320556640625,17.418750762939453,29.812501907348633,10.537500381469727
1779997173962472200,8.88947216796875,17.306251525878906,29.793750762939453,10.537500381469727
1779997173982684200,8.90968408203125,17.381250381469727,29.812501907348633,10.55625057220459
1779997174002527000,8.92952685546875,17.475000381469727,29.812501907348633,10.55625057220459
1779997174023014400,8.950014404296875,17.4375,29.812501907348633,10.55625057220459
1779997174042684400,8.969684326171874,17.400001525878906,29.812501907348633,10.537500381469727
1779997174062464800,8.98946484375,17.400001525878906,29.812501907348633,10.55625057220459
1779997174082350800,9.009350830078125,17.418750762939453,29.812501907348633,10.575000762939453
1779997174102311000,9.029310791015625,17.400001525878906,29.812501907348633,10.537500381469727
1779997174122309400,9.049309326171874,17.475000381469727,29.83125114440918,10.537500381469727
1779997174142782000,9.069781982421874,17.53125,29.850000381469727,10.537500381469727
1779997174162706700,9.089706787109375,17.73750114440918,29.850000381469727,10.537500381469727
1779997174182709800,9.109709716796875,17.887500762939453,29.83125114440918,10.537500381469727
1779997174202962700,9.129962646484374,17.8125,29.812501907348633,10.537500381469727
1779997174222824200,9.14982421875,17.868751525878906,29.812501907348633,10.518750190734863
1779997174242521600,9.169521484375,18.01875114440918,29.812501907348633,10.5
1779997174262364200,9.1893642578125,18.09375,29.812501907348633,10.5
1779997174282497500,9.20949755859375,18.11250114440918,29.812501907348633,10.481250762939453
1779997174302649600,9.229649658203124,18.243751525878906,29.83125114440918,10.481250762939453
1779997174322749700,9.249749755859375,18.412500381469727,29.850000381469727,10.5
1779997174342539000,9.2695390625,18.375,29.812501907348633,10.518750190734863
1779997174362668000,9.28966796875,18.30000114440918,29.812501907348633,10.481250762939453
1779997174382489600,9.309489501953125,18.46875,29.812501907348633,10.481250762939453
1779997174402651600,9.329651611328124,18.48750114440918,29.812501907348633,10.5
1779997174422494000,9.349493896484375,18.356250762939453,29.812501907348633,10.481250762939453
1779997174442392000,9.36939208984375,18.337501525878906,29.775001525878906,10.481250762939453
1779997174462344400,9.389344482421874,18.1875,29.793750762939453,10.5
1779997174482390000,9.40939013671875,18.075000762939453,29.793750762939453,10.5
1779997174502623500,9.42962353515625,18.20625114440918,29.812501907348633,10.518750190734863
1779997174522759700,9.449759765625,18.225000381469727,29.812501907348633,10.518750190734863
1779997174542562300,9.469562255859374,18.075000762939453,29.812501907348633,10.518750190734863
1779997174562435000,9.48943505859375,17.943750381469727,29.83125114440918,10.518750190734863
1779997174582635300,9.50963525390625,17.962501525878906,29.793750762939453,10.537500381469727
1779997174602705200,9.529705078125,17.83125114440918,29.793750762939453,10.518750190734863
1779997174622762200,9.54976220703125,17.681251525878906,29.775001525878906,10.5
1779997174642803200,9.56980322265625,17.775001525878906,29.756250381469727,10.481250762939453
1779997174662806800,9.589806884765625,18.11250114440918,29.756250381469727,10.481250762939453
1779997174682804200,9.60980419921875,18,29.756250381469727,10.46250057220459
1779997174702722800,9.629722900390625,18,29.756250381469727,10.443750381469727
1779997174722873000,9.649873046875,18.1875,29.73750114440918,10.443750381469727
1779997174742552000,9.669552001953125,18.375,29.756250381469727,10.425000190734863
1779997174762379500,9.689379638671875,18.262500762939453,29.756250381469727,10.40625
1779997174782502700,9.709502685546875,18.243751525878906,29.756250381469727,10.387500762939453
1779997174802385700,9.7293857421875,18.20625114440918,29.73750114440918,10.36875057220459
1779997174822599700,9.749599609375,18.243751525878906,29.73750114440918,10.36875057220459
1779997174842463500,9.76946337890625,18.30000114440918,29.73750114440918,10.350000381469727
1779997174862422000,9.789422119140625,18.39375114440918,29.73750114440918,10.350000381469727
1779997174882367700,9.80936767578125,18.28125,29.756250381469727,10.350000381469727
1779997174902346000,9.829345947265624,18.30000114440918,29.756250381469727,10.350000381469727
1779997174922523400,9.8495234375,18.46875,29.775001525878906,10.36875057220459
1779997174942433800,9.869433837890625,18.525001525878906,29.793750762939453,10.350000381469727
1779997174962838800,9.8898388671875,18.48750114440918,29.812501907348633,10.36875057220459
1779997174982840600,9.909840576171876,18.637500762939453,29.83125114440918,10.36875057220459
1779997175002561300,9.929561279296875,18.65625,29.83125114440918,10.36875057220459
1779997175022866700,9.94986669921875,18.431251525878906,29.83125114440918,10.36875057220459
1779997175042977000,9.96997705078125,18.1875,29.868751525878906,10.40625
1779997175062877700,9.989877685546874,18.243751525878906,29.868751525878906,10.40625
1779997175082755300,10.00975537109375,18.318750381469727,29.868751525878906,10.40625
1779997175102922800,10.0299228515625,18.48750114440918,29.868751525878906,10.387500762939453
1779997175122841900,10.049841796875,18.46875,29.887500762939453,10.40625
1779997175142992600,10.06999267578125,18.48750114440918,29.906251907348633,10.40625
1779997175163087600,10.090087646484376,18.506250381469727,29.92500114440918,10.425000190734863
1779997175182669600,10.109669677734376,18.5625,29.92500114440918,10.425000190734863
1779997175202417400,10.12941748046875,18.543750762939453,29.962501525878906,10.425000190734863
1779997175222561300,10.149561279296876,18.525001525878906,30.000001907348633,10.425000190734863
1779997175242478600,10.169478515625,18.65625,30.000001907348633,10.443750381469727
1779997175262378800,10.189378662109375,18.731250762939453,30.01875114440918,10.481250762939453
1779997175282328800,10.209328857421875,18.618751525878906,30.037500381469727,10.5
1779997175302317800,10.22931787109375,18.600000381469727,30.037500381469727,10.518750190734863
1779997175322793500,10.24979345703125,18.712501525878906,30.037500381469727,10.55625057220459
1779997175342582000,10.26958203125,18.806251525878906,30.037500381469727,10.537500381469727
1779997175362701000,10.289701171875,18.881250381469727,30.056251525878906,10.537500381469727
1779997175382703400,10.309703369140625,18.76875114440918,30.075000762939453,10.537500381469727
1779997175402480600,10.329480712890625,18.75,30.093751907348633,10.575000762939453
1779997175422770400,10.3497705078125,18.600000381469727,30.093751907348633,10.575000762939453
1779997175442531800,10.36953173828125,18.637500762939453,30.093751907348633,10.59375
1779997175462394400,10.389394287109376,18.600000381469727,30.075000762939453,10.612500190734863
1779997175482599200,10.40959912109375,18.506250381469727,30.075000762939453,10.631250381469727
1779997175502470100,10.42947021484375,18.431251525878906,30.075000762939453,10.631250381469727
1779997175522385700,10.4493857421875,18.375,30.056251525878906,10.631250381469727
1779997175542349000,10.46934912109375,18.262500762939453,30.037500381469727,10.612500190734863
1779997175562385000,10.489385009765625,18.150001525878906,30.01875114440918,10.59375
1779997175582836200,10.509836181640624,18.168750762939453,30.01875114440918,10.631250381469727
1779997175603140900,10.530140869140626,18.056251525878906,30.01875114440918,10.631250381469727
1779997175622901800,10.54990185546875,17.83125114440918,30.01875114440918,10.631250381469727
1779997175642763000,10.569762939453126,17.8125,30.01875114440918,10.65000057220459
1779997175662944000,10.589944091796875,17.83125114440918,30.000001907348633,10.668750762939453
1779997175682779400,10.609779296875,17.92500114440918,30.000001907348633,10.6875
1779997175702750700,10.629750732421876,17.775001525878906,29.981250762939453,10.6875
1779997175722947300,10.649947265625,17.793750762939453,29.981250762939453,10.706250190734863
1779997175742814500,10.669814453125,17.700000762939453,29.981250762939453,10.706250190734863
1779997175762508300,10.68950830078125,17.71875,29.981250762939453,10.706250190734863
1779997175782343000,10.709343017578124,17.756250381469727,29.962501525878906,10.6875
1779997175802421800,10.729421875,17.83125114440918,29.943750381469727,10.706250190734863
1779997175822359300,10.749359375,17.775001525878906,29.92500114440918,10.725000381469727
1779997175842337000,10.7693369140625,17.71875,29.943750381469727,10.74375057220459
1779997175862603500,10.789603515625,17.64375114440918,29.92500114440918,10.74375057220459
1779997175882491600,10.80949169921875,17.662500381469727,29.92500114440918,10.74375057220459
1779997175902608400,10.8296083984375,17.756250381469727,29.906251907348633,10.74375057220459
1779997175922735900,10.84973583984375,17.90625,29.92500114440918,10.74375057220459
1779997175942532400,10.869532470703126,17.92500114440918,29.906251907348633,10.74375057220459
1779997175962612000,10.889612060546876,17.850000381469727,29.906251907348633,10.74375057220459
1779997175982453500,10.90945361328125,17.756250381469727,29.92500114440918,10.74375057220459
1779997176002361900,10.92936181640625,17.662500381469727,29.92500114440918,10.74375057220459
1779997176022528000,10.949528076171875,17.775001525878906,29.92500114440918,10.74375057220459
1779997176042425000,10.969425048828125,17.887500762939453,29.92500114440918,10.78125
1779997176062564600,10.989564697265624,17.8125,29.92500114440918,10.762500762939453
1779997176082449400,11.009449462890625,17.887500762939453,29.92500114440918,10.74375057220459
1779997176102377000,11.029376953125,17.90625,29.92500114440918,10.74375057220459
1779997176122385000,11.049385009765626,17.943750381469727,29.906251907348633,10.74375057220459
1779997176142364200,11.0693642578125,17.90625,29.887500762939453,10.762500762939453
1779997176162350800,11.089350830078125,17.8125,29.887500762939453,10.762500762939453
1779997176182354400,11.1093544921875,17.73750114440918,29.887500762939453,10.74375057220459
1779997176202622500,11.12962255859375,17.850000381469727,29.887500762939453,10.74375057220459
1779997176222969900,11.149969970703125,17.868751525878906,29.850000381469727,10.725000381469727
1779997176243237000,11.170237060546874,17.868751525878906,29.868751525878906,10.725000381469727
1779997176262782200,11.1897822265625,17.981250762939453,29.850000381469727,10.725000381469727
1779997176282690800,11.20969091796875,18.075000762939453,29.83125114440918,10.725000381469727
1779997176302907000,11.229906982421875,18.09375,29.83125114440918,10.725000381469727
1779997176322930200,11.24993017578125,18.131250381469727,29.812501907348633,10.725000381469727
1779997176342580200,11.269580322265625,18.168750762939453,29.775001525878906,10.6875
1779997176362596400,11.289596435546875,18.243751525878906,29.775001525878906,10.706250190734863
1779997176382501400,11.30950146484375,18.225000381469727,29.775001525878906,10.725000381469727
1779997176402359800,11.32935986328125,18.30000114440918,29.775001525878906,10.706250190734863
1779997176422634000,11.349634033203126,18.30000114440918,29.793750762939453,10.725000381469727
1779997176442482000,11.36948193359375,18.431251525878906,29.793750762939453,10.725000381469727
1779997176462391300,11.389391357421875,18.543750762939453,29.793750762939453,10.725000381469727
1779997176482615600,11.409615478515626,18.58125114440918,29.793750762939453,10.725000381469727
1779997176502708200,11.429708251953125,18.46875,29.775001525878906,10.706250190734863
1779997176522776000,11.449776123046876,18.48750114440918,29.793750762939453,10.706250190734863
1779997176542548000,11.4695478515625,18.412500381469727,29.793750762939453,10.6875
1779997176562802000,11.489802001953125,18.243751525878906,29.793750762939453,10.668750762939453
1779997176582533400,11.509533447265625,18.1875,29.793750762939453,10.668750762939453
1779997176602394000,11.52939404296875,18.337501525878906,29.775001525878906,10.65000057220459
1779997176622596000,11.54959619140625,18.262500762939453,29.793750762939453,10.631250381469727
1779997176642720800,11.569720703125,18.225000381469727,29.812501907348633,10.612500190734863
1779997176662790700,11.589790771484376,18.28125,29.83125114440918,10.612500190734863
1779997176683022800,11.61002294921875,18.356250762939453,29.812501907348633,10.631250381469727
1779997176702697200,11.629697265625,18.318750381469727,29.83125114440918,10.612500190734863
1779997176722660600,11.64966064453125,18.262500762939453,29.83125114440918,10.612500190734863
1779997176742906600,11.66990673828125,18.20625114440918,29.83125114440918,10.612500190734863
1779997176762724600,11.689724609375,18.30000114440918,29.83125114440918,10.59375
1779997176782463200,11.709463134765626,18.318750381469727,29.812501907348633,10.59375
1779997176802333000,11.7293330078125,18.30000114440918,29.83125114440918,10.612500190734863
1779997176822506200,11.74950634765625,18.337501525878906,29.83125114440918,10.631250381469727
1779997176842394600,11.76939453125,18.46875,29.83125114440918,10.65000057220459
1779997176862353400,11.789353515625,18.58125114440918,29.83125114440918,10.668750762939453
1779997176882537000,11.809536865234374,18.67500114440918,29.83125114440918,10.668750762939453
1779997176902438000,11.82943798828125,18.65625,29.83125114440918,10.668750762939453
1779997176922382600,11.849382568359376,18.618751525878906,29.83125114440918,10.706250190734863
1779997176942350300,11.869350341796874,18.5625,29.83125114440918,10.725000381469727
1779997176962341000,11.889341064453125,18.39375114440918,29.83125114440918,10.74375057220459
1779997176982347000,11.909346923828124,18.356250762939453,29.83125114440918,10.74375057220459
1779997177002347300,11.92934716796875,18.30000114440918,29.83125114440918,10.74375057220459
1779997177022615300,11.949615234375,18.30000114440918,29.812501907348633,10.74375057220459
1779997177042709500,11.96970947265625,18.20625114440918,29.83125114440918,10.74375057220459
1779997177062786300,11.989786376953125,18.075000762939453,29.83125114440918,10.74375057220459
1779997177082670600,12.009670654296874,18.037500381469727,29.812501907348633,10.74375057220459
1779997177102474200,12.02947412109375,18.150001525878906,29.83125114440918,10.74375057220459
1779997177122624800,12.049624755859375,18.131250381469727,29.83125114440918,10.74375057220459
1779997177142473700,12.0694736328125,17.90625,29.812501907348633,10.725000381469727
1779997177162381300,12.08938134765625,17.775001525878906,29.83125114440918,10.706250190734863
1779997177182604500,12.1096044921875,17.64375114440918,29.83125114440918,10.706250190734863
1779997177202787300,12.129787353515624,17.512500762939453,29.83125114440918,10.706250190734863
1779997177222816000,12.14981591796875,17.587501525878906,29.850000381469727,10.706250190734863
1779997177243025000,12.17002490234375,17.756250381469727,29.850000381469727,10.706250190734863
1779997177262987800,12.18998779296875,17.92500114440918,29.83125114440918,10.706250190734863
1779997177282601500,12.2096015625,17.887500762939453,29.793750762939453,10.668750762939453
1779997177302386700,12.22938671875,17.92500114440918,29.793750762939453,10.668750762939453
1779997177322550300,12.24955029296875,17.92500114440918,29.793750762939453,10.65000057220459
1779997177342413800,12.269413818359375,17.92500114440918,29.793750762939453,10.65000057220459
1779997177362356700,12.289356689453125,17.962501525878906,29.793750762939453,10.631250381469727
1779997177382330600,12.30933056640625,18.056251525878906,29.793750762939453,10.612500190734863
1779997177402330000,12.329330078125,18.056251525878906,29.775001525878906,10.59375
1779997177422606000,12.349606201171875,18.131250381469727,29.775001525878906,10.59375
1779997177442983400,12.3699833984375,18.28125,29.775001525878906,10.59375
1779997177462813000,12.38981298828125,18.525001525878906,29.756250381469727,10.59375
1779997177482548700,12.409548828125,18.618751525878906,29.756250381469727,10.575000762939453
1779997177502390300,12.429390380859376,18.618751525878906,29.756250381469727,10.575000762939453
1779997177522523600,12.449523681640626,18.543750762939453,29.73750114440918,10.55625057220459
1779997177542408000,12.469407958984375,18.412500381469727,29.718751907348633,10.537500381469727
1779997177562352400,12.489352294921876,18.262500762939453,29.73750114440918,10.518750190734863
1779997177582380500,12.509380615234376,18.243751525878906,29.756250381469727,10.518750190734863
1779997177602355500,12.52935546875,18.20625114440918,29.756250381469727,10.537500381469727
1779997177622543600,12.549543701171874,18.356250762939453,29.756250381469727,10.537500381469727
1779997177642761000,12.569760986328125,18.5625,29.73750114440918,10.537500381469727
1779997177662813200,12.589813232421875,18.637500762939453,29.756250381469727,10.55625057220459
1779997177683032600,12.610032470703125,18.618751525878906,29.73750114440918,10.575000762939453
1779997177703135500,12.630135498046876,18.543750762939453,29.756250381469727,10.575000762939453
1779997177722954800,12.649954833984374,18.431251525878906,29.775001525878906,10.575000762939453
1779997177742798300,12.66979833984375,18.46875,29.793750762939453,10.59375
1779997177762953500,12.689953369140625,18.46875,29.775001525878906,10.631250381469727
1779997177782883600,12.709883544921874,18.412500381469727,29.793750762939453,10.65000057220459
1779997177802543000,12.729543212890626,18.5625,29.793750762939453,10.65000057220459
1779997177822909200,12.7499091796875,18.618751525878906,29.793750762939453,10.668750762939453
1779997177842678000,12.769677978515626,18.618751525878906,29.793750762939453,10.668750762939453
1779997177862644000,12.78964404296875,18.65625,29.793750762939453,10.668750762939453
1779997177882633000,12.809633056640624,18.600000381469727,29.775001525878906,10.65000057220459
1779997177902634200,12.82963427734375,18.637500762939453,29.756250381469727,10.65000057220459
1779997177922703400,12.849703369140625,18.58125114440918,29.775001525878906,10.65000057220459
1779997177942687500,12.8696875,18.30000114440918,29.793750762939453,10.65000057220459
1779997177962671600,12.889671630859375,18.168750762939453,29.793750762939453,10.65000057220459
1779997177982460200,12.909460205078124,18.243751525878906,29.793750762939453,10.65000057220459
1779997178002345500,12.929345458984375,18.431251525878906,29.775001525878906,10.631250381469727
1779997178022465300,12.94946533203125,18.450000762939453,29.775001525878906,10.631250381469727
1779997178042395100,12.96939501953125,18.375,29.793750762939453,10.612500190734863
1779997178062352600,12.9893525390625,18.46875,29.793750762939453,10.59375
1779997178082551300,13.00955126953125,18.600000381469727,29.793750762939453,10.575000762939453
1779997178102448000,13.0294482421875,18.48750114440918,29.793750762939453,10.55625057220459
1779997178122387000,13.049386962890624,18.375,29.793750762939453,10.55625057220459
1779997178142838500,13.069838623046875,18.412500381469727,29.812501907348633,10.537500381469727
1779997178162602200,13.089602294921875,18.39375114440918,29.812501907348633,10.537500381469727
1779997178182447900,13.10944775390625,18.39375114440918,29.812501907348633,10.537500381469727
1779997178202368800,13.12936865234375,18.30000114440918,29.812501907348633,10.537500381469727
1779997178222483700,13.149483642578126,18,29.812501907348633,10.537500381469727
1779997178242603800,13.169603759765625,18.09375,29.83125114440918,10.537500381469727
1779997178262773000,13.18977294921875,18.20625114440918,29.83125114440918,10.518750190734863
1779997178282769000,13.209768798828126,18.150001525878906,29.83125114440918,10.5
1779997178302724900,13.229724853515625,18.037500381469727,29.850000381469727,10.518750190734863
1779997178322488300,13.24948828125,18.11250114440918,29.850000381469727,10.5
1779997178342562800,13.269562744140625,18.11250114440918,29.83125114440918,10.518750190734863
1779997178362408000,13.289407958984375,17.887500762939453,29.83125114440918,10.518750190734863
1779997178382539000,13.3095390625,17.793750762939453,29.83125114440918,10.518750190734863
1779997178402591000,13.329591064453124,17.887500762939453,29.83125114440918,10.518750190734863
1779997178422424800,13.3494248046875,18.037500381469727,29.850000381469727,10.518750190734863
1779997178442358300,13.369358154296876,17.943750381469727,29.868751525878906,10.518750190734863
1779997178462597400,13.389597412109374,18,29.887500762939453,10.537500381469727
1779997178482483200,13.409483154296876,18.056251525878906,29.906251907348633,10.537500381469727
1779997178502400300,13.429400146484374,18.01875114440918,29.906251907348633,10.518750190734863
1779997178522622200,13.449622314453125,18.262500762939453,29.906251907348633,10.5
1779997178542493200,13.4694931640625,18.412500381469727,29.906251907348633,10.5
1779997178562411300,13.489411376953125,18.318750381469727,29.906251907348633,10.5
1779997178582360600,13.509360595703125,18.30000114440918,29.906251907348633,10.518750190734863
1779997178602343200,13.52934326171875,18.375,29.92500114440918,10.518750190734863
1779997178622342400,13.54934228515625,18.262500762939453,29.906251907348633,10.537500381469727
1779997178642807000,13.56980712890625,18.262500762939453,29.906251907348633,10.518750190734863
1779997178662800000,13.5897998046875,18.30000114440918,29.92500114440918,10.5
1779997178682556200,13.60955615234375,18.356250762939453,29.92500114440918,10.481250762939453
1779997178702414300,13.629414306640625,18.30000114440918,29.943750381469727,10.5
1779997178722629600,13.649629638671875,18.262500762939453,29.92500114440918,10.5
1779997178742462700,13.669462646484375,18.243751525878906,29.92500114440918,10.518750190734863
1779997178762374400,13.68937451171875,18.28125,29.92500114440918,10.5
1779997178782826500,13.709826416015625,18.318750381469727,29.906251907348633,10.5
1779997178802575000,13.7295751953125,18.412500381469727,29.906251907348633,10.5
1779997178822428200,13.74942822265625,18.431251525878906,29.92500114440918,10.5
1779997178842733600,13.769733642578124,18.337501525878906,29.906251907348633,10.5
1779997178862526000,13.78952587890625,18.412500381469727,29.92500114440918,10.518750190734863
1779997178882611200,13.809611083984375,18.431251525878906,29.92500114440918,10.5
1779997178902910700,13.82991064453125,18.337501525878906,29.906251907348633,10.5
1779997178922616600,13.849616455078126,18.375,29.887500762939453,10.5
1779997178942429200,13.86942919921875,18.39375114440918,29.868751525878906,10.518750190734863
1779997178962338600,13.889338623046875,18.262500762939453,29.850000381469727,10.5
1779997178982481000,13.90948095703125,18.1875,29.850000381469727,10.537500381469727
1779997179002393600,13.9293935546875,18.131250381469727,29.812501907348633,10.518750190734863
1779997179022817300,13.9498173828125,18.075000762939453,29.812501907348633,10.518750190734863
1779997179042588700,13.969588623046874,18.168750762939453,29.83125114440918,10.518750190734863
1779997179062434000,13.98943408203125,18.168750762939453,29.812501907348633,10.518750190734863
1779997179082820000,14.009820068359375,18.1875,29.793750762939453,10.518750190734863
1779997179102839300,14.02983935546875,18.150001525878906,29.793750762939453,10.518750190734863
1779997179122850600,14.0498505859375,18.243751525878906,29.793750762939453,10.537500381469727
1779997179142549500,14.069549560546875,18.318750381469727,29.793750762939453,10.55625057220459
1779997179162607400,14.089607421875,18.150001525878906,29.775001525878906,10.537500381469727
1779997179182435800,14.109435791015626,18.037500381469727,29.775001525878906,10.537500381469727
1779997179202352400,14.129352294921874,17.943750381469727,29.775001525878906,10.518750190734863
1779997179222580000,14.149580078125,17.887500762939453,29.793750762939453,10.5
1779997179242743600,14.16974365234375,17.8125,29.812501907348633,10.481250762939453
1779997179263015700,14.190015625,18.037500381469727,29.83125114440918,10.481250762939453
1779997179282870000,14.2098701171875,18.11250114440918,29.850000381469727,10.5
1779997179302552800,14.229552734375,18.168750762939453,29.850000381469727,10.518750190734863
1779997179322847500,14.249847412109375,18.20625114440918,29.850000381469727,10.55625057220459
1779997179343016400,14.270016357421875,18.20625114440918,29.83125114440918,10.55625057220459
1779997179362838500,14.289838623046874,18.30000114440918,29.850000381469727,10.575000762939453
1779997179382517500,14.309517578125,18.262500762939453,29.83125114440918,10.575000762939453
1779997179402351600,14.3293515625,18.375,29.83125114440918,10.575000762939453
1779997179422292700,14.349292724609375,18.20625114440918,29.83125114440918,10.55625057220459
1779997179442281700,14.36928173828125,18.225000381469727,29.83125114440918,10.537500381469727
1779997179462501000,14.389501220703124,18.450000762939453,29.83125114440918,10.55625057220459
1779997179482629000,14.409629150390625,18.48750114440918,29.83125114440918,10.575000762939453
1779997179502476000,14.42947607421875,18.543750762939453,29.83125114440918,10.59375
1779997179522386200,14.44938623046875,18.5625,29.83125114440918,10.612500190734863
1779997179542814000,14.46981396484375,18.5625,29.83125114440918,10.612500190734863
1779997179562588200,14.489588134765626,18.375,29.83125114440918,10.631250381469727
1779997179582435000,14.50943505859375,18.337501525878906,29.812501907348633,10.631250381469727
1779997179602622500,14.52962255859375,18.375,29.83125114440918,10.612500190734863
1779997179622513700,14.549513671875,18.28125,29.850000381469727,10.575000762939453
1779997179642402800,14.56940283203125,18.28125,29.850000381469727,10.55625057220459
1779997179662883800,14.5898837890625,18.225000381469727,29.850000381469727,10.537500381469727
1779997179682701600,14.60970166015625,18.131250381469727,29.868751525878906,10.537500381469727
1779997179702494200,14.629494140625,18.075000762939453,29.868751525878906,10.55625057220459
1779997179722636500,14.649636474609375,18.075000762939453,29.868751525878906,10.55625057220459
1779997179742684400,14.669684326171875,17.981250762939453,29.868751525878906,10.59375
1779997179762751700,14.689751708984375,17.868751525878906,29.868751525878906,10.575000762939453
1779997179782721800,14.7097216796875,17.981250762939453,29.868751525878906,10.575000762939453
1779997179802609700,14.729609619140625,18.037500381469727,29.868751525878906,10.575000762939453
1779997179822924000,14.749924072265625,18.075000762939453,29.887500762939453,10.575000762939453
1779997179842862300,14.7698623046875,18.168750762939453,29.887500762939453,10.575000762939453
1779997179863065600,14.790065673828124,18.318750381469727,29.887500762939453,10.575000762939453
1779997179882921500,14.80992138671875,18.20625114440918,29.887500762939453,10.55625057220459
1779997179902763300,14.82976318359375,18.1875,29.887500762939453,10.55625057220459
1779997179922942000,14.84994189453125,18.1875,29.887500762939453,10.537500381469727
1779997179942841900,14.869841796875,18.056251525878906,29.868751525878906,10.537500381469727
1779997179962993000,14.889992919921875,17.868751525878906,29.868751525878906,10.55625057220459
1779997179983078000,14.910077880859374,17.8125,29.850000381469727,10.575000762939453
1779997180002949000,14.92994921875,17.71875,29.868751525878906,10.575000762939453
1779997180023035000,14.950034912109375,17.73750114440918,29.850000381469727,10.59375
1779997180042616600,14.969616455078125,17.73750114440918,29.868751525878906,10.59375
1779997180062487300,14.9894873046875,17.71875,29.887500762939453,10.59375
1779997180082346000,15.009345947265626,17.756250381469727,29.887500762939453,10.612500190734863
1779997180102289200,15.0292890625,17.775001525878906,29.887500762939453,10.59375
1779997180122490400,15.049490478515626,17.606250762939453,29.887500762939453,10.575000762939453
1779997180142866700,15.06986669921875,17.475000381469727,29.868751525878906,10.575000762939453
1779997180162870000,15.0898701171875,17.36250114440918,29.868751525878906,10.55625057220459
1779997180182800400,15.10980029296875,17.512500762939453,29.850000381469727,10.575000762939453
1779997180202530000,15.129530029296875,17.4375,29.850000381469727,10.575000762939453
1779997180222375000,15.149375,17.4375,29.850000381469727,10.575000762939453
1779997180242675200,15.16967529296875,17.493751525878906,29.868751525878906,10.575000762939453
1779997180262757000,15.189757080078126,17.64375114440918,29.868751525878906,10.55625057220459
1779997180282731800,15.209731689453125,17.756250381469727,29.868751525878906,10.55625057220459
1779997180302761200,15.22976123046875,17.868751525878906,29.850000381469727,10.55625057220459
1779997180322521300,15.249521240234374,17.943750381469727,29.850000381469727,10.537500381469727
1779997180342387000,15.269386962890625,18.131250381469727,29.850000381469727,10.5
1779997180362595600,15.289595703125,18.225000381469727,29.850000381469727,10.481250762939453
1779997180382818800,15.30981884765625,18.243751525878906,29.850000381469727,10.481250762939453
1779997180402777600,15.329777587890625,18.262500762939453,29.850000381469727,10.5
1779997180422799600,15.349799560546876,18.39375114440918,29.83125114440918,10.518750190734863
1779997180442538000,15.3695380859375,18.543750762939453,29.868751525878906,10.518750190734863
1779997180462390500,15.389390625,18.65625,29.868751525878906,10.518750190734863
1779997180482592000,15.409592041015625,18.65625,29.868751525878906,10.518750190734863
1779997180502657300,15.4296572265625,18.693750381469727,29.868751525878906,10.518750190734863
1779997180522741800,15.44974169921875,18.58125114440918,29.868751525878906,10.537500381469727
1779997180542791700,15.469791748046875,18.5625,29.850000381469727,10.55625057220459
1779997180562769400,15.489769287109375,18.65625,29.850000381469727,10.55625057220459
1779997180582522600,15.509522705078124,18.712501525878906,29.868751525878906,10.55625057220459
1779997180602379300,15.529379150390625,18.712501525878906,29.850000381469727,10.537500381469727
1779997180622505000,15.5495048828125,18.65625,29.887500762939453,10.518750190734863
1779997180642372000,15.5693720703125,18.506250381469727,29.887500762939453,10.55625057220459
1779997180662603000,15.58960302734375,18.525001525878906,29.868751525878906,10.55625057220459
1779997180682522600,15.609522705078126,18.39375114440918,29.868751525878906,10.537500381469727
1779997180702690800,15.62969091796875,18.356250762939453,29.850000381469727,10.537500381469727
1779997180722717700,15.6497177734375,18.337501525878906,29.850000381469727,10.518750190734863
1779997180742974500,15.669974365234374,18.356250762939453,29.83125114440918,10.518750190734863
1779997180762661600,15.68966162109375,18.318750381469727,29.83125114440918,10.55625057220459
1779997180782908000,15.709907958984376,18.337501525878906,29.83125114440918,10.537500381469727
1779997180803049000,15.730049072265626,18.431251525878906,29.83125114440918,10.518750190734863
1779997180822788900,15.749788818359375,18.65625,29.850000381469727,10.518750190734863
1779997180842480000,15.769480224609374,18.693750381469727,29.868751525878906,10.5
1779997180862529800,15.78952978515625,18.525001525878906,29.868751525878906,10.518750190734863
1779997180882570200,15.8095703125,18.356250762939453,29.868751525878906,10.518750190734863
1779997180902604800,15.829604736328125,18.318750381469727,29.850000381469727,10.518750190734863
1779997180922700000,15.849699951171875,18.20625114440918,29.83125114440918,10.5
1779997180942493000,15.869492919921875,18.20625114440918,29.812501907348633,10.5
1779997180962642200,15.88964208984375,18.11250114440918,29.83125114440918,10.5
1779997180982744000,15.909744140625,18.168750762939453,29.83125114440918,10.518750190734863
1779997181002771000,15.92977099609375,18.09375,29.83125114440918,10.537500381469727
1779997181022527700,15.94952783203125,18.168750762939453,29.83125114440918,10.518750190734863
1779997181042396400,15.969396484375,18.056251525878906,29.83125114440918,10.5
1779997181062593000,15.989593017578125,18.01875114440918,29.812501907348633,10.5
1779997181082731500,16.0097314453125,17.887500762939453,29.812501907348633,10.5
1779997181102535400,16.029535400390625,17.793750762939453,29.812501907348633,10.5
1779997181122894800,16.049894775390626,17.73750114440918,29.812501907348633,10.5
1779997181142662400,16.069662353515625,17.662500381469727,29.793750762939453,10.481250762939453
1779997181162924800,16.0899248046875,17.700000762939453,29.812501907348633,10.46250057220459
1779997181182867500,16.109867431640627,17.83125114440918,29.812501907348633,10.46250057220459
1779997181202766600,16.1297666015625,17.887500762939453,29.83125114440918,10.46250057220459
1779997181222489000,16.149489013671875,17.90625,29.83125114440918,10.443750381469727
1779997181242936800,16.169936767578125,17.850000381469727,29.83125114440918,10.443750381469727
1779997181262649900,16.18964990234375,17.850000381469727,29.812501907348633,10.443750381469727
1779997181282437400,16.209437255859374,17.868751525878906,29.793750762939453,10.425000190734863
1779997181302334000,16.229333984375,17.92500114440918,29.812501907348633,10.425000190734863
1779997181322646300,16.249646240234377,17.756250381469727,29.812501907348633,10.443750381469727
1779997181342474800,16.269474853515625,17.850000381469727,29.812501907348633,10.443750381469727
1779997181362388200,16.28938818359375,17.92500114440918,29.812501907348633,10.443750381469727
1779997181382873000,16.309873046875,17.92500114440918,29.83125114440918,10.443750381469727
1779997181402603300,16.329603271484373,17.962501525878906,29.83125114440918,10.46250057220459
1779997181422444300,16.3494443359375,18,29.850000381469727,10.481250762939453
1779997181442821000,16.369821044921874,17.943750381469727,29.850000381469727,10.46250057220459
1779997181462606300,16.3896064453125,17.90625,29.850000381469727,10.481250762939453
1779997181482642200,16.40964208984375,17.90625,29.850000381469727,10.481250762939453
1779997181502713300,16.42971337890625,17.775001525878906,29.83125114440918,10.481250762939453
1779997181522666500,16.44966650390625,17.625,29.850000381469727,10.5
1779997181542729700,16.469729736328127,17.625,29.868751525878906,10.518750190734863
1779997181562976000,16.48997607421875,17.71875,29.850000381469727,10.5
1779997181582831000,16.5098310546875,17.73750114440918,29.868751525878906,10.5
1779997181602526200,16.529526123046875,17.700000762939453,29.868751525878906,10.5
1779997181622411500,16.54941162109375,17.850000381469727,29.887500762939453,10.5
1779997181642331400,16.569331298828125,17.850000381469727,29.887500762939453,10.5
1779997181662303000,16.589302978515626,17.775001525878906,29.887500762939453,10.481250762939453
1779997181682773800,16.609773681640625,17.83125114440918,29.850000381469727,10.5
1779997181702930000,16.629929931640625,17.90625,29.868751525878906,10.5
1779997181722624300,16.649624267578126,17.887500762939453,29.850000381469727,10.46250057220459
1779997181742436600,16.6694365234375,18.11250114440918,29.812501907348633,10.481250762939453
1779997181762610200,16.689610107421874,18.150001525878906,29.83125114440918,10.481250762939453
1779997181782720500,16.709720458984375,18.11250114440918,29.83125114440918,10.5
1779997181802985200,16.729985107421875,18.243751525878906,29.83125114440918,10.5
1779997181823117000,16.750116943359377,18.506250381469727,29.83125114440918,10.5
1779997181843006700,16.7700068359375,18.58125114440918,29.83125114440918,10.481250762939453
1779997181862612000,16.789612060546876,18.506250381469727,29.83125114440918,10.5
1779997181882595800,16.809595947265624,18.375,29.83125114440918,10.518750190734863
1779997181902401300,16.8294013671875,18.318750381469727,29.83125114440918,10.518750190734863
1779997181922582300,16.849582275390624,18.262500762939453,29.812501907348633,10.518750190734863
1779997181942737000,16.86973681640625,18.150001525878906,29.793750762939453,10.5
1779997181962733300,16.8897333984375,18.11250114440918,29.812501907348633,10.537500381469727
1779997181982977000,16.90997705078125,18.01875114440918,29.812501907348633,10.5
1779997182003094000,16.930093994140623,17.850000381469727,29.812501907348633,10.481250762939453
1779997182022872800,16.949872802734376,17.73750114440918,29.83125114440918,10.5
1779997182043011600,16.970011474609375,17.53125,29.850000381469727,10.518750190734863
1779997182062600200,16.98960009765625,17.493751525878906,29.83125114440918,10.518750190734863
1779997182082718000,17.009718017578123,17.36250114440918,29.83125114440918,10.518750190734863
1779997182102465300,17.02946533203125,17.36250114440918,29.850000381469727,10.518750190734863
1779997182122332000,17.049331787109374,17.36250114440918,29.83125114440918,10.5
1779997182142627800,17.0696279296875,17.287500381469727,29.850000381469727,10.5
1779997182162744000,17.089744140625,17.231250762939453,29.850000381469727,10.5
1779997182182540500,17.10954052734375,17.212501525878906,29.850000381469727,10.5
1779997182202884400,17.12988427734375,17.193750381469727,29.850000381469727,10.5
1779997182222599200,17.14959912109375,17.17500114440918,29.868751525878906,10.5
1779997182242425600,17.169425537109376,17.25,29.850000381469727,10.5
1779997182262354200,17.189354248046875,17.381250381469727,29.850000381469727,10.5
1779997182282440700,17.209440673828126,17.4375,29.868751525878906,10.537500381469727
1779997182302375400,17.22937548828125,17.53125,29.812501907348633,10.55625057220459
1779997182322612200,17.2496123046875,17.625,29.812501907348633,10.55625057220459
1779997182342685700,17.269685791015625,17.73750114440918,29.812501907348633,10.55625057220459
1779997182362502000,17.289501953125,17.775001525878906,29.793750762939453,10.55625057220459
1779997182382861300,17.309861328125,17.90625,29.793750762939453,10.537500381469727
1779997182402788900,17.329788818359376,17.981250762939453,29.775001525878906,10.537500381469727
1779997182423049500,17.350049560546875,17.793750762939453,29.793750762939453,10.55625057220459
1779997182443165200,17.370165283203125,17.868751525878906,29.793750762939453,10.55625057220459
1779997182463063600,17.3900634765625,17.868751525878906,29.793750762939453,10.537500381469727
1779997182482590700,17.4095908203125,17.962501525878906,29.812501907348633,10.518750190734863
1779997182502359600,17.429359619140627,18.056251525878906,29.793750762939453,10.5
1779997182522734300,17.449734375,18.1875,29.775001525878906,10.5
1779997182542507800,17.4695078125,18.30000114440918,29.793750762939453,10.5
1779997182562646800,17.489646728515623,18.20625114440918,29.812501907348633,10.481250762939453
1779997182582469600,17.5094697265625,18.28125,29.812501907348633,10.443750381469727
1779997182602375200,17.529375244140624,18.262500762939453,29.83125114440918,10.46250057220459
1779997182622529300,17.549529296875,18.375,29.850000381469727,10.443750381469727
1779997182642428400,17.569428466796875,18.450000762939453,29.868751525878906,10.443750381469727
1779997182662478000,17.58947802734375,18.48750114440918,29.887500762939453,10.425000190734863
1779997182682598700,17.6095986328125,18.46875,29.887500762939453,10.443750381469727
1779997182702814500,17.629814453125,18.412500381469727,29.906251907348633,10.443750381469727
1779997182722871300,17.649871337890627,18.39375114440918,29.887500762939453,10.425000190734863
1779997182742573600,17.669573486328126,18.20625114440918,29.887500762939453,10.443750381469727
1779997182762404400,17.689404296875,18.262500762939453,29.887500762939453,10.443750381469727
1779997182782523400,17.7095234375,18.225000381469727,29.887500762939453,10.443750381469727
1779997182802663000,17.729662841796873,18.28125,29.887500762939453,10.443750381469727
1779997182822693000,17.749693115234376,18.28125,29.887500762939453,10.443750381469727
1779997182842883000,17.769883056640627,18.337501525878906,29.906251907348633,10.443750381469727
1779997182862829800,17.789829833984374,18.337501525878906,29.868751525878906,10.46250057220459
1779997182882749700,17.809749755859375,18.262500762939453,29.868751525878906,10.46250057220459
1779997182902754300,17.82975439453125,18.30000114440918,29.887500762939453,10.46250057220459
1779997182922498800,17.849498779296876,18.20625114440918,29.887500762939453,10.46250057220459
1779997182942362600,17.869362548828125,18.037500381469727,29.887500762939453,10.443750381469727
1779997182962606600,17.889606689453124,18.131250381469727,29.868751525878906,10.46250057220459
1779997182982501000,17.909501220703124,18.28125,29.850000381469727,10.443750381469727
1779997183002399200,17.929399169921876,18.318750381469727,29.83125114440918,10.443750381469727
1779997183022613000,17.949613037109376,18.46875,29.83125114440918,10.443750381469727
1779997183042652400,17.96965234375,18.58125114440918,29.83125114440918,10.46250057220459
1779997183062945800,17.98994580078125,18.637500762939453,29.83125114440918,10.46250057220459
1779997183082629600,18.009629638671875,18.75,29.83125114440918,10.481250762939453
1779997183102440200,18.029440185546875,18.618751525878906,29.83125114440918,10.481250762939453
1779997183122337500,18.049337646484375,18.637500762939453,29.812501907348633,10.481250762939453
1779997183142312700,18.069312744140625,18.75,29.812501907348633,10.5
1779997183162372400,18.089372314453126,18.75,29.83125114440918,10.5
1779997183182359300,18.109359375,18.825000762939453,29.83125114440918,10.518750190734863
1779997183202358300,18.129358154296874,18.806251525878906,29.812501907348633,10.518750190734863
1779997183222583800,18.149583740234377,18.67500114440918,29.83125114440918,10.537500381469727
1779997183242739200,18.1697392578125,18.693750381469727,29.83125114440918,10.537500381469727
1779997183262560000,18.18956005859375,18.412500381469727,29.83125114440918,10.537500381469727
1779997183282994000,18.209993896484374,18.1875,29.83125114440918,10.537500381469727
1779997183302670000,18.229670166015627,18.09375,29.850000381469727,10.537500381469727
1779997183322926000,18.249926025390625,18.056251525878906,29.850000381469727,10.537500381469727
1779997183343102200,18.270102294921877,17.981250762939453,29.83125114440918,10.5
1779997183362730000,18.28972998046875,17.850000381469727,29.83125114440918,10.481250762939453
1779997183382455000,18.309455078125,17.775001525878906,29.83125114440918,10.481250762939453
1779997183402323500,18.329323486328125,17.8125,29.83125114440918,10.481250762939453
1779997183422471400,18.349471435546874,17.681251525878906,29.850000381469727,10.481250762939453
1779997183442641700,18.3696416015625,17.475000381469727,29.850000381469727,10.481250762939453
1779997183462749200,18.389749267578125,17.625,29.83125114440918,10.481250762939453
1779997183482780200,18.4097802734375,17.700000762939453,29.83125114440918,10.481250762939453
1779997183502531600,18.429531494140626,17.681251525878906,29.83125114440918,10.46250057220459
1779997183522389500,18.449389404296873,17.83125114440918,29.850000381469727,10.46250057220459
1779997183542682400,18.469682373046876,17.981250762939453,29.868751525878906,10.443750381469727
1779997183562493000,18.489492919921876,18.09375,29.868751525878906,10.443750381469727
1779997183582597600,18.50959765625,18.11250114440918,29.868751525878906,10.46250057220459
1779997183602708500,18.52970849609375,18.131250381469727,29.868751525878906,10.443750381469727
1779997183622513400,18.549513427734375,18.20625114440918,29.887500762939453,10.443750381469727
1779997183642401500,18.569401611328125,18.28125,29.906251907348633,10.443750381469727
1779997183662343200,18.58934326171875,18.356250762939453,29.92500114440918,10.46250057220459
1779997183682360600,18.609360595703127,18.48750114440918,29.906251907348633,10.46250057220459
1779997183702815700,18.629815673828126,18.600000381469727,29.906251907348633,10.443750381469727
1779997183722856000,18.64985595703125,18.600000381469727,29.943750381469727,10.443750381469727
1779997183742593000,18.669593017578126,18.58125114440918,29.962501525878906,10.425000190734863
1779997183762433500,18.68943359375,18.46875,29.962501525878906,10.425000190734863
1779997183782609700,18.709609619140625,18.412500381469727,29.981250762939453,10.425000190734863
1779997183802677000,18.729677001953124,18.318750381469727,29.962501525878906,10.443750381469727
1779997183822692000,18.749692138671875,18.243751525878906,29.943750381469727,10.40625
1779997183842477600,18.7694775390625,18.131250381469727,29.92500114440918,10.40625
1779997183862633000,18.789633056640625,18.243751525878906,29.906251907348633,10.425000190734863
1779997183882457900,18.809457763671876,18.243751525878906,29.887500762939453,10.40625
1779997183902365400,18.829365478515626,18.356250762939453,29.906251907348633,10.425000190734863
1779997183922457300,18.849457275390623,18.337501525878906,29.887500762939453,10.425000190734863
1779997183942391300,18.869391357421875,18.431251525878906,29.887500762939453,10.425000190734863
1779997183962359000,18.889359130859376,18.450000762939453,29.850000381469727,10.425000190734863
1779997183982587100,18.909587158203124,18.20625114440918,29.850000381469727,10.443750381469727
1779997184002462700,18.929462646484374,18.11250114440918,29.83125114440918,10.443750381469727
1779997184022387700,18.9493876953125,18.131250381469727,29.793750762939453,10.46250057220459
1779997184042820900,18.96982080078125,18.056251525878906,29.793750762939453,10.481250762939453
1779997184062929000,18.989928955078124,18.11250114440918,29.775001525878906,10.481250762939453
1779997184082891300,19.009891357421875,18.09375,29.775001525878906,10.481250762939453
1779997184102796000,19.029796142578125,18.131250381469727,29.793750762939453,10.46250057220459
1779997184122616300,19.0496162109375,18.075000762939453,29.793750762939453,10.46250057220459
1779997184142612700,19.06961279296875,18.150001525878906,29.793750762939453,10.481250762939453
1779997184162683000,19.089682861328125,18.131250381469727,29.812501907348633,10.481250762939453
1779997184182696200,19.1096962890625,18.056251525878906,29.83125114440918,10.481250762939453
1779997184202479000,19.12947900390625,18,29.812501907348633,10.46250057220459
1779997184222621400,19.149621337890625,18.09375,29.812501907348633,10.46250057220459
1779997184242661000,19.1696611328125,18.1875,29.812501907348633,10.481250762939453
1779997184262474200,19.18947412109375,18.168750762939453,29.850000381469727,10.5
1779997184282831600,19.20983154296875,18.225000381469727,29.850000381469727,10.518750190734863
1779997184303027500,19.23002734375,18.1875,29.850000381469727,10.5
1779997184322654500,19.249654541015627,18.30000114440918,29.868751525878906,10.481250762939453
1779997184342689000,19.26968896484375,18.431251525878906,29.868751525878906,10.481250762939453
1779997184362931000,19.289930908203125,18.375,29.868751525878906,10.5
1779997184382865000,19.309864990234374,18.1875,29.868751525878906,10.518750190734863
1779997184402752000,19.329751953125,18.262500762939453,29.868751525878906,10.537500381469727
1779997184422751500,19.34975146484375,18.225000381469727,29.850000381469727,10.55625057220459
1779997184442493000,19.369492919921875,18.150001525878906,29.83125114440918,10.55625057220459
1779997184462358000,19.38935791015625,18.150001525878906,29.812501907348633,10.537500381469727
1779997184482573000,19.409572998046876,18.318750381469727,29.812501907348633,10.55625057220459
1779997184502589700,19.429589599609375,18.412500381469727,29.793750762939453,10.575000762939453
1779997184522446600,19.449446533203126,18.318750381469727,29.793750762939453,10.575000762939453
1779997184542371300,19.469371337890625,18.09375,29.812501907348633,10.575000762939453
1779997184562536000,19.489535888671874,18.150001525878906,29.793750762939453,10.55625057220459
1779997184582437400,19.509437255859375,18.225000381469727,29.812501907348633,10.55625057220459
1779997184602374700,19.529374755859376,18.225000381469727,29.812501907348633,10.55625057220459
1779997184622556000,19.549555908203125,18.11250114440918,29.812501907348633,10.55625057220459
1779997184642439400,19.569439453125,17.962501525878906,29.83125114440918,10.575000762939453
1779997184662638800,19.589638916015623,17.83125114440918,29.83125114440918,10.55625057220459
1779997184682511400,19.609511474609373,18.01875114440918,29.83125114440918,10.55625057220459
1779997184702647800,19.629647705078124,18.037500381469727,29.850000381469727,10.55625057220459
1779997184722754800,19.6497548828125,18.243751525878906,29.850000381469727,10.55625057220459
1779997184743021800,19.670021728515625,18.375,29.850000381469727,10.55625057220459
1779997184762937300,19.689937255859373,18.262500762939453,29.868751525878906,10.55625057220459
1779997184782597400,19.709597412109375,18.262500762939453,29.887500762939453,10.537500381469727
1779997184802427100,19.72942724609375,18.150001525878906,29.887500762939453,10.537500381469727
1779997184822717200,19.74971728515625,18.056251525878906,29.887500762939453,10.537500381469727
1779997184842712800,19.769712890625,18.1875,29.868751525878906,10.537500381469727
1779997184862754300,19.78975439453125,18.262500762939453,29.868751525878906,10.55625057220459
1779997184882638800,19.809638916015626,18.30000114440918,29.868751525878906,10.537500381469727
1779997184902437000,19.82943701171875,18.431251525878906,29.850000381469727,10.55625057220459
1779997184922813700,19.849813720703125,18.375,29.83125114440918,10.55625057220459
1779997184942762500,19.869762451171876,18.318750381469727,29.83125114440918,10.518750190734863
1779997184962705200,19.889705078125,18.20625114440918,29.793750762939453,10.537500381469727
1779997184982675700,19.90967578125,18.09375,29.775001525878906,10.55625057220459
1779997185002487600,19.929487548828124,18.01875114440918,29.775001525878906,10.55625057220459
1779997185022358500,19.949358642578126,17.92500114440918,29.793750762939453,10.55625057220459
1779997185042311400,19.9693115234375,17.793750762939453,29.756250381469727,10.55625057220459
1779997185062506500,19.989506591796875,17.756250381469727,29.756250381469727,10.55625057220459
1779997185082419200,20.009419189453126,17.756250381469727,29.73750114440918,10.55625057220459
1779997185102641000,20.029640869140625,17.700000762939453,29.73750114440918,10.575000762939453
1779997185122963700,20.049963623046875,17.8125,29.718751907348633,10.575000762939453
1779997185142666000,20.069666015625,17.850000381469727,29.718751907348633,10.537500381469727
1779997185162729500,20.0897294921875,17.700000762939453,29.73750114440918,10.537500381469727
1779997185182509300,20.10950927734375,17.53125,29.73750114440918,10.575000762939453
1779997185202530000,20.129530029296873,17.381250381469727,29.756250381469727,10.575000762939453
1779997185222399000,20.14939892578125,17.381250381469727,29.756250381469727,10.55625057220459
1779997185242572000,20.169572021484374,17.493751525878906,29.775001525878906,10.575000762939453
1779997185262608400,20.1896083984375,17.625,29.793750762939453,10.55625057220459
1779997185282446800,20.20944677734375,17.756250381469727,29.812501907348633,10.537500381469727
1779997185302360800,20.22936083984375,17.775001525878906,29.812501907348633,10.537500381469727
1779997185322555600,20.2495556640625,17.868751525878906,29.83125114440918,10.537500381469727
1779997185342697700,20.26969775390625,18,29.850000381469727,10.537500381469727
1779997185362777600,20.289777587890626,18.11250114440918,29.850000381469727,10.55625057220459
1779997185382878700,20.309878662109377,17.962501525878906,29.850000381469727,10.537500381469727
1779997185402838800,20.3298388671875,17.962501525878906,29.868751525878906,10.518750190734863
1779997185422760000,20.349760009765625,17.90625,29.868751525878906,10.518750190734863
1779997185442492000,20.369491943359375,17.850000381469727,29.850000381469727,10.537500381469727
1779997185462609200,20.389609130859377,17.887500762939453,29.850000381469727,10.537500381469727
1779997185482650400,20.409650390625,18.075000762939453,29.850000381469727,10.537500381469727
1779997185502731000,20.42973095703125,18.1875,29.850000381469727,10.55625057220459
1779997185522808300,20.449808349609373,18.1875,29.850000381469727,10.55625057220459
1779997185543018200,20.470018310546877,18.075000762939453,29.83125114440918,10.537500381469727
1779997185563119600,20.49011962890625,18.168750762939453,29.83125114440918,10.537500381469727
1779997185582688500,20.5096884765625,18.1875,29.812501907348633,10.537500381469727
1779997185602430000,20.529429931640625,18.356250762939453,29.812501907348633,10.537500381469727
1779997185622311200,20.549311279296877,18.28125,29.793750762939453,10.518750190734863
1779997185642272300,20.569272216796875,18.131250381469727,29.793750762939453,10.518750190734863
1779997185662280000,20.589280029296877,18.168750762939453,29.812501907348633,10.537500381469727
1779997185682304800,20.6093046875,18.225000381469727,29.83125114440918,10.537500381469727
1779997185702696400,20.629696533203123,18.39375114440918,29.83125114440918,10.537500381469727
1779997185722796000,20.649796142578126,18.543750762939453,29.83125114440918,10.537500381469727
1779997185743038000,20.670037841796876,18.618751525878906,29.83125114440918,10.518750190734863
1779997185763074000,20.690073974609376,18.543750762939453,29.850000381469727,10.5
1779997185782655000,20.709655029296876,18.337501525878906,29.868751525878906,10.481250762939453
1779997185802413600,20.72941357421875,18.131250381469727,29.850000381469727,10.481250762939453
1779997185822571300,20.7495712890625,18.20625114440918,29.868751525878906,10.46250057220459
1779997185842420000,20.769419921875,18.318750381469727,29.868751525878906,10.481250762939453
1779997185862356500,20.7893564453125,18.243751525878906,29.850000381469727,10.481250762939453
1779997185882794000,20.8097939453125,18.243751525878906,29.868751525878906,10.5
1779997185902567200,20.829567138671877,17.962501525878906,29.868751525878906,10.537500381469727
1779997185922435000,20.84943505859375,17.90625,29.868751525878906,10.55625057220459
1779997185942825000,20.869824951171875,17.90625,29.868751525878906,10.537500381469727
1779997185962669300,20.88966943359375,18,29.83125114440918,10.518750190734863
1779997185982677500,20.909677490234376,18,29.812501907348633,10.518750190734863
1779997186002931200,20.92993115234375,17.868751525878906,29.793750762939453,10.518750190734863
1779997186022806500,20.949806640625,17.681251525878906,29.812501907348633,10.518750190734863
1779997186042517000,20.96951708984375,17.700000762939453,29.812501907348633,10.518750190734863
1779997186062620200,20.9896201171875,17.681251525878906,29.83125114440918,10.537500381469727
1779997186082643700,21.009643798828126,17.53125,29.812501907348633,10.537500381469727
1779997186102717200,21.02971728515625,17.700000762939453,29.83125114440918,10.537500381469727
1779997186122759200,21.04975927734375,17.71875,29.83125114440918,10.537500381469727
1779997186142862600,21.069862548828127,17.71875,29.83125114440918,10.537500381469727
1779997186162830300,21.089830322265627,17.850000381469727,29.868751525878906,10.55625057220459
1779997186182748200,21.109748046875,17.8125,29.850000381469727,10.518750190734863
1779997186202754800,21.1297548828125,18,29.850000381469727,10.5
1779997186222499600,21.14949951171875,18,29.850000381469727,10.481250762939453
1779997186242362600,21.169362548828126,18.075000762939453,29.868751525878906,10.5
1779997186262575600,21.18957568359375,18.01875114440918,29.868751525878906,10.481250762939453
1779997186282445800,21.20944580078125,18.150001525878906,29.850000381469727,10.481250762939453
1779997186302372900,21.229372802734375,18.09375,29.868751525878906,10.5
1779997186322607600,21.249607666015624,18.11250114440918,29.850000381469727,10.518750190734863
1779997186342486500,21.269486572265624,18.131250381469727,29.83125114440918,10.518750190734863
1779997186362412300,21.289412353515626,18.168750762939453,29.850000381469727,10.518750190734863
1779997186382629400,21.30962939453125,18.337501525878906,29.850000381469727,10.518750190734863
1779997186402689800,21.329689697265625,18.412500381469727,29.850000381469727,10.5
1779997186422773800,21.349773681640624,18.412500381469727,29.868751525878906,10.518750190734863
1779997186442543600,21.369543701171875,18.46875,29.850000381469727,10.5
1779997186462609400,21.389609375,18.28125,29.850000381469727,10.518750190734863
1779997186482446000,21.409446044921875,18.28125,29.83125114440918,10.518750190734863
1779997186502354200,21.429354248046874,18.243751525878906,29.850000381469727,10.537500381469727
1779997186522492000,21.449491943359376,18.39375114440918,29.83125114440918,10.55625057220459
1779997186542416600,21.469416748046875,18.506250381469727,29.850000381469727,10.55625057220459
1779997186562375000,21.489375,18.46875,29.868751525878906,10.55625057220459
1779997186582826500,21.509826416015624,18.412500381469727,29.868751525878906,10.575000762939453
1779997186602601000,21.52960107421875,18.543750762939453,29.868751525878906,10.575000762939453
1779997186622443500,21.549443603515623,18.618751525878906,29.868751525878906,10.55625057220459
1779997186642847500,21.569847412109375,18.637500762939453,29.868751525878906,10.575000762939453
1779997186662593500,21.589593505859376,18.693750381469727,29.850000381469727,10.575000762939453
1779997186682432800,21.609432861328123,18.75,29.868751525878906,10.575000762939453
1779997186702619000,21.629618896484374,18.543750762939453,29.868751525878906,10.59375
1779997186722588000,21.649587890625,18.506250381469727,29.850000381469727,10.575000762939453
1779997186742440000,21.66943994140625,18.506250381469727,29.850000381469727,10.59375
1779997186762364700,21.68936474609375,18.600000381469727,29.850000381469727,10.59375
1779997186782531300,21.70953125,18.5625,29.850000381469727,10.59375
1779997186802424300,21.72942431640625,18.525001525878906,29.850000381469727,10.59375
1779997186822632700,21.7496328125,18.506250381469727,29.868751525878906,10.59375
1779997186842494500,21.769494384765625,18.356250762939453,29.850000381469727,10.59375
1779997186862411000,21.789410888671874,18.356250762939453,29.850000381469727,10.59375
1779997186882361000,21.809361083984374,18.431251525878906,29.850000381469727,10.59375
1779997186902539300,21.829539306640626,18.39375114440918,29.850000381469727,10.575000762939453
1779997186922440200,21.849440185546875,18.39375114440918,29.850000381469727,10.575000762939453
1779997186942852000,21.86985205078125,18.375,29.850000381469727,10.575000762939453
1779997186963118800,21.890118896484374,18.30000114440918,29.868751525878906,10.55625057220459
1779997186982727000,21.909726806640624,18.412500381469727,29.850000381469727,10.537500381469727
1779997187002472400,21.929472412109376,18.5625,29.83125114440918,10.537500381469727
1779997187022606800,21.94960693359375,18.525001525878906,29.83125114440918,10.537500381469727
1779997187042475800,21.969475830078125,18.375,29.83125114440918,10.537500381469727
1779997187062573800,21.98957373046875,18.412500381469727,29.83125114440918,10.518750190734863
1779997187082428000,22.009427978515625,18.67500114440918,29.83125114440918,10.518750190734863
1779997187102347300,22.02934716796875,18.76875114440918,29.850000381469727,10.518750190734863
1779997187122317300,22.0493173828125,18.600000381469727,29.83125114440918,10.518750190734863
1779997187142326800,22.069326904296876,18.65625,29.83125114440918,10.537500381469727
1779997187162538000,22.0895380859375,18.58125114440918,29.83125114440918,10.537500381469727
1779997187182448000,22.1094482421875,18.600000381469727,29.83125114440918,10.537500381469727
1779997187202394600,22.12939453125,18.525001525878906,29.850000381469727,10.55625057220459
1779997187222411800,22.149411865234374,18.431251525878906,29.850000381469727,10.537500381469727
1779997187242376200,22.169376220703125,18.28125,29.868751525878906,10.537500381469727
1779997187262361600,22.189361572265625,18.28125,29.850000381469727,10.537500381469727
1779997187282613200,22.20961328125,18.243751525878906,29.868751525878906,10.55625057220459
1779997187302480000,22.22947998046875,18.168750762939453,29.868751525878906,10.575000762939453
1779997187322399700,22.249399658203124,18.337501525878906,29.868751525878906,10.59375
1779997187342826800,22.26982666015625,18.431251525878906,29.868751525878906,10.575000762939453
1779997187362597600,22.28959765625,18.30000114440918,29.868751525878906,10.575000762939453
1779997187382442500,22.3094423828125,18.131250381469727,29.868751525878906,10.575000762939453
1779997187402362400,22.3293623046875,18.01875114440918,29.868751525878906,10.575000762939453
1779997187422373600,22.34937353515625,18.11250114440918,29.868751525878906,10.575000762939453
1779997187442345000,22.369344970703125,18.09375,29.868751525878906,10.59375
1779997187462804700,22.3898046875,18.1875,29.850000381469727,10.612500190734863
1779997187482780400,22.409780517578124,18.09375,29.850000381469727,10.59375
1779997187502539800,22.429539794921876,18.225000381469727,29.850000381469727,10.575000762939453
1779997187522663000,22.449662841796876,18.356250762939453,29.83125114440918,10.59375
1779997187542484500,22.469484375,18.543750762939453,29.812501907348633,10.59375
1779997187562385000,22.489385009765623,18.600000381469727,29.83125114440918,10.59375
1779997187582608600,22.509608642578126,18.5625,29.850000381469727,10.59375
1779997187602780400,22.529780517578125,18.543750762939453,29.850000381469727,10.55625057220459
1779997187622809000,22.54980908203125,18.412500381469727,29.868751525878906,10.537500381469727
1779997187642765800,22.569765869140625,18.412500381469727,29.887500762939453,10.55625057220459
1779997187662983200,22.589983154296874,18.506250381469727,29.868751525878906,10.55625057220459
1779997187682625300,22.609625244140624,18.356250762939453,29.887500762939453,10.537500381469727
1779997187702683400,22.629683349609376,18.30000114440918,29.868751525878906,10.518750190734863
1779997187722931700,22.649931640625,18.46875,29.887500762939453,10.518750190734863
1779997187742912500,22.66991259765625,18.600000381469727,29.887500762939453,10.481250762939453
1779997187762585000,22.689585205078124,18.618751525878906,29.887500762939453,10.46250057220459
1779997187782656300,22.70965625,18.506250381469727,29.887500762939453,10.443750381469727
1779997187802545700,22.729545654296874,18.30000114440918,29.906251907348633,10.443750381469727
1779997187822866200,22.7498662109375,18.1875,29.906251907348633,10.425000190734863
1779997187843049700,22.7700498046875,18.20625114440918,29.92500114440918,10.425000190734863
1779997187862872000,22.7898720703125,18.337501525878906,29.906251907348633,10.425000190734863
1779997187882537000,22.809536865234374,18.243751525878906,29.92500114440918,10.425000190734863
1779997187902361300,22.829361328125,18.168750762939453,29.92500114440918,10.443750381469727
1779997187922555000,22.849554931640625,18.225000381469727,29.92500114440918,10.443750381469727
1779997187942889200,22.86988916015625,18.150001525878906,29.906251907348633,10.425000190734863
1779997187962599200,22.88959912109375,18.20625114440918,29.92500114440918,10.443750381469727
1779997187982736100,22.909736083984374,18.30000114440918,29.92500114440918,10.443750381469727
1779997188002498000,22.929498046875,18.375,29.943750381469727,10.46250057220459
1779997188022835200,22.949835205078124,18.20625114440918,29.92500114440918,10.46250057220459
1779997188043033600,22.97003369140625,18.075000762939453,29.92500114440918,10.443750381469727
1779997188062924800,22.9899248046875,18.075000762939453,29.92500114440918,10.443750381469727
1779997188082780400,23.009780517578125,18.09375,29.92500114440918,10.443750381469727
1779997188102752800,23.029752685546875,18.20625114440918,29.92500114440918,10.46250057220459
1779997188122825500,23.049825439453127,18.243751525878906,29.92500114440918,10.481250762939453
1779997188142798600,23.069798583984376,18.131250381469727,29.906251907348633,10.481250762939453
1779997188163081000,23.0900810546875,18.01875114440918,29.887500762939453,10.481250762939453
1779997188182773800,23.109773681640625,18.150001525878906,29.868751525878906,10.481250762939453
1779997188202487300,23.1294873046875,18.28125,29.850000381469727,10.481250762939453
1779997188222600200,23.14960009765625,18.225000381469727,29.83125114440918,10.481250762939453
1779997188242645500,23.1696455078125,18.262500762939453,29.812501907348633,10.518750190734863
1779997188262659800,23.189659912109374,18.262500762939453,29.793750762939453,10.518750190734863
1779997188282454000,23.2094541015625,18.30000114440918,29.793750762939453,10.537500381469727
1779997188302348800,23.229348876953125,18.337501525878906,29.775001525878906,10.537500381469727
1779997188322541300,23.249541259765625,18.375,29.793750762939453,10.55625057220459
1779997188342427400,23.269427490234374,18.318750381469727,29.793750762939453,10.575000762939453
1779997188362510300,23.28951025390625,18.243751525878906,29.775001525878906,10.59375
1779997188382419700,23.309419677734375,18.356250762939453,29.793750762939453,10.631250381469727
1779997188402371300,23.329371337890624,18.46875,29.775001525878906,10.631250381469727
1779997188422617300,23.349617431640624,18.431251525878906,29.775001525878906,10.612500190734863
1779997188442491400,23.369491455078126,18.39375114440918,29.775001525878906,10.612500190734863
1779997188462409000,23.389408935546875,18.337501525878906,29.793750762939453,10.612500190734863
1779997188482632200,23.409632080078126,18.318750381469727,29.812501907348633,10.631250381469727
1779997188502493400,23.429493408203125,18.318750381469727,29.812501907348633,10.631250381469727
1779997188522607400,23.449607421875,18.356250762939453,29.83125114440918,10.65000057220459
1779997188542463500,23.46946337890625,18.30000114440918,29.83125114440918,10.65000057220459
1779997188562499000,23.4894990234375,18.28125,29.850000381469727,10.65000057220459
1779997188582600200,23.50960009765625,18.337501525878906,29.868751525878906,10.668750762939453
1779997188602918400,23.52991845703125,18.375,29.868751525878906,10.668750762939453
1779997188622815500,23.5498154296875,18.356250762939453,29.887500762939453,10.65000057220459
1779997188642730500,23.56973046875,18.337501525878906,29.887500762939453,10.668750762939453
1779997188662941000,23.58994091796875,18.431251525878906,29.887500762939453,10.668750762939453
1779997188682827500,23.60982763671875,18.48750114440918,29.887500762939453,10.65000057220459
1779997188702519300,23.629519287109375,18.375,29.92500114440918,10.631250381469727
1779997188722553300,23.64955322265625,18.39375114440918,29.92500114440918,10.612500190734863
1779997188742390000,23.66939013671875,18.58125114440918,29.92500114440918,10.631250381469727
1779997188762593300,23.68959326171875,18.712501525878906,29.92500114440918,10.631250381469727
1779997188782450000,23.709449951171877,18.806251525878906,29.92500114440918,10.65000057220459
1779997188802634200,23.72963427734375,18.76875114440918,29.92500114440918,10.631250381469727
1779997188822487600,23.749487548828125,18.787500381469727,29.92500114440918,10.631250381469727
1779997188842399200,23.769399169921876,18.975000381469727,29.92500114440918,10.612500190734863
1779997188862623200,23.789623291015626,18.95625114440918,29.92500114440918,10.59375
1779997188882500400,23.809500244140626,18.84375,29.92500114440918,10.575000762939453
1779997188902410800,23.82941064453125,18.65625,29.92500114440918,10.575000762939453
1779997188922630400,23.84963037109375,18.67500114440918,29.906251907348633,10.55625057220459
1779997188942491000,23.869490966796874,18.731250762939453,29.906251907348633,10.55625057220459
1779997188962403300,23.8894033203125,18.76875114440918,29.906251907348633,10.537500381469727
1779997188982361900,23.90936181640625,18.637500762939453,29.906251907348633,10.55625057220459
1779997189002594800,23.9295947265625,18.75,29.887500762939453,10.575000762939453
1779997189022667300,23.949667236328125,18.806251525878906,29.906251907348633,10.55625057220459
1779997189042491400,23.969491455078124,18.693750381469727,29.887500762939453,10.55625057220459
1779997189062428700,23.9894287109375,18.65625,29.887500762939453,10.575000762939453
1779997189082894300,24.009894287109375,18.5625,29.887500762939453,10.55625057220459
1779997189102820600,24.029820556640626,18.5625,29.906251907348633,10.575000762939453
1779997189122981000,24.049981201171875,18.506250381469727,29.887500762939453,10.55625057220459
1779997189142627300,24.06962744140625,18.375,29.887500762939453,10.55625057220459
1779997189162414000,24.0894140625,18.243751525878906,29.906251907348633,10.55625057220459
1779997189182519600,24.10951953125,18.262500762939453,29.906251907348633,10.55625057220459
1779997189202395600,24.129395751953126,18.431251525878906,29.92500114440918,10.537500381469727
1779997189222595800,24.149595947265624,18.5625,29.92500114440918,10.55625057220459
1779997189242940200,24.169940185546874,18.731250762939453,29.92500114440918,10.55625057220459
1779997189262742000,24.189741943359376,18.75,29.92500114440918,10.575000762939453
1779997189282497500,24.20949755859375,18.84375,29.92500114440918,10.59375
1779997189302365200,24.229365234375,18.75,29.92500114440918,10.59375
1779997189322473500,24.249473388671873,18.67500114440918,29.92500114440918,10.59375
1779997189342387500,24.269387451171873,18.600000381469727,29.92500114440918,10.59375
1779997189362351400,24.289351318359376,18.46875,29.92500114440918,10.59375
1779997189382561500,24.3095615234375,18.525001525878906,29.92500114440918,10.59375
1779997189402452500,24.329452392578126,18.5625,29.92500114440918,10.59375
1779997189422856400,24.3498564453125,18.67500114440918,29.943750381469727,10.612500190734863
1779997189442866000,24.369865966796876,18.787500381469727,29.92500114440918,10.612500190734863
1779997189463137800,24.3901376953125,18.900001525878906,29.92500114440918,10.65000057220459
1779997189482707500,24.40970751953125,18.975000381469727,29.92500114440918,10.65000057220459
1779997189502684000,24.429683837890625,18.918750762939453,29.906251907348633,10.65000057220459
1779997189522444300,24.4494443359375,18.806251525878906,29.906251907348633,10.65000057220459
1779997189542336000,24.4693359375,18.637500762939453,29.906251907348633,10.65000057220459
1779997189562565600,24.489565673828125,18.450000762939453,29.906251907348633,10.65000057220459
1779997189582736000,24.50973583984375,18.375,29.92500114440918,10.631250381469727
1779997189602804700,24.5298046875,18.262500762939453,29.92500114440918,10.631250381469727
1779997189622822000,24.54982177734375,18.131250381469727,29.906251907348633,10.65000057220459
1779997189642568200,24.569568115234375,18.20625114440918,29.92500114440918,10.668750762939453
1779997189662410800,24.58941064453125,18.09375,29.943750381469727,10.65000057220459
1779997189682600400,24.609600341796874,17.943750381469727,29.92500114440918,10.65000057220459
1779997189702648800,24.62964892578125,17.981250762939453,29.906251907348633,10.65000057220459
1779997189722471700,24.6494716796875,17.83125114440918,29.92500114440918,10.65000057220459
1779997189742402300,24.66940234375,17.887500762939453,29.92500114440918,10.631250381469727
1779997189762599700,24.689599609375,17.92500114440918,29.92500114440918,10.612500190734863
1779997189782455000,24.709455078125,17.90625,29.906251907348633,10.59375
1779997189802374000,24.729373779296875,17.962501525878906,29.906251907348633,10.631250381469727
1779997189822733600,24.749733642578125,17.868751525878906,29.906251907348633,10.612500190734863
1779997189842529000,24.769529052734374,18,29.906251907348633,10.612500190734863
1779997189862416000,24.789415771484375,18.075000762939453,29.906251907348633,10.59375
1779997189882818800,24.80981884765625,18.056251525878906,29.887500762939453,10.575000762939453
1779997189902836200,24.829836181640626,18.11250114440918,29.887500762939453,10.575000762939453
1779997189922842000,24.849842041015624,18.412500381469727,29.906251907348633,10.575000762939453
1779997189943029500,24.870029541015626,18.46875,29.906251907348633,10.575000762939453
1779997189962703600,24.88970361328125,18.46875,29.887500762939453,10.575000762939453
1779997189982457300,24.909457275390626,18.543750762939453,29.887500762939453,10.55625057220459
1779997190002329600,24.92932958984375,18.48750114440918,29.906251907348633,10.537500381469727
1779997190022368500,24.949368408203124,18.525001525878906,29.887500762939453,10.537500381469727
1779997190042799400,24.96979931640625,18.48750114440918,29.868751525878906,10.537500381469727
1779997190063035400,24.990035400390624,18.525001525878906,29.887500762939453,10.537500381469727
1779997190082902300,25.00990234375,18.46875,29.868751525878906,10.537500381469727
1779997190102567200,25.029567138671876,18.46875,29.868751525878906,10.518750190734863
1779997190122647600,25.0496474609375,18.5625,29.868751525878906,10.518750190734863
1779997190142457300,25.069457275390626,18.431251525878906,29.850000381469727,10.518750190734863
1779997190162616800,25.089616943359374,18.356250762939453,29.850000381469727,10.518750190734863
1779997190182462700,25.109462646484374,18.318750381469727,29.868751525878906,10.537500381469727
1779997190202497300,25.129497314453126,18.30000114440918,29.868751525878906,10.518750190734863
1779997190222403000,25.149403076171875,18.075000762939453,29.850000381469727,10.518750190734863
1779997190242355500,25.16935546875,18,29.83125114440918,10.5
1779997190262605300,25.189605224609377,18.075000762939453,29.812501907348633,10.518750190734863
1779997190282483500,25.2094833984375,18.1875,29.812501907348633,10.537500381469727
1779997190302403800,25.22940380859375,18.20625114440918,29.83125114440918,10.55625057220459
1779997190322628400,25.24962841796875,18.262500762939453,29.850000381469727,10.59375
1779997190342840600,25.269840576171877,18.150001525878906,29.868751525878906,10.59375
1779997190362799600,25.289799560546875,17.8125,29.868751525878906,10.59375
1779997190382544600,25.309544677734376,17.73750114440918,29.868751525878906,10.59375
1779997190402398500,25.3293984375,17.700000762939453,29.887500762939453,10.59375
1779997190422599200,25.34959912109375,17.662500381469727,29.887500762939453,10.575000762939453
1779997190442459400,25.36945947265625,17.625,29.906251907348633,10.575000762939453
1779997190462583300,25.389583251953123,17.681251525878906,29.906251907348633,10.59375
1779997190482449700,25.40944970703125,17.756250381469727,29.887500762939453,10.59375
1779997190502368300,25.4293681640625,17.700000762939453,29.906251907348633,10.59375
1779997190522537700,25.449537841796875,17.775001525878906,29.906251907348633,10.631250381469727
1779997190542697200,25.469697265625,17.700000762939453,29.887500762939453,10.631250381469727
1779997190562726400,25.489726318359374,17.73750114440918,29.906251907348633,10.59375
1779997190582711600,25.509711669921874,17.71875,29.887500762939453,10.59375
1779997190602489000,25.529489013671874,17.700000762939453,29.868751525878906,10.59375
1779997190622369800,25.549369873046874,17.606250762939453,29.850000381469727,10.59375
1779997190642780200,25.5697802734375,17.606250762939453,29.83125114440918,10.59375
1779997190662556000,25.589555908203124,17.83125114440918,29.812501907348633,10.59375
1779997190682409700,25.60940966796875,17.90625,29.812501907348633,10.612500190734863
1779997190702736400,25.629736328125,17.775001525878906,29.793750762939453,10.631250381469727
1779997190722543900,25.6495439453125,17.64375114440918,29.793750762939453,10.631250381469727
1779997190742419000,25.6694189453125,17.700000762939453,29.812501907348633,10.65000057220459
1779997190762413000,25.6894130859375,17.662500381469727,29.812501907348633,10.65000057220459
1779997190782451200,25.709451171875,17.606250762939453,29.812501907348633,10.65000057220459
1779997190802382800,25.7293828125,17.700000762939453,29.83125114440918,10.65000057220459
1779997190822684400,25.749684326171874,17.700000762939453,29.850000381469727,10.631250381469727
1779997190842734600,25.769734619140625,17.83125114440918,29.868751525878906,10.631250381469727
1779997190862523400,25.7895234375,17.887500762939453,29.850000381469727,10.65000057220459
1779997190882400500,25.809400390625,17.793750762939453,29.850000381469727,10.65000057220459
1779997190902359800,25.82935986328125,17.793750762939453,29.850000381469727,10.631250381469727
1779997190922339300,25.84933935546875,17.850000381469727,29.850000381469727,10.631250381469727
1779997190942332700,25.869332763671874,17.83125114440918,29.850000381469727,10.612500190734863
1779997190962534000,25.889533935546876,17.90625,29.868751525878906,10.631250381469727
1779997190982444800,25.90944482421875,17.943750381469727,29.868751525878906,10.612500190734863
1779997191002392000,25.92939208984375,18.09375,29.868751525878906,10.612500190734863
1779997191022627600,25.949627685546876,18.28125,29.868751525878906,10.612500190734863
1779997191042767600,25.969767578125,18.39375114440918,29.850000381469727,10.59375
1779997191062762000,25.989761962890626,18.543750762939453,29.850000381469727,10.55625057220459
1779997191082527700,26.00952783203125,18.525001525878906,29.850000381469727,10.55625057220459
1779997191102519800,26.029519775390625,18.450000762939453,29.83125114440918,10.55625057220459
1779997191122653200,26.049653076171875,18.375,29.812501907348633,10.537500381469727
1779997191142752500,26.06975244140625,18.225000381469727,29.83125114440918,10.518750190734863
1779997191162684700,26.0896845703125,18.11250114440918,29.83125114440918,10.481250762939453
1779997191182945800,26.10994580078125,18.131250381469727,29.850000381469727,10.481250762939453
1779997191202884900,26.129884765625,18.1875,29.850000381469727,10.481250762939453
1779997191222797600,26.149797607421874,18.243751525878906,29.850000381469727,10.481250762939453
1779997191242769700,26.169769775390623,18.28125,29.850000381469727,10.481250762939453
1779997191262504400,26.18950439453125,18.28125,29.850000381469727,10.5
1779997191282559500,26.2095595703125,18.262500762939453,29.850000381469727,10.5
1779997191302400300,26.229400146484377,18.09375,29.83125114440918,10.481250762939453
1779997191322329600,26.24932958984375,17.981250762939453,29.812501907348633,10.481250762939453
1779997191342312000,26.26931201171875,17.962501525878906,29.812501907348633,10.5
1779997191362323000,26.289322998046874,17.887500762939453,29.793750762939453,10.518750190734863
1779997191382799000,26.309799072265626,17.962501525878906,29.812501907348633,10.537500381469727
1779997191402849500,26.329849609375,18.056251525878906,29.793750762939453,10.518750190734863
1779997191422611200,26.349611083984374,18.168750762939453,29.793750762939453,10.518750190734863
1779997191442443300,26.369443359375,18.318750381469727,29.812501907348633,10.537500381469727
1779997191462732300,26.389732177734373,18.356250762939453,29.793750762939453,10.537500381469727
1779997191482583800,26.409583740234375,18.450000762939453,29.775001525878906,10.537500381469727
1779997191502432500,26.4294326171875,18.525001525878906,29.775001525878906,10.518750190734863
1779997191522618600,26.44961865234375,18.46875,29.793750762939453,10.537500381469727
1779997191542476800,26.469476806640625,18.525001525878906,29.793750762939453,10.518750190734863
1779997191562393300,26.489393310546873,18.543750762939453,29.812501907348633,10.518750190734863
1779997191582621200,26.50962109375,18.5625,29.812501907348633,10.5
1779997191602740000,26.529739990234376,18.881250381469727,29.850000381469727,10.5
1779997191622726400,26.549726318359376,18.975000381469727,29.887500762939453,10.518750190734863
1779997191642508000,26.569508056640625,18.918750762939453,29.887500762939453,10.518750190734863
1779997191662452000,26.589451904296876,18.900001525878906,29.868751525878906,10.5
1779997191682366200,26.6093662109375,18.993751525878906,29.868751525878906,10.5
1779997191702334700,26.629334716796876,19.05000114440918,29.887500762939453,10.518750190734863
1779997191722576400,26.649576416015623,19.125,29.887500762939453,10.5
1779997191742471200,26.66947119140625,19.293750762939453,29.850000381469727,10.481250762939453
1779997191762405000,26.689405029296875,19.387500762939453,29.850000381469727,10.481250762939453
1779997191782828000,26.709828125,19.387500762939453,29.850000381469727,10.481250762939453
1779997191802895400,26.729895263671875,19.387500762939453,29.850000381469727,10.46250057220459
1779997191822613000,26.749613037109373,19.481250762939453,29.850000381469727,10.425000190734863
1779997191842949400,26.769949462890626,19.5,29.850000381469727,10.387500762939453
1779997191862617600,26.78961767578125,19.556251525878906,29.850000381469727,10.350000381469727
1779997191882422800,26.8094228515625,19.537500381469727,29.868751525878906,10.3125
1779997191902331100,26.8293310546875,19.443750381469727,29.850000381469727,10.27500057220459
1779997191922510300,26.84951025390625,19.51875114440918,29.83125114440918,10.237500190734863
1779997191942408200,26.869408203125,19.762500762939453,29.83125114440918,10.200000762939453
1779997191962356500,26.8893564453125,19.950000762939453,29.812501907348633,10.143750190734863
1779997191982388000,26.909387939453126,20.043750762939453,29.812501907348633,10.125
1779997192002836000,26.9298359375,20.025001525878906,29.812501907348633,10.106250762939453
1779997192022604300,26.949604248046874,19.875,29.812501907348633,10.050000190734863
1779997192042453800,26.969453857421875,19.875,29.812501907348633,10.050000190734863
1779997192062364400,26.989364501953126,19.96875,29.850000381469727,10.03125
1779997192082530600,27.009530517578124,20.043750762939453,29.83125114440918,9.99375057220459
1779997192102689500,27.029689453125,20.137500762939453,29.850000381469727,9.956250190734863
1779997192122518800,27.049518798828124,20.25,29.83125114440918,9.9375
1779997192142415000,27.0694150390625,20.325000762939453,29.83125114440918,9.918750762939453
1779997192162619100,27.089619140625,20.475000381469727,29.83125114440918,9.90000057220459
1779997192182535000,27.109534912109375,20.512500762939453,29.793750762939453,9.90000057220459
1779997192202428200,27.12942822265625,20.4375,29.793750762939453,9.90000057220459
1779997192222829800,27.149829833984374,20.512500762939453,29.775001525878906,9.90000057220459
1779997192242677000,27.169677001953126,20.4375,29.775001525878906,9.90000057220459
1779997192262482000,27.18948193359375,20.36250114440918,29.793750762939453,9.90000057220459
1779997192282568700,27.209568603515624,20.381250381469727,29.775001525878906,9.862500190734863
1779997192302635800,27.2296357421875,20.381250381469727,29.775001525878906,9.84375
1779997192322460000,27.2494599609375,20.4375,29.775001525878906,9.84375
1779997192342824000,27.269823974609373,20.418750762939453,29.775001525878906,9.80625057220459
1779997192362803500,27.289803466796876,20.34375,29.73750114440918,9.787500381469727
1779997192382533400,27.309533447265625,20.325000762939453,29.718751907348633,9.787500381469727
1779997192402383600,27.329383544921875,20.34375,29.718751907348633,9.768750190734863
1779997192422457000,27.34945703125,20.306251525878906,29.718751907348633,9.75
1779997192442378800,27.369378662109376,20.26875114440918,29.700000762939453,9.731250762939453
1779997192462608000,27.38960791015625,20.25,29.700000762939453,9.731250762939453
1779997192482688500,27.4096884765625,20.306251525878906,29.700000762939453,9.731250762939453
1779997192502502000,27.429501953125,20.36250114440918,29.700000762939453,9.71250057220459
1779997192522656000,27.449656005859374,20.231250762939453,29.700000762939453,9.693750381469727
1779997192542755600,27.469755615234376,20.25,29.700000762939453,9.675000190734863
1779997192562863600,27.489863525390625,20.25,29.681251525878906,9.65625
1779997192583063800,27.510063720703126,20.287500381469727,29.681251525878906,9.65625
1779997192602941000,27.52994091796875,20.55000114440918,29.681251525878906,9.65625
1779997192622752000,27.549751953125,20.662500381469727,29.681251525878906,9.65625
1779997192642732800,27.56973291015625,20.606250762939453,29.681251525878906,9.65625
1779997192662944500,27.589944580078125,20.775001525878906,29.700000762939453,9.65625
1779997192682791400,27.60979150390625,20.943750381469727,29.718751907348633,9.65625
1779997192702500900,27.6295009765625,20.887500762939453,29.700000762939453,9.65625
1779997192722345500,27.649345458984374,21.075000762939453,29.681251525878906,9.65625
1779997192742495200,27.6694951171875,21.225000381469727,29.681251525878906,9.65625
1779997192762662700,27.68966259765625,21.356250762939453,29.681251525878906,9.65625
1779997192782472400,27.709472412109374,21.525001525878906,29.700000762939453,9.637500762939453
1779997192802542300,27.729542236328125,21.75,29.718751907348633,9.61875057220459
1779997192822435000,27.74943505859375,21.918750762939453,29.700000762939453,9.61875057220459
1779997192842361600,27.769361572265623,21.76875114440918,29.700000762939453,9.61875057220459
1779997192862877400,27.78987744140625,21.84375,29.700000762939453,9.61875057220459
1779997192882621400,27.809621337890626,21.693750381469727,29.718751907348633,9.600000381469727
1779997192902454800,27.829454833984375,21.543750762939453,29.700000762939453,9.5625
1779997192922633000,27.849633056640624,21.637500762939453,29.700000762939453,9.5625
1779997192942476300,27.869476318359375,21.75,29.700000762939453,9.543750762939453
1779997192962386000,27.889385986328126,21.600000381469727,29.681251525878906,9.52500057220459
1779997192982611500,27.909611572265625,21.58125114440918,29.681251525878906,9.506250381469727
1779997193002578200,27.929578125,21.618751525878906,29.700000762939453,9.52500057220459
1779997193022909400,27.949909423828124,21.450000762939453,29.700000762939453,9.506250381469727
1779997193042621000,27.969620849609374,21.412500381469727,29.681251525878906,9.506250381469727
1779997193062637800,27.989637939453125,21.39375114440918,29.718751907348633,9.52500057220459
1779997193082645800,28.009645751953126,21.337501525878906,29.700000762939453,9.52500057220459
1779997193102449400,28.029449462890625,21.056251525878906,29.700000762939453,9.487500190734863
1779997193122572000,28.049572021484376,21.09375,29.700000762939453,9.46875
1779997193179290600,28.10629052734375,21.225000381469727,29.73750114440918,9.46875
1779997193241618700,28.16861865234375,21.30000114440918,29.756250381469727,9.46875
1779997193333018400,28.260018310546876,21.525001525878906,29.756250381469727,9.487500190734863
1779997193424411600,28.35141162109375,21.65625,29.793750762939453,9.506250381469727
1779997193515771100,28.442771240234375,21.9375,29.850000381469727,9.52500057220459
1779997193561420300,28.488420166015626,22.03125,29.850000381469727,9.506250381469727
1779997193607034000,28.5340341796875,22.293750762939453,29.850000381469727,9.506250381469727
1779997193652597200,28.57959716796875,22.21875,29.850000381469727,9.506250381469727
1779997193698089700,28.62508984375,22.181251525878906,29.812501907348633,9.46875
1779997193743488300,28.67048828125,22.23750114440918,29.83125114440918,9.46875
1779997193788764200,28.71576416015625,22.42500114440918,29.83125114440918,9.506250381469727
1779997193833884000,28.7608837890625,22.293750762939453,29.83125114440918,9.506250381469727
1779997193878808600,28.80580859375,22.40625,29.812501907348633,9.52500057220459
1779997193923493000,28.8504931640625,22.462501525878906,29.812501907348633,9.52500057220459
1779997193967888000,28.894887939453124,22.293750762939453,29.793750762939453,9.543750762939453
1779997194011936000,28.93893603515625,22.162500381469727,29.793750762939453,9.543750762939453
1779997194055575000,28.982574951171873,22.03125,29.775001525878906,9.52500057220459
1779997194098737400,29.0257373046875,21.806251525878906,29.775001525878906,9.52500057220459
1779997194141351200,29.06835107421875,21.693750381469727,29.756250381469727,9.506250381469727
1779997194183336200,29.110336181640626,21.618751525878906,29.756250381469727,9.506250381469727
1779997194224607200,29.151607177734373,21.46875,29.756250381469727,9.506250381469727
1779997194265083000,29.192082763671873,21.131250381469727,29.775001525878906,9.506250381469727
1779997194304666400,29.231666259765625,21.037500381469727,29.775001525878906,9.543750762939453
1779997194343266600,29.2702666015625,20.981250762939453,29.793750762939453,9.581250190734863
1779997194380789800,29.307789794921874,20.962501525878906,29.812501907348633,9.637500762939453
1779997194417139000,29.344138916015623,20.8125,29.812501907348633,9.693750381469727
1779997194452224500,29.379224609375,20.64375114440918,29.83125114440918,9.75
1779997194485962200,29.412962158203126,20.306251525878906,29.83125114440918,9.84375
1779997194518263600,29.445263671875,19.98750114440918,29.83125114440918,9.9375
1779997194549045500,29.47604541015625,20.08125114440918,29.850000381469727,9.99375057220459
1779997194578242300,29.5052421875,19.950000762939453,29.868751525878906,10.068750381469727
1779997194605800200,29.53280029296875,19.80000114440918,29.868751525878906,10.125
1779997194631667700,29.558667724609375,19.762500762939453,29.850000381469727,10.21875
1779997194655795200,29.582795166015625,19.556251525878906,29.850000381469727,10.293750762939453
1779997194678163200,29.6051630859375,19.23750114440918,29.83125114440918,10.40625
1779997194698752300,29.625752197265626,18.900001525878906,29.83125114440918,10.5
1779997194717571600,29.644571533203123,18.787500381469727,29.850000381469727,10.55625057220459
1779997194734637000,29.661636962890626,18.86250114440918,29.850000381469727,10.59375
1779997194749987800,29.67698779296875,18.787500381469727,29.83125114440918,10.612500190734863
1779997194763650300,29.690650390625,18.48750114440918,29.812501907348633,10.59375
1779997194775701000,29.702700927734377,18.30000114440918,29.812501907348633,10.612500190734863
1779997194786187000,29.71318701171875,18.243751525878906,29.812501907348633,10.631250381469727
1779997194802815000,29.72981494140625,18.318750381469727,29.83125114440918,10.575000762939453
1779997194814283000,29.741282958984375,18.28125,29.793750762939453,10.537500381469727
1779997194825105000,29.75210498046875,18.20625114440918,29.83125114440918,10.537500381469727
1779997194836341500,29.763341552734374,18.131250381469727,29.906251907348633,10.575000762939453
1779997194850406100,29.77740625,17.775001525878906,29.92500114440918,10.59375
