time,seconds_elapsed,z,y,x
1779997165292304000,0.219303955078125,347.79376220703125,-103.9312515258789,27.562501907348633
1779997165312622800,0.239622802734375,347.4000244140625,-104.06250762939453,27.412500381469727
1779997165332998700,0.25999853515625,347.3812561035156,-104.06250762939453,27.39375114440918
1779997165352734200,0.279734130859375,347.4375,-104.06250762939453,27.375001907348633
1779997165372980200,0.299980224609375,347.4562683105469,-104.06250762939453,27.337501525878906
1779997165393102800,0.320102783203125,347.53125,-104.06250762939453,27.337501525878906
1779997165412957700,0.339957763671875,347.51251220703125,-104.08125305175781,27.337501525878906
1779997165433054500,0.360054443359375,347.4000244140625,-104.06250762939453,27.318750381469727
1779997165453103400,0.380103271484375,347.2875061035156,-104.06250762939453,27.30000114440918
1779997165472761000,0.399760986328125,347.2687683105469,-104.06250762939453,27.281251907348633
1779997165492915700,0.419915771484375,347.2125244140625,-104.04375457763672,27.262500762939453
1779997165513021700,0.440021728515625,347.23126220703125,-104.04375457763672,27.243751525878906
1779997165532809500,0.4598095703125,347.1750183105469,-104.04375457763672,27.225000381469727
1779997165552946700,0.47994677734375,347.13751220703125,-104.0250015258789,27.20625114440918
1779997165573037600,0.50003759765625,347.1937561035156,-104.0250015258789,27.168750762939453
1779997165592822500,0.519822509765625,347.23126220703125,-104.04375457763672,27.131250381469727
1779997165612720600,0.539720703125,347.1750183105469,-104.0250015258789,27.11250114440918
1779997165632905000,0.559905029296875,347.23126220703125,-104.00625610351562,27.131250381469727
1779997165652913700,0.57991357421875,347.23126220703125,-104.00625610351562,27.131250381469727
1779997165672834600,0.59983447265625,347.23126220703125,-104.00625610351562,27.150001525878906
1779997165692984600,0.619984619140625,347.1750183105469,-103.98750305175781,27.131250381469727
1779997165713069000,0.640069091796875,347.2875061035156,-103.98750305175781,27.131250381469727
1779997165773192700,0.700192626953125,347.3625183105469,-104.00625610351562,27.131250381469727
1779997165930231600,0.8572314453125,347.2125244140625,-103.95000457763672,27.093751907348633
1779997166023898000,0.950898193359375,347.0625,-103.91250610351562,27.01875114440918
1779997166117529600,1.044529541015625,312.45001220703125,-93.50625610351562,24.337501525878906
1779997166164313300,1.091313232421875,312.4125061035156,-93.48750305175781,24.337501525878906
1779997166211060000,1.13806005859375,312.46875,-93.48750305175781,24.356250762939453
1779997166257753300,1.18475341796875,312.5250244140625,-93.48750305175781,24.318750381469727
1779997166304373000,1.231373046875,312.54376220703125,-93.50625610351562,24.318750381469727
1779997166350894000,1.27789404296875,312.5625,-93.48750305175781,24.281251907348633
1779997166397287200,1.324287109375,312.6000061035156,-93.48750305175781,24.262500762939453
1779997166443516700,1.3705166015625,312.5062561035156,-93.46875,24.243751525878906
1779997166489618000,1.416617919921875,312.5250244140625,-93.48750305175781,24.243751525878906
1779997166581201700,1.50820166015625,312.91876220703125,-93.5625,24.262500762939453
1779997166715611400,1.642611328125,313.4625244140625,-93.67500305175781,24.39375114440918
1779997166802304500,1.729304443359375,348.2250061035156,-104.08125305175781,27.150001525878906
1779997166844566800,1.77156689453125,348.375,-104.10000610351562,27.187501907348633
1779997166885993700,1.81299365234375,348.3375244140625,-104.1187515258789,27.243751525878906
1779997166926862600,1.853862548828125,348.2250061035156,-104.13750457763672,27.281251907348633
1779997167043794700,1.970794677734375,347.9625244140625,-104.19375610351562,27.375001907348633
1779997167147906000,2.074906005859375,347.8500061035156,-104.17500305175781,27.412500381469727
1779997167179298300,2.10629833984375,336.1312561035156,-100.70625305175781,26.512500762939453
1779997167209027600,2.136027587890625,336.0187683105469,-100.70625305175781,26.493751525878906
1779997167237024000,2.16402392578125,335.8500061035156,-100.70625305175781,26.493751525878906
1779997167264190700,2.191190673828125,335.7750244140625,-100.70625305175781,26.493751525878906
1779997167336450000,2.263449951171875,323.70001220703125,-97.2750015258789,25.575000762939453
1779997167356350200,2.28335009765625,312,-93.78750610351562,24.618751525878906
1779997167402892500,2.329892578125,311.7375183105469,-93.69375610351562,24.562501907348633
1779997167414611700,2.34161181640625,311.79376220703125,-93.69375610351562,24.58125114440918
1779997167424662500,2.35166259765625,311.8312683105469,-93.7125015258789,24.58125114440918
1779997167440115500,2.367115478515625,311.70001220703125,-93.7125015258789,24.562501907348633
1779997167450078700,2.37707861328125,323.6625061035156,-97.1812515258789,25.500001907348633
1779997167463391200,2.39039111328125,344.8312683105469,-103.95000457763672,28.481250762939453
1779997167475457000,2.40245703125,344.8312683105469,-103.91250610351562,28.481250762939453
1779997167489579300,2.416579345703125,344.9250183105469,-103.91250610351562,28.556251525878906
1779997167505684000,2.43268408203125,344.625,-103.9312515258789,28.575000762939453
1779997167523656700,2.45065673828125,344.79376220703125,-103.89375305175781,28.575000762939453
1779997167533357000,2.460357177734375,344.88751220703125,-103.89375305175781,28.556251525878906
1779997167543474400,2.470474365234375,345.0187683105469,-103.89375305175781,28.575000762939453
1779997167554048000,2.481048095703125,344.9625244140625,-103.89375305175781,28.575000762939453
1779997167565067800,2.49206787109375,344.7562561035156,-103.9312515258789,28.593751907348633
1779997167576472000,2.50347216796875,344.625,-103.91250610351562,28.575000762939453
1779997167588304600,2.5153046875,344.60626220703125,-103.95000457763672,28.575000762939453
1779997167602658300,2.529658203125,344.6625061035156,-103.9312515258789,28.556251525878906
1779997167623684600,2.5506845703125,344.625,-103.96875762939453,28.51875114440918
1779997167648014800,2.575014892578125,344.5875244140625,-103.98750305175781,28.500001907348633
1779997167671327200,2.5983271484375,344.4562683105469,-103.95000457763672,28.500001907348633
1779997167692654000,2.619654052734375,344.2875061035156,-103.98750305175781,28.481250762939453
1779997167713116200,2.6401162109375,344.32501220703125,-104.00625610351562,28.500001907348633
1779997167733377300,2.660377197265625,344.4000244140625,-104.00625610351562,28.500001907348633
1779997167753267500,2.680267333984375,344.4562683105469,-104.0250015258789,28.462501525878906
1779997167773066000,2.70006591796875,344.41876220703125,-104.00625610351562,28.443750381469727
1779997167792679700,2.7196796875,344.3062744140625,-103.98750305175781,28.443750381469727
1779997167812455700,2.73945556640625,344.25,-103.96875762939453,28.443750381469727
1779997167832343300,2.75934326171875,344.3062744140625,-103.98750305175781,28.481250762939453
1779997167852298800,2.779298828125,344.34375,-103.98750305175781,28.500001907348633
1779997167872488400,2.799488525390625,344.34375,-103.98750305175781,28.51875114440918
1779997167892413700,2.81941357421875,344.4937744140625,-103.98750305175781,28.500001907348633
1779997167912372700,2.839372802734375,344.5687561035156,-103.98750305175781,28.481250762939453
1779997167932557300,2.859557373046875,344.60626220703125,-103.98750305175781,28.462501525878906
1779997167952455000,2.879454833984375,344.60626220703125,-103.96875762939453,28.462501525878906
1779997167972649200,2.899649169921875,344.60626220703125,-103.98750305175781,28.481250762939453
1779997167992500000,2.9195,344.6437683105469,-103.98750305175781,28.51875114440918
1779997168012413200,2.9394130859375,344.7375183105469,-103.98750305175781,28.500001907348633
1779997168032357000,2.959357177734375,344.8500061035156,-103.98750305175781,28.481250762939453
1779997168052335900,2.9793359375,344.9437561035156,-104.00625610351562,28.462501525878906
1779997168072437000,2.99943701171875,345.0562744140625,-104.04375457763672,28.462501525878906
1779997168092385300,3.01938525390625,345.0562744140625,-104.04375457763672,28.462501525878906
1779997168112568600,3.039568603515625,344.9625244140625,-104.06250762939453,28.481250762939453
1779997168132658700,3.05965869140625,344.8125,-104.06250762939453,28.500001907348633
1779997168152490500,3.079490478515625,344.8687744140625,-104.04375457763672,28.500001907348633
1779997168172861700,3.09986181640625,345.0375061035156,-104.0250015258789,28.462501525878906
1779997168192811800,3.119811767578125,345.07501220703125,-104.0250015258789,28.443750381469727
1779997168212539600,3.13953955078125,345.1312561035156,-104.04375457763672,28.443750381469727
1779997168232390700,3.159390625,345.09375,-104.0250015258789,28.481250762939453
1779997168252514000,3.17951416015625,345.0375061035156,-104.0250015258789,28.481250762939453
1779997168272386600,3.199386474609375,344.90625,-104.0250015258789,28.462501525878906
1779997168292348400,3.219348388671875,344.8125,-104.0250015258789,28.42500114440918
1779997168312921600,3.239921630859375,344.8125,-104.0250015258789,28.42500114440918
1779997168332909800,3.259909912109375,344.90625,-104.0250015258789,28.42500114440918
1779997168353080600,3.28008056640625,344.9250183105469,-104.0250015258789,28.443750381469727
1779997168373163500,3.30016357421875,344.71875,-103.98750305175781,28.443750381469727
1779997168392705500,3.31970556640625,344.7750244140625,-104.00625610351562,28.462501525878906
1779997168412634400,3.33963427734375,344.7562561035156,-104.00625610351562,28.500001907348633
1779997168432610000,3.359610107421875,344.7562561035156,-103.96875762939453,28.481250762939453
1779997168452674800,3.3796748046875,344.7375183105469,-103.96875762939453,28.462501525878906
1779997168472461800,3.3994619140625,344.7375183105469,-103.96875762939453,28.462501525878906
1779997168492352300,3.419352294921875,344.7750244140625,-103.96875762939453,28.462501525878906
1779997168512529200,3.439529052734375,344.6437683105469,-103.95000457763672,28.462501525878906
1779997168532414000,3.4594140625,344.70001220703125,-103.95000457763672,28.481250762939453
1779997168552365800,3.47936572265625,344.7562561035156,-103.95000457763672,28.51875114440918
1779997168572629200,3.499629150390625,344.7562561035156,-103.95000457763672,28.51875114440918
1779997168592486400,3.519486328125,344.8312683105469,-103.95000457763672,28.537500381469727
1779997168612403000,3.53940283203125,344.8500061035156,-103.96875762939453,28.500001907348633
1779997168632557000,3.55955712890625,344.79376220703125,-103.95000457763672,28.500001907348633
1779997168652440600,3.579440673828125,344.7375183105469,-103.96875762939453,28.500001907348633
1779997168672378000,3.599378173828125,344.7562561035156,-103.96875762939453,28.51875114440918
1779997168692721000,3.619720947265625,344.4937744140625,-103.95000457763672,28.51875114440918
1779997168712565200,3.639565185546875,344.3812561035156,-103.9312515258789,28.51875114440918
1779997168732444000,3.65944384765625,344.41876220703125,-103.95000457763672,28.481250762939453
1779997168752368600,3.67936865234375,344.4750061035156,-103.96875762939453,28.481250762939453
1779997168772385000,3.699385009765625,344.3812561035156,-103.95000457763672,28.481250762939453
1779997168792358000,3.71935791015625,344.3625183105469,-103.91250610351562,28.500001907348633
1779997168812342000,3.739342041015625,344.3812561035156,-103.95000457763672,28.51875114440918
1779997168832525800,3.75952587890625,344.25,-103.95000457763672,28.51875114440918
1779997168852440600,3.779440673828125,344.13751220703125,-103.96875762939453,28.51875114440918
1779997168872652300,3.79965234375,344.04376220703125,-103.96875762939453,28.500001907348633
1779997168892513300,3.81951318359375,344.0062561035156,-103.95000457763672,28.500001907348633
1779997168912415000,3.8394150390625,343.96875,-103.9312515258789,28.500001907348633
1779997168932364300,3.8593642578125,343.8937683105469,-103.95000457763672,28.500001907348633
1779997168952550000,3.8795498046875,343.8187561035156,-103.95000457763672,28.481250762939453
1779997168972440800,3.89944091796875,343.9125061035156,-103.9312515258789,28.51875114440918
1779997169032939000,3.95993896484375,344.04376220703125,-103.95000457763672,28.500001907348633
1779997169143495200,4.0704951171875,344.0062561035156,-103.96875762939453,28.51875114440918
1779997169237441500,4.164441650390625,343.8000183105469,-103.98750305175781,28.51875114440918
1779997169378316300,4.30531640625,309.2250061035156,-93.58125305175781,25.650001525878906
1779997169425237000,4.352237060546875,309.28125,-93.58125305175781,25.631250381469727
1779997169472120300,4.399120361328125,309.4875183105469,-93.58125305175781,25.631250381469727
1779997169518950400,4.445950439453125,309.65625,-93.58125305175781,25.61250114440918
1779997169565706500,4.49270654296875,309.7125244140625,-93.58125305175781,25.61250114440918
1779997169612363300,4.53936328125,309.6937561035156,-93.5625,25.631250381469727
1779997169658891300,4.585891357421875,309.75,-93.54375457763672,25.668750762939453
1779997169705254700,4.632254638671875,309.63751220703125,-93.5625,25.650001525878906
1779997169751413000,4.6784130859375,309.63751220703125,-93.58125305175781,25.631250381469727
1779997169797319000,4.72431884765625,309.6750183105469,-93.5625,25.631250381469727
1779997169842920700,4.769920654296875,309.73126220703125,-93.54375457763672,25.61250114440918
1779997169888158200,4.815158203125,309.75,-93.5250015258789,25.61250114440918
1779997169932967400,4.859967529296875,309.84375,-93.48750305175781,25.631250381469727
1779997169977276400,4.9042763671875,321.3937683105469,-96.95625305175781,26.606250762939453
1779997170021004800,4.9480048828125,344.41876220703125,-103.87500762939453,28.51875114440918
1779997170064073700,4.99107373046875,344.5687561035156,-103.89375305175781,28.537500381469727
1779997170106394400,5.033394287109375,344.6812744140625,-103.91250610351562,28.537500381469727
1779997170147875300,5.074875244140625,344.6812744140625,-103.91250610351562,28.51875114440918
1779997170188764000,5.115763916015625,344.60626220703125,-103.9312515258789,28.51875114440918
1779997170267961000,5.194961181640625,344.7375183105469,-103.96875762939453,28.500001907348633
1779997170305705000,5.232705078125,344.7750244140625,-103.96875762939453,28.481250762939453
1779997170376725500,5.3037255859375,344.90625,-103.91250610351562,28.462501525878906
1779997170441194500,5.368194580078125,344.98126220703125,-103.89375305175781,28.481250762939453
1779997170470927000,5.397927001953125,344.9625244140625,-103.9312515258789,28.500001907348633
1779997170498923000,5.425923095703125,344.9437561035156,-103.96875762939453,28.500001907348633
1779997170525128400,5.45212841796875,344.9437561035156,-103.96875762939453,28.51875114440918
1779997170549514200,5.47651416015625,344.8125,-103.96875762939453,28.51875114440918
1779997170572032000,5.499031982421875,344.6625061035156,-103.95000457763672,28.481250762939453
1779997170592686800,5.519686767578125,344.4750061035156,-103.95000457763672,28.500001907348633
1779997170611485200,5.538485107421875,344.53125,-103.9312515258789,28.51875114440918
1779997170628414000,5.5554140625,344.51251220703125,-103.9312515258789,28.556251525878906
1779997170643522800,5.570522705078125,344.3625183105469,-103.95000457763672,28.575000762939453
1779997170656868600,5.58386865234375,344.3062744140625,-103.9312515258789,28.593751907348633
1779997170668490800,5.59549072265625,344.32501220703125,-103.95000457763672,28.593751907348633
1779997170678481700,5.605481689453125,344.3812561035156,-103.95000457763672,28.575000762939453
1779997170693866800,5.62086669921875,344.2875061035156,-103.98750305175781,28.556251525878906
1779997170703816200,5.630816162109375,344.32501220703125,-104.00625610351562,28.575000762939453
1779997170714940700,5.641940673828125,345,-103.9312515258789,28.537500381469727
1779997170726267400,5.653267333984375,344.60626220703125,-103.91250610351562,28.51875114440918
1779997170739593000,5.666593017578125,344.4562683105469,-103.89375305175781,28.537500381469727
1779997170754934000,5.68193408203125,344.4000244140625,-103.9312515258789,28.537500381469727
1779997170772170500,5.69917041015625,344.4937744140625,-103.95000457763672,28.500001907348633
1779997170791281200,5.71828125,344.4000244140625,-103.95000457763672,28.51875114440918
1779997170801501400,5.72850146484375,344.3062744140625,-103.95000457763672,28.51875114440918
1779997170812158500,5.739158447265625,344.2875061035156,-103.95000457763672,28.500001907348633
1779997170823259400,5.75025927734375,344.1937561035156,-103.95000457763672,28.481250762939453
1779997170834777600,5.761777587890625,344.32501220703125,-103.95000457763672,28.443750381469727
1779997170846723800,5.773723876953125,344.41876220703125,-103.96875762939453,28.443750381469727
1779997170861380900,5.788380859375,344.5687561035156,-103.96875762939453,28.443750381469727
1779997170882926000,5.809926025390625,344.51251220703125,-103.98750305175781,28.443750381469727
1779997170907751000,5.8347509765625,344.51251220703125,-104.00625610351562,28.443750381469727
1779997170931004200,5.858004150390625,344.4000244140625,-104.00625610351562,28.462501525878906
1779997170952660500,5.879660400390625,344.4750061035156,-104.00625610351562,28.443750381469727
1779997170973508900,5.9005087890625,344.6625061035156,-104.00625610351562,28.443750381469727
1779997170993406200,5.92040625,344.71875,-104.00625610351562,28.462501525878906
1779997171013103900,5.940103759765625,344.71875,-104.00625610351562,28.500001907348633
1779997171033052700,5.960052734375,344.90625,-104.0250015258789,28.500001907348633
1779997171052900000,5.979900146484375,345.07501220703125,-104.0250015258789,28.500001907348633
1779997171072843300,5.99984326171875,345.16876220703125,-103.98750305175781,28.500001907348633
1779997171092537900,6.019537841796875,345.09375,-103.98750305175781,28.500001907348633
1779997171112619300,6.039619384765625,345.1125183105469,-103.98750305175781,28.500001907348633
1779997171132431600,6.059431640625,345.0375061035156,-103.96875762939453,28.51875114440918
1779997171152340500,6.079340576171875,345,-103.96875762939453,28.51875114440918
1779997171172454400,6.099454345703125,344.8500061035156,-103.96875762939453,28.51875114440918
1779997171192389000,6.11938916015625,345,-103.95000457763672,28.537500381469727
1779997171212357000,6.139357177734375,345.1125183105469,-103.91250610351562,28.556251525878906
1779997171232815900,6.15981591796875,345.2250061035156,-103.9312515258789,28.537500381469727
1779997171252602400,6.179602294921875,345.2250061035156,-103.89375305175781,28.51875114440918
1779997171272450800,6.199450927734375,345.0562744140625,-103.89375305175781,28.51875114440918
1779997171292860000,6.21985986328125,344.9250183105469,-103.87500762939453,28.51875114440918
1779997171312636400,6.239636474609375,344.8687744140625,-103.89375305175781,28.500001907348633
1779997171332460800,6.259460693359375,344.625,-103.89375305175781,28.500001907348633
1779997171352361200,6.279361328125,344.4750061035156,-103.87500762939453,28.462501525878906
1779997171372405500,6.299405517578125,344.4750061035156,-103.89375305175781,28.443750381469727
1779997171392364000,6.319364013671875,344.4000244140625,-103.87500762939453,28.443750381469727
1779997171412342300,6.33934228515625,344.3625183105469,-103.91250610351562,28.443750381469727
1779997171432533800,6.35953369140625,344.41876220703125,-103.9312515258789,28.42500114440918
1779997171452445400,6.379445556640625,344.4375,-103.95000457763672,28.443750381469727
1779997171472648400,6.3996484375,344.5875244140625,-103.95000457763672,28.481250762939453
1779997171492773400,6.4197734375,344.4750061035156,-103.96875762939453,28.462501525878906
1779997171512789000,6.4397890625,344.4937744140625,-103.96875762939453,28.42500114440918
1779997171532528000,6.459528076171875,344.41876220703125,-103.96875762939453,28.406251907348633
1779997171552511200,6.47951123046875,344.3062744140625,-103.98750305175781,28.406251907348633
1779997171572393700,6.499393798828125,344.3625183105469,-104.00625610351562,28.42500114440918
1779997171592341800,6.519341796875,344.1750183105469,-103.98750305175781,28.443750381469727
1779997171612684500,6.5396845703125,344.0250244140625,-103.98750305175781,28.443750381469727
1779997171632528600,6.559528564453125,343.9875183105469,-103.96875762939453,28.443750381469727
1779997171652425500,6.579425537109375,344.0250244140625,-103.98750305175781,28.443750381469727
1779997171672636400,6.599636474609375,344.0812683105469,-104.00625610351562,28.42500114440918
1779997171692491800,6.61949169921875,344.15625,-103.98750305175781,28.42500114440918
1779997171712402000,6.63940185546875,344.15625,-103.96875762939453,28.42500114440918
1779997171732624000,6.659623779296875,344.1187744140625,-103.9312515258789,28.443750381469727
1779997171752674300,6.67967431640625,344.0812683105469,-103.89375305175781,28.443750381469727
1779997171772495000,6.6994951171875,344.0625,-103.91250610351562,28.42500114440918
1779997171792655000,6.719655029296875,344.13751220703125,-103.89375305175781,28.42500114440918
1779997171812688400,6.7396884765625,344.13751220703125,-103.91250610351562,28.443750381469727
1779997171832499200,6.759499267578125,344.25,-103.9312515258789,28.481250762939453
1779997171852384800,6.779384765625,344.15625,-103.91250610351562,28.500001907348633
1779997171872537900,6.799537841796875,344.13751220703125,-103.89375305175781,28.500001907348633
1779997171892689000,6.81968896484375,344.4000244140625,-103.89375305175781,28.51875114440918
1779997171912493000,6.8394931640625,344.60626220703125,-103.91250610351562,28.51875114440918
1779997171932586000,6.8595859375,344.71875,-103.89375305175781,28.51875114440918
1779997171952440600,6.879440673828125,344.7562561035156,-103.89375305175781,28.51875114440918
1779997171972356600,6.899356689453125,344.6625061035156,-103.87500762939453,28.556251525878906
1779997171992325600,6.91932568359375,344.5875244140625,-103.89375305175781,28.575000762939453
1779997172012325600,6.93932568359375,344.4750061035156,-103.91250610351562,28.575000762939453
1779997172032329200,6.9593291015625,344.3812561035156,-103.9312515258789,28.556251525878906
1779997172052339000,6.9793388671875,344.3625183105469,-103.96875762939453,28.51875114440918
1779997172072424700,6.9994248046875,344.32501220703125,-103.96875762939453,28.500001907348633
1779997172092397800,7.019397705078125,344.3625183105469,-103.96875762939453,28.500001907348633
1779997172112411400,7.039411376953125,344.4000244140625,-103.96875762939453,28.481250762939453
1779997172132516600,7.0595166015625,344.34375,-103.96875762939453,28.481250762939453
1779997172152435000,7.07943505859375,344.4750061035156,-103.96875762939453,28.462501525878906
1779997172172652300,7.09965234375,344.51251220703125,-103.98750305175781,28.443750381469727
1779997172192709000,7.119709228515625,344.53125,-103.98750305175781,28.42500114440918
1779997172212716500,7.139716552734375,344.5875244140625,-103.98750305175781,28.406251907348633
1779997172232502800,7.159502685546875,344.6812744140625,-103.96875762939453,28.406251907348633
1779997172252392400,7.179392333984375,344.6812744140625,-103.98750305175781,28.406251907348633
1779997172272596000,7.199595947265625,344.79376220703125,-104.00625610351562,28.42500114440918
1779997172292932600,7.2199326171875,344.8687744140625,-104.00625610351562,28.42500114440918
1779997172312823800,7.23982373046875,345.0375061035156,-104.00625610351562,28.443750381469727
1779997172332517400,7.259517333984375,345.1500244140625,-104.00625610351562,28.443750381469727
1779997172352379400,7.27937939453125,345.1875,-103.98750305175781,28.443750381469727
1779997172372585500,7.29958544921875,345.1312561035156,-103.98750305175781,28.42500114440918
1779997172392461600,7.319461669921875,344.9437561035156,-103.98750305175781,28.443750381469727
1779997172412383000,7.339383056640625,344.79376220703125,-103.96875762939453,28.462501525878906
1779997172432347000,7.359346923828125,344.8687744140625,-103.98750305175781,28.462501525878906
1779997172452340500,7.379340576171875,344.90625,-103.98750305175781,28.462501525878906
1779997172472542200,7.399542236328125,344.8312683105469,-104.00625610351562,28.462501525878906
1779997172492732400,7.419732421875,344.70001220703125,-103.98750305175781,28.462501525878906
1779997172512670200,7.439670166015625,344.625,-103.98750305175781,28.500001907348633
1779997172532685000,7.45968505859375,344.5500183105469,-104.00625610351562,28.481250762939453
1779997172552787500,7.479787353515625,344.5875244140625,-104.0250015258789,28.500001907348633
1779997172572788700,7.499788818359375,344.41876220703125,-104.00625610351562,28.481250762939453
1779997172592524500,7.519524658203125,344.25,-104.00625610351562,28.443750381469727
1779997172612383200,7.53938330078125,344.13751220703125,-104.00625610351562,28.443750381469727
1779997172632519700,7.559519775390625,344.1937561035156,-104.04375457763672,28.443750381469727
1779997172652406000,7.579406005859375,344.23126220703125,-104.06250762939453,28.462501525878906
1779997172672353500,7.599353515625,344.2687683105469,-104.06250762939453,28.481250762939453
1779997172692329500,7.61932958984375,344.32501220703125,-104.08125305175781,28.500001907348633
1779997172712329200,7.6393291015625,344.3812561035156,-104.06250762939453,28.500001907348633
1779997172732341800,7.659341796875,344.32501220703125,-104.06250762939453,28.500001907348633
1779997172752609800,7.67960986328125,344.1937561035156,-104.08125305175781,28.481250762939453
1779997172772509200,7.69950927734375,344.2125244140625,-104.06250762939453,28.462501525878906
1779997172792428500,7.719428466796875,344.1750183105469,-104.06250762939453,28.481250762939453
1779997172812373200,7.739373291015625,344.25,-104.06250762939453,28.462501525878906
1779997172832763000,7.759762939453125,344.2875061035156,-104.04375457763672,28.500001907348633
1779997172852574200,7.77957421875,344.2687683105469,-104.04375457763672,28.500001907348633
1779997172872905000,7.799905029296875,344.2687683105469,-104.06250762939453,28.500001907348633
1779997172892624100,7.8196240234375,344.3625183105469,-104.06250762939453,28.500001907348633
1779997172912441300,7.83944140625,344.625,-104.0250015258789,28.51875114440918
1779997172932349400,7.859349365234375,344.625,-103.98750305175781,28.537500381469727
1779997172952632600,7.879632568359375,344.51251220703125,-103.96875762939453,28.556251525878906
1779997172972472000,7.89947216796875,344.3812561035156,-103.95000457763672,28.556251525878906
1779997172992380700,7.919380615234375,344.3625183105469,-103.95000457763672,28.537500381469727
1779997173012415200,7.939415283203125,344.34375,-103.95000457763672,28.537500381469727
1779997173032367900,7.959367919921875,344.23126220703125,-103.95000457763672,28.51875114440918
1779997173052347000,7.979346923828125,344.2875061035156,-103.95000457763672,28.51875114440918
1779997173072587000,7.9995869140625,344.2687683105469,-103.96875762939453,28.537500381469727
1779997173092750800,8.019750732421874,344.1937561035156,-103.96875762939453,28.537500381469727
1779997173112557300,8.039557373046875,344.0812683105469,-103.96875762939453,28.556251525878906
1779997173132898600,8.059898681640625,344.0250244140625,-103.96875762939453,28.537500381469727
1779997173152651000,8.079651123046874,343.9875183105469,-103.96875762939453,28.51875114440918
1779997173172461000,8.0994609375,344.1937561035156,-103.95000457763672,28.500001907348633
1779997173192619000,8.119618896484376,344.2875061035156,-103.95000457763672,28.500001907348633
1779997173212562200,8.139562255859374,344.0625,-103.96875762939453,28.500001907348633
1779997173232726000,8.15972607421875,343.875,-103.98750305175781,28.500001907348633
1779997173252781600,8.179781494140625,343.875,-103.96875762939453,28.481250762939453
1779997173272737500,8.199737548828125,343.95001220703125,-103.98750305175781,28.462501525878906
1779997173292502800,8.219502685546875,343.96875,-103.95000457763672,28.481250762939453
1779997173312367000,8.2393671875,343.96875,-103.96875762939453,28.462501525878906
1779997173332386600,8.259386474609375,344.04376220703125,-103.96875762939453,28.462501525878906
1779997173352820700,8.27982080078125,344.0812683105469,-103.95000457763672,28.462501525878906
1779997173372783000,8.299783203125,343.9312744140625,-103.95000457763672,28.481250762939453
1779997173392540400,8.31954052734375,344.0250244140625,-103.9312515258789,28.500001907348633
1779997173412394500,8.33939453125,344.0812683105469,-103.95000457763672,28.500001907348633
1779997173432593200,8.35959326171875,344.0812683105469,-103.95000457763672,28.481250762939453
1779997173452963000,8.379963134765624,344.15625,-103.95000457763672,28.481250762939453
1779997173472649500,8.3996494140625,344.1000061035156,-103.95000457763672,28.462501525878906
1779997173492451600,8.41945166015625,344.1000061035156,-103.95000457763672,28.481250762939453
1779997173512617200,8.4396171875,344.1937561035156,-103.95000457763672,28.500001907348633
1779997173532722200,8.45972216796875,344.32501220703125,-103.95000457763672,28.481250762939453
1779997173552732000,8.47973193359375,344.51251220703125,-103.96875762939453,28.481250762939453
1779997173573086500,8.50008642578125,344.51251220703125,-103.95000457763672,28.481250762939453
1779997173592696000,8.519696044921876,344.5875244140625,-103.96875762939453,28.481250762939453
1779997173612916000,8.539916015625,344.60626220703125,-103.96875762939453,28.481250762939453
1779997173633046500,8.560046630859375,344.4750061035156,-103.96875762939453,28.500001907348633
1779997173652836600,8.579836669921875,344.5687561035156,-103.95000457763672,28.51875114440918
1779997173672776700,8.599776611328124,344.70001220703125,-103.95000457763672,28.481250762939453
1779997173692690400,8.6196904296875,344.6812744140625,-103.96875762939453,28.462501525878906
1779997173712645600,8.639645751953125,344.5875244140625,-103.96875762939453,28.443750381469727
1779997173732429600,8.6594296875,344.5500183105469,-103.95000457763672,28.462501525878906
1779997173752320300,8.6793203125,344.4000244140625,-103.9312515258789,28.462501525878906
1779997173772444000,8.69944384765625,344.15625,-103.9312515258789,28.481250762939453
1779997173792383000,8.719383056640625,344.0250244140625,-103.95000457763672,28.500001907348633
1779997173812347100,8.73934716796875,343.9125061035156,-103.9312515258789,28.481250762939453
1779997173832859000,8.75985888671875,343.9125061035156,-103.95000457763672,28.481250762939453
1779997173852622300,8.779622314453125,343.7437744140625,-103.96875762939453,28.481250762939453
1779997173872657700,8.79965771484375,343.7250061035156,-103.96875762939453,28.481250762939453
1779997173892476700,8.8194765625,343.6500244140625,-103.96875762939453,28.481250762939453
1779997173912371000,8.839370849609375,343.6875,-103.95000457763672,28.481250762939453
1779997173932327700,8.85932763671875,343.76251220703125,-103.96875762939453,28.481250762939453
1779997173952322800,8.87932275390625,343.5187683105469,-103.98750305175781,28.481250762939453
1779997173972442000,8.899442138671875,343.6125183105469,-103.98750305175781,28.500001907348633
1779997173992597500,8.919597412109376,343.66876220703125,-103.96875762939453,28.500001907348633
1779997174012826400,8.939826416015626,343.7250061035156,-103.98750305175781,28.500001907348633
1779997174032833000,8.9598330078125,343.6312561035156,-103.96875762939453,28.481250762939453
1779997174052557800,8.979557861328125,343.6500244140625,-103.96875762939453,28.500001907348633
1779997174072401200,8.999401123046875,343.6875,-103.98750305175781,28.51875114440918
1779997174092322600,9.019322509765624,343.59375,-103.96875762939453,28.500001907348633
1779997174112311800,9.039311767578125,343.7062683105469,-103.98750305175781,28.500001907348633
1779997174132579300,9.059579345703124,343.7062683105469,-103.95000457763672,28.481250762939453
1779997174152890600,9.079890625,343.875,-103.9312515258789,28.500001907348633
1779997174172863700,9.09986376953125,344.0812683105469,-103.95000457763672,28.500001907348633
1779997174192851500,9.1198515625,344.0812683105469,-103.96875762939453,28.481250762939453
1779997174213035300,9.14003515625,344.04376220703125,-103.96875762939453,28.481250762939453
1779997174232657700,9.15965771484375,344.1750183105469,-103.98750305175781,28.462501525878906
1779997174252426200,9.17942626953125,344.32501220703125,-103.98750305175781,28.462501525878906
1779997174272582000,9.199581787109375,344.2875061035156,-103.96875762939453,28.42500114440918
1779997174292437000,9.21943701171875,344.4375,-103.96875762939453,28.42500114440918
1779997174312556800,9.239556884765625,344.5687561035156,-103.95000457763672,28.443750381469727
1779997174332637700,9.2596376953125,344.6812744140625,-103.95000457763672,28.481250762939453
1779997174352466000,9.2794658203125,344.5687561035156,-103.98750305175781,28.462501525878906
1779997174372566500,9.29956640625,344.5875244140625,-103.98750305175781,28.42500114440918
1779997174392435000,9.31943505859375,344.7750244140625,-103.96875762939453,28.443750381469727
1779997174412562700,9.339562744140625,344.6625061035156,-103.96875762939453,28.443750381469727
1779997174432433400,9.359433349609375,344.5875244140625,-104.00625610351562,28.42500114440918
1779997174452367400,9.379367431640626,344.4937744140625,-104.00625610351562,28.443750381469727
1779997174472407000,9.399406982421874,344.3625183105469,-104.00625610351562,28.443750381469727
1779997174492370400,9.419370361328125,344.4000244140625,-103.98750305175781,28.462501525878906
1779997174512559000,9.43955908203125,344.4750061035156,-103.96875762939453,28.462501525878906
1779997174532650500,9.459650390625,344.3812561035156,-103.96875762939453,28.481250762939453
1779997174552494600,9.47949462890625,344.2687683105469,-103.96875762939453,28.462501525878906
1779997174572395000,9.49939501953125,344.1937561035156,-103.98750305175781,28.481250762939453
1779997174592849400,9.519849365234375,344.13751220703125,-103.98750305175781,28.481250762939453
1779997174612588000,9.539588134765625,343.96875,-104.00625610351562,28.481250762939453
1779997174632636700,9.55963671875,343.9312744140625,-104.0250015258789,28.443750381469727
1779997174652946000,9.57994580078125,344.1750183105469,-104.0250015258789,28.443750381469727
1779997174673011200,9.60001123046875,344.34375,-104.0250015258789,28.42500114440918
1779997174692905200,9.6199052734375,344.2125244140625,-104.04375457763672,28.406251907348633
1779997174712835800,9.6398359375,344.3062744140625,-104.04375457763672,28.387500762939453
1779997174732697000,9.659697021484375,344.5687561035156,-104.04375457763672,28.387500762939453
1779997174752448300,9.6794482421875,344.5687561035156,-104.04375457763672,28.368751525878906
1779997174772591600,9.699591552734375,344.4562683105469,-104.0250015258789,28.350000381469727
1779997174792439000,9.71943896484375,344.4937744140625,-104.04375457763672,28.33125114440918
1779997174812352800,9.739352783203126,344.4375,-104.04375457763672,28.33125114440918
1779997174832522500,9.7595224609375,344.51251220703125,-104.04375457763672,28.312501907348633
1779997174852471800,9.779471923828124,344.5500183105469,-104.04375457763672,28.312501907348633
1779997174872387800,9.799387939453124,344.625,-104.0250015258789,28.293750762939453
1779997174892358400,9.8193583984375,344.4750061035156,-104.0250015258789,28.293750762939453
1779997174912572700,9.83957275390625,344.60626220703125,-104.0250015258789,28.312501907348633
1779997174932472000,9.85947216796875,344.7562561035156,-104.00625610351562,28.312501907348633
1779997174952660500,9.879660400390625,344.71875,-103.98750305175781,28.312501907348633
1779997174973017900,9.900017822265625,344.79376220703125,-103.96875762939453,28.33125114440918
1779997174992683300,9.919683349609375,344.90625,-103.96875762939453,28.312501907348633
1779997175012736000,9.939736083984375,344.7562561035156,-103.96875762939453,28.33125114440918
1779997175032968200,9.95996826171875,344.5500183105469,-103.95000457763672,28.33125114440918
1779997175052773000,9.979773193359375,344.4562683105469,-103.91250610351562,28.350000381469727
1779997175072963300,9.99996337890625,344.51251220703125,-103.9312515258789,28.368751525878906
1779997175092859100,10.019859130859375,344.60626220703125,-103.9312515258789,28.350000381469727
1779997175112733700,10.039733642578126,344.7750244140625,-103.91250610351562,28.350000381469727
1779997175132931800,10.059931884765625,344.70001220703125,-103.89375305175781,28.350000381469727
1779997175153040400,10.080040283203125,344.7375183105469,-103.87500762939453,28.368751525878906
1779997175172871400,10.099871337890624,344.7562561035156,-103.87500762939453,28.387500762939453
1779997175192520400,10.1195205078125,344.79376220703125,-103.8375015258789,28.387500762939453
1779997175212341200,10.13934130859375,344.79376220703125,-103.81875610351562,28.368751525878906
1779997175232565000,10.15956494140625,344.8312683105469,-103.78125762939453,28.406251907348633
1779997175252417800,10.179417724609374,344.9437561035156,-103.78125762939453,28.406251907348633
1779997175272345600,10.199345703125,344.9250183105469,-103.76250457763672,28.42500114440918
1779997175292325000,10.2193251953125,344.8500061035156,-103.76250457763672,28.462501525878906
1779997175312583400,10.23958349609375,344.9250183105469,-103.7437515258789,28.481250762939453
1779997175332677600,10.259677734375,344.98126220703125,-103.7437515258789,28.500001907348633
1779997175352771000,10.27977099609375,345.07501220703125,-103.76250457763672,28.481250762939453
1779997175372851000,10.299850830078125,345.07501220703125,-103.72500610351562,28.481250762939453
1779997175392575700,10.31957568359375,344.98126220703125,-103.70625305175781,28.51875114440918
1779997175412678000,10.339677978515626,344.9250183105469,-103.70625305175781,28.51875114440918
1779997175432636000,10.359635986328126,344.8500061035156,-103.68750762939453,28.537500381469727
1779997175452456400,10.37945654296875,344.8687744140625,-103.70625305175781,28.556251525878906
1779997175472355800,10.39935595703125,344.7562561035156,-103.72500610351562,28.575000762939453
1779997175492532200,10.4195322265625,344.7562561035156,-103.72500610351562,28.575000762939453
1779997175512425700,10.43942578125,344.60626220703125,-103.72500610351562,28.575000762939453
1779997175532361200,10.459361328125,344.5500183105469,-103.7437515258789,28.575000762939453
1779997175552404200,10.479404296875,344.4750061035156,-103.76250457763672,28.556251525878906
1779997175572637400,10.499637451171875,344.34375,-103.76250457763672,28.575000762939453
1779997175592974600,10.519974609375,344.3812561035156,-103.76250457763672,28.575000762939453
1779997175613135600,10.540135498046874,344.1937561035156,-103.76250457763672,28.575000762939453
1779997175632978000,10.55997802734375,344.04376220703125,-103.76250457763672,28.575000762939453
1779997175652861700,10.57986181640625,344.04376220703125,-103.78125762939453,28.593751907348633
1779997175672999200,10.599999267578125,344.1187744140625,-103.80000305175781,28.631250381469727
1779997175692610000,10.619610107421876,344.13751220703125,-103.80000305175781,28.650001525878906
1779997175712859000,10.63985888671875,343.9875183105469,-103.80000305175781,28.650001525878906
1779997175733039600,10.66003955078125,343.9875183105469,-103.80000305175781,28.668750762939453
1779997175752638200,10.67963818359375,343.95001220703125,-103.81875610351562,28.650001525878906
1779997175772407600,10.699407470703125,343.9875183105469,-103.81875610351562,28.650001525878906
1779997175792307000,10.719306884765626,344.0250244140625,-103.8375015258789,28.650001525878906
1779997175812382500,10.739382568359375,344.0812683105469,-103.85625457763672,28.668750762939453
1779997175832349200,10.75934912109375,344.0062561035156,-103.85625457763672,28.687501907348633
1779997175852335000,10.779335205078125,343.875,-103.85625457763672,28.687501907348633
1779997175872541200,10.799541259765626,343.8937683105469,-103.87500762939453,28.687501907348633
1779997175892705500,10.81970556640625,343.9312744140625,-103.87500762939453,28.70625114440918
1779997175912530700,10.83953076171875,344.0625,-103.87500762939453,28.70625114440918
1779997175932622000,10.8596220703125,344.1750183105469,-103.87500762939453,28.687501907348633
1779997175952729900,10.879729736328125,344.1750183105469,-103.87500762939453,28.70625114440918
1779997175972520400,10.8995205078125,344.04376220703125,-103.87500762939453,28.687501907348633
1779997175992397300,10.919397216796876,343.9125061035156,-103.85625457763672,28.687501907348633
1779997176012606700,10.939606689453125,343.9312744140625,-103.85625457763672,28.70625114440918
1779997176032468000,10.959468017578125,344.1000061035156,-103.85625457763672,28.725000381469727
1779997176052649500,10.9796494140625,344.1187744140625,-103.87500762939453,28.725000381469727
1779997176072498400,10.99949853515625,344.0812683105469,-103.87500762939453,28.70625114440918
1779997176092405000,11.019405029296875,344.1187744140625,-103.87500762939453,28.70625114440918
1779997176112362000,11.039362060546875,344.1750183105469,-103.87500762939453,28.70625114440918
1779997176132370400,11.059370361328124,344.1750183105469,-103.89375305175781,28.70625114440918
1779997176152353800,11.079353759765626,344.1187744140625,-103.91250610351562,28.70625114440918
1779997176172360000,11.09935986328125,344.0062561035156,-103.91250610351562,28.70625114440918
1779997176192354600,11.1193544921875,344.0250244140625,-103.91250610351562,28.687501907348633
1779997176212821200,11.1398212890625,344.13751220703125,-103.9312515258789,28.687501907348633
1779997176233076000,11.160075927734376,344.1000061035156,-103.9312515258789,28.687501907348633
1779997176252986600,11.179986572265625,344.13751220703125,-103.9312515258789,28.668750762939453
1779997176272876300,11.199876220703125,344.2687683105469,-103.95000457763672,28.687501907348633
1779997176292814600,11.219814697265624,344.34375,-103.96875762939453,28.687501907348633
1779997176312722200,11.23972216796875,344.34375,-103.96875762939453,28.687501907348633
1779997176332732200,11.259732177734374,344.3812561035156,-104.00625610351562,28.650001525878906
1779997176352733700,11.279733642578124,344.4750061035156,-104.00625610351562,28.650001525878906
1779997176372660000,11.299659912109375,344.4750061035156,-104.0250015258789,28.650001525878906
1779997176392415700,11.319415771484374,344.51251220703125,-104.00625610351562,28.668750762939453
1779997176412328000,11.339327880859376,344.53125,-104.00625610351562,28.668750762939453
1779997176432547600,11.359547607421876,344.5875244140625,-104.00625610351562,28.668750762939453
1779997176452434200,11.37943408203125,344.7562561035156,-104.00625610351562,28.668750762939453
1779997176472365000,11.399364990234375,344.79376220703125,-104.00625610351562,28.668750762939453
1779997176492815000,11.419815185546875,344.79376220703125,-104.00625610351562,28.668750762939453
1779997176512604200,11.439604248046875,344.6437683105469,-104.00625610351562,28.650001525878906
1779997176532648700,11.459648681640624,344.71875,-104.00625610351562,28.650001525878906
1779997176552726300,11.479726318359376,344.5687561035156,-103.98750305175781,28.631250381469727
1779997176572633300,11.49963330078125,344.4375,-104.00625610351562,28.61250114440918
1779997176592450300,11.5194501953125,344.4937744140625,-104.00625610351562,28.61250114440918
1779997176612360000,11.53935986328125,344.5500183105469,-104.00625610351562,28.593751907348633
1779997176632523500,11.5595234375,344.4937744140625,-103.98750305175781,28.575000762939453
1779997176652612000,11.579612060546875,344.4750061035156,-103.96875762939453,28.575000762939453
1779997176672929800,11.5999296875,344.5500183105469,-103.96875762939453,28.575000762939453
1779997176692863700,11.61986376953125,344.5875244140625,-103.96875762939453,28.593751907348633
1779997176712822300,11.639822265625,344.53125,-103.96875762939453,28.556251525878906
1779997176732802300,11.65980224609375,344.4562683105469,-103.96875762939453,28.575000762939453
1779997176752932600,11.6799326171875,344.4750061035156,-103.96875762939453,28.556251525878906
1779997176772573200,11.6995732421875,344.5687561035156,-103.96875762939453,28.556251525878906
1779997176792389000,11.71938916015625,344.5687561035156,-103.96875762939453,28.556251525878906
1779997176812566500,11.73956640625,344.5687561035156,-103.95000457763672,28.575000762939453
1779997176832440300,11.7594404296875,344.6437683105469,-103.95000457763672,28.593751907348633
1779997176852366300,11.779366455078126,344.7750244140625,-103.95000457763672,28.61250114440918
1779997176872602400,11.799602294921876,344.8500061035156,-103.96875762939453,28.61250114440918
1779997176892485600,11.819485595703124,344.90625,-103.95000457763672,28.631250381469727
1779997176912404000,11.839404052734375,344.90625,-103.96875762939453,28.631250381469727
1779997176932361000,11.85936083984375,344.8312683105469,-103.96875762939453,28.668750762939453
1779997176952348200,11.87934814453125,344.70001220703125,-103.96875762939453,28.687501907348633
1779997176972341500,11.899341552734375,344.625,-103.96875762939453,28.687501907348633
1779997176992344800,11.9193447265625,344.5687561035156,-103.95000457763672,28.70625114440918
1779997177012354000,11.93935400390625,344.53125,-103.96875762939453,28.70625114440918
1779997177032820000,11.959820068359376,344.51251220703125,-103.96875762939453,28.687501907348633
1779997177052605000,11.97960498046875,344.3812561035156,-103.95000457763672,28.70625114440918
1779997177072814300,11.999814453125,344.2875061035156,-103.96875762939453,28.687501907348633
1779997177092557800,12.019557861328124,344.2687683105469,-103.96875762939453,28.687501907348633
1779997177112405500,12.039405517578125,344.41876220703125,-103.95000457763672,28.687501907348633
1779997177132538400,12.059538330078125,344.2875061035156,-103.96875762939453,28.668750762939453
1779997177152418000,12.07941796875,344.0812683105469,-103.96875762939453,28.668750762939453
1779997177172360400,12.0993603515625,343.9312744140625,-103.95000457763672,28.668750762939453
1779997177192889000,12.11988916015625,343.8187561035156,-103.95000457763672,28.650001525878906
1779997177212655900,12.13965576171875,343.7437744140625,-103.95000457763672,28.650001525878906
1779997177232941600,12.159941650390625,343.8937683105469,-103.95000457763672,28.668750762939453
1779997177253140500,12.180140380859376,344.1187744140625,-103.95000457763672,28.650001525878906
1779997177272769000,12.19976904296875,344.1187744140625,-103.96875762939453,28.650001525878906
1779997177292480000,12.21947998046875,344.15625,-103.98750305175781,28.61250114440918
1779997177312328400,12.239328369140624,344.1937561035156,-103.98750305175781,28.61250114440918
1779997177332470300,12.25947021484375,344.1187744140625,-103.98750305175781,28.593751907348633
1779997177352377000,12.279377197265624,344.2125244140625,-104.00625610351562,28.575000762939453
1779997177372337700,12.299337646484375,344.25,-103.98750305175781,28.575000762939453
1779997177392333300,12.319333251953125,344.3062744140625,-104.00625610351562,28.556251525878906
1779997177412333800,12.339333740234375,344.32501220703125,-104.0250015258789,28.556251525878906
1779997177432808700,12.35980859375,344.41876220703125,-104.0250015258789,28.537500381469727
1779997177452997400,12.379997314453124,344.625,-104.0250015258789,28.537500381469727
1779997177472663600,12.39966357421875,344.8500061035156,-104.04375457763672,28.537500381469727
1779997177492454400,12.419454345703125,344.8687744140625,-104.04375457763672,28.537500381469727
1779997177512615200,12.439615234375,344.8312683105469,-104.04375457763672,28.51875114440918
1779997177532455200,12.459455078125,344.70001220703125,-104.06250762939453,28.481250762939453
1779997177552378600,12.479378662109376,344.5875244140625,-104.06250762939453,28.481250762939453
1779997177572395000,12.49939501953125,344.51251220703125,-104.06250762939453,28.481250762939453
1779997177592363300,12.51936328125,344.4562683105469,-104.0250015258789,28.481250762939453
1779997177612608000,12.53960791015625,344.4937744140625,-104.04375457763672,28.481250762939453
1779997177632755200,12.559755126953124,344.7562561035156,-104.04375457763672,28.481250762939453
1779997177652643000,12.57964306640625,344.8312683105469,-104.04375457763672,28.500001907348633
1779997177672945400,12.5999453125,344.88751220703125,-104.04375457763672,28.51875114440918
1779997177693094100,12.62009423828125,344.8125,-104.04375457763672,28.537500381469727
1779997177712887000,12.639886962890625,344.7375183105469,-104.0250015258789,28.51875114440918
1779997177733033500,12.660033447265626,344.6625061035156,-104.00625610351562,28.537500381469727
1779997177752881700,12.679881591796875,344.7375183105469,-104.00625610351562,28.575000762939453
1779997177772737800,12.69973779296875,344.6812744140625,-104.0250015258789,28.593751907348633
1779997177792695300,12.7196953125,344.71875,-103.98750305175781,28.593751907348633
1779997177812699000,12.739698974609375,344.8312683105469,-103.98750305175781,28.61250114440918
1779997177832851700,12.759851806640626,344.90625,-103.98750305175781,28.631250381469727
1779997177852810200,12.779810302734376,344.8500061035156,-104.00625610351562,28.61250114440918
1779997177872782800,12.799782958984375,344.8687744140625,-104.00625610351562,28.61250114440918
1779997177892784400,12.819784423828125,344.8500061035156,-104.0250015258789,28.593751907348633
1779997177912520700,12.839520751953126,344.9250183105469,-104.0250015258789,28.593751907348633
1779997177932842000,12.859842041015625,344.6625061035156,-103.98750305175781,28.593751907348633
1779997177952831700,12.879831787109374,344.4375,-103.98750305175781,28.61250114440918
1779997177972549000,12.899549072265625,344.4000244140625,-103.98750305175781,28.61250114440918
1779997177992389600,12.9193896484375,344.5687561035156,-104.00625610351562,28.593751907348633
1779997178012335000,12.939335205078125,344.7375183105469,-104.00625610351562,28.575000762939453
1779997178032423200,12.959423095703125,344.6437683105469,-104.00625610351562,28.575000762939453
1779997178052367600,12.97936767578125,344.6437683105469,-103.98750305175781,28.556251525878906
1779997178072611000,12.999611083984375,344.7562561035156,-103.98750305175781,28.537500381469727
1779997178092492500,13.019492431640625,344.8125,-104.00625610351562,28.51875114440918
1779997178112417000,13.0394169921875,344.6625061035156,-103.98750305175781,28.500001907348633
1779997178132632800,13.0596328125,344.625,-103.98750305175781,28.500001907348633
1779997178152708600,13.07970849609375,344.6812744140625,-103.98750305175781,28.500001907348633
1779997178172519400,13.09951953125,344.625,-103.98750305175781,28.481250762939453
1779997178192399000,13.119399169921875,344.625,-103.96875762939453,28.500001907348633
1779997178212527600,13.139527587890624,344.32501220703125,-103.96875762939453,28.481250762939453
1779997178232705000,13.159705078125,344.23126220703125,-103.96875762939453,28.481250762939453
1779997178252524500,13.179524658203125,344.41876220703125,-103.95000457763672,28.481250762939453
1779997178272934100,13.19993408203125,344.4750061035156,-103.96875762939453,28.462501525878906
1779997178292899300,13.2198994140625,344.34375,-103.95000457763672,28.462501525878906
1779997178312588800,13.2395888671875,344.2875061035156,-103.95000457763672,28.462501525878906
1779997178332671200,13.259671142578124,344.3812561035156,-103.95000457763672,28.462501525878906
1779997178352478000,13.27947802734375,344.25,-103.95000457763672,28.481250762939453
1779997178372626200,13.299626220703125,344.1000061035156,-103.95000457763672,28.481250762939453
1779997178392473900,13.319473876953126,344.04376220703125,-103.95000457763672,28.462501525878906
1779997178412471800,13.339471923828125,344.23126220703125,-103.95000457763672,28.481250762939453
1779997178432383200,13.35938330078125,344.23126220703125,-103.9312515258789,28.481250762939453
1779997178452346400,13.379346435546875,344.15625,-103.91250610351562,28.481250762939453
1779997178472534000,13.399533935546875,344.32501220703125,-103.89375305175781,28.500001907348633
1779997178492434400,13.419434326171874,344.25,-103.87500762939453,28.481250762939453
1779997178512379600,13.439379638671875,344.3812561035156,-103.87500762939453,28.462501525878906
1779997178532550100,13.459550048828126,344.625,-103.87500762939453,28.462501525878906
1779997178552451000,13.479451171875,344.5875244140625,-103.89375305175781,28.443750381469727
1779997178572385800,13.4993857421875,344.53125,-103.89375305175781,28.462501525878906
1779997178592347100,13.51934716796875,344.5500183105469,-103.87500762939453,28.462501525878906
1779997178612345900,13.539345947265625,344.5875244140625,-103.87500762939453,28.481250762939453
1779997178632608800,13.55960888671875,344.4937744140625,-103.89375305175781,28.481250762939453
1779997178652956000,13.579955810546876,344.51251220703125,-103.87500762939453,28.462501525878906
1779997178672669700,13.599669677734376,344.5875244140625,-103.87500762939453,28.443750381469727
1779997178692472300,13.619472412109374,344.5500183105469,-103.85625457763672,28.443750381469727
1779997178712709000,13.639709228515626,344.53125,-103.85625457763672,28.443750381469727
1779997178732540400,13.65954052734375,344.4937744140625,-103.87500762939453,28.462501525878906
1779997178752408600,13.67940869140625,344.51251220703125,-103.87500762939453,28.462501525878906
1779997178772721000,13.699720947265625,344.53125,-103.87500762939453,28.462501525878906
1779997178792688400,13.7196884765625,344.5875244140625,-103.87500762939453,28.462501525878906
1779997178812489200,13.7394892578125,344.6812744140625,-103.87500762939453,28.443750381469727
1779997178832377000,13.759377197265625,344.625,-103.87500762939453,28.462501525878906
1779997178852618200,13.7796181640625,344.625,-103.85625457763672,28.462501525878906
1779997178872720600,13.799720703125,344.6437683105469,-103.85625457763672,28.462501525878906
1779997178892778800,13.81977880859375,344.6812744140625,-103.87500762939453,28.462501525878906
1779997178912746800,13.839746826171876,344.5500183105469,-103.89375305175781,28.443750381469727
1779997178932507000,13.8595068359375,344.6437683105469,-103.91250610351562,28.462501525878906
1779997178952378400,13.87937841796875,344.5687561035156,-103.9312515258789,28.462501525878906
1779997178972536800,13.899536865234374,344.4375,-103.95000457763672,28.481250762939453
1779997178992429000,13.919428955078125,344.41876220703125,-103.96875762939453,28.481250762939453
1779997179012636000,13.939635986328126,344.3062744140625,-103.96875762939453,28.462501525878906
1779997179032691000,13.95969091796875,344.3625183105469,-103.96875762939453,28.481250762939453
1779997179052499000,13.9794990234375,344.4375,-103.96875762939453,28.462501525878906
1779997179072654600,13.999654541015625,344.3812561035156,-103.98750305175781,28.462501525878906
1779997179092947700,14.01994775390625,344.41876220703125,-103.98750305175781,28.481250762939453
1779997179113065000,14.04006494140625,344.4375,-103.98750305175781,28.500001907348633
1779997179132679200,14.05967919921875,344.53125,-103.98750305175781,28.500001907348633
1779997179152446000,14.079446044921875,344.4937744140625,-104.00625610351562,28.500001907348633
1779997179172514000,14.09951416015625,344.32501220703125,-104.0250015258789,28.500001907348633
1779997179192383500,14.119383544921876,344.2125244140625,-104.0250015258789,28.481250762939453
1779997179212326700,14.13932666015625,344.1750183105469,-103.98750305175781,28.462501525878906
1779997179232542700,14.159542724609375,344.1000061035156,-103.98750305175781,28.42500114440918
1779997179252899300,14.1798994140625,344.13751220703125,-103.96875762939453,28.443750381469727
1779997179273087000,14.2000869140625,344.32501220703125,-103.95000457763672,28.443750381469727
1779997179292696300,14.2196962890625,344.3812561035156,-103.9312515258789,28.462501525878906
1779997179312713700,14.239713623046875,344.4562683105469,-103.95000457763672,28.481250762939453
1779997179332942800,14.25994287109375,344.4000244140625,-103.95000457763672,28.51875114440918
1779997179353059800,14.280059814453125,344.4937744140625,-103.95000457763672,28.51875114440918
1779997179372654000,14.299654052734375,344.51251220703125,-103.95000457763672,28.51875114440918
1779997179392422700,14.319422607421876,344.5875244140625,-103.95000457763672,28.51875114440918
1779997179412310500,14.339310546875,344.5500183105469,-103.95000457763672,28.51875114440918
1779997179432280300,14.3592802734375,344.41876220703125,-103.96875762939453,28.500001907348633
1779997179452556500,14.379556640625,344.5500183105469,-103.96875762939453,28.500001907348633
1779997179472721700,14.3997216796875,344.71875,-103.96875762939453,28.51875114440918
1779997179492542500,14.41954248046875,344.7562561035156,-103.95000457763672,28.537500381469727
1779997179512428500,14.439428466796874,344.79376220703125,-103.96875762939453,28.556251525878906
1779997179532624100,14.4596240234375,344.8125,-103.96875762939453,28.556251525878906
1779997179552695800,14.47969580078125,344.7375183105469,-103.96875762939453,28.575000762939453
1779997179572505600,14.499505615234375,344.5687561035156,-103.96875762939453,28.593751907348633
1779997179592388000,14.51938818359375,344.625,-103.96875762939453,28.593751907348633
1779997179612593000,14.539593017578126,344.5500183105469,-103.95000457763672,28.556251525878906
1779997179632454700,14.55945458984375,344.5500183105469,-103.95000457763672,28.51875114440918
1779997179652632800,14.5796328125,344.4562683105469,-103.9312515258789,28.500001907348633
1779997179672851200,14.599851318359375,344.4562683105469,-103.9312515258789,28.481250762939453
1779997179692583000,14.6195830078125,344.2875061035156,-103.9312515258789,28.500001907348633
1779997179712420900,14.6394208984375,344.3062744140625,-103.9312515258789,28.500001907348633
1779997179732811500,14.6598115234375,344.3062744140625,-103.91250610351562,28.51875114440918
1779997179752572200,14.679572265625,344.15625,-103.9312515258789,28.537500381469727
1779997179772884200,14.69988427734375,344.15625,-103.9312515258789,28.537500381469727
1779997179792648700,14.719648681640624,344.25,-103.91250610351562,28.537500381469727
1779997179812803000,14.739802978515625,344.2687683105469,-103.91250610351562,28.537500381469727
1779997179832741400,14.759741455078125,344.32501220703125,-103.91250610351562,28.537500381469727
1779997179853015300,14.780015380859375,344.51251220703125,-103.91250610351562,28.51875114440918
1779997179872836600,14.799836669921875,344.4937744140625,-103.89375305175781,28.51875114440918
1779997179892980000,14.81997998046875,344.41876220703125,-103.91250610351562,28.500001907348633
1779997179912872700,14.839872802734375,344.41876220703125,-103.91250610351562,28.500001907348633
1779997179932735500,14.859735595703125,344.4000244140625,-103.91250610351562,28.500001907348633
1779997179952931300,14.879931396484375,344.1937561035156,-103.9312515258789,28.500001907348633
1779997179973041200,14.900041259765626,344.0812683105469,-103.9312515258789,28.51875114440918
1779997179992830700,14.919830810546875,344.0062561035156,-103.9312515258789,28.51875114440918
1779997180013002000,14.940001953125,343.9875183105469,-103.9312515258789,28.537500381469727
1779997180032797400,14.95979736328125,343.96875,-103.9312515258789,28.556251525878906
1779997180052615000,14.979614990234374,343.96875,-103.91250610351562,28.556251525878906
1779997180072400000,14.99939990234375,343.95001220703125,-103.91250610351562,28.556251525878906
1779997180092306700,15.019306640625,344.04376220703125,-103.91250610351562,28.556251525878906
1779997180112552000,15.039552001953124,343.96875,-103.91250610351562,28.537500381469727
1779997180132707600,15.05970751953125,343.76251220703125,-103.91250610351562,28.537500381469727
1779997180152723200,15.07972314453125,343.6312561035156,-103.9312515258789,28.51875114440918
1779997180172994300,15.099994384765624,343.7062683105469,-103.9312515258789,28.51875114440918
1779997180192646400,15.119646484375,343.7062683105469,-103.9312515258789,28.51875114440918
1779997180212436700,15.139436767578125,343.6875,-103.95000457763672,28.537500381469727
1779997180232601900,15.159601806640625,343.6500244140625,-103.9312515258789,28.51875114440918
1779997180252572000,15.179572021484375,343.8375244140625,-103.91250610351562,28.51875114440918
1779997180272893000,15.199892822265625,343.9312744140625,-103.9312515258789,28.51875114440918
1779997180292604200,15.219604248046876,344.0812683105469,-103.9312515258789,28.500001907348633
1779997180312625200,15.239625244140624,344.0812683105469,-103.9312515258789,28.500001907348633
1779997180332447000,15.259447021484375,344.3062744140625,-103.95000457763672,28.481250762939453
1779997180352350000,15.279349853515624,344.4000244140625,-103.95000457763672,28.443750381469727
1779997180372523800,15.299523681640625,344.51251220703125,-103.95000457763672,28.42500114440918
1779997180392947500,15.319947509765624,344.4937744140625,-103.95000457763672,28.443750381469727
1779997180412640500,15.339640625,344.53125,-103.95000457763672,28.462501525878906
1779997180432651800,15.35965185546875,344.7375183105469,-103.9312515258789,28.462501525878906
1779997180452457200,15.379457275390624,344.8312683105469,-103.91250610351562,28.481250762939453
1779997180472349200,15.39934912109375,344.88751220703125,-103.91250610351562,28.462501525878906
1779997180492777000,15.41977685546875,344.9437561035156,-103.91250610351562,28.462501525878906
1779997180512561700,15.439561767578125,344.8687744140625,-103.9312515258789,28.481250762939453
1779997180532620800,15.459620849609376,344.79376220703125,-103.9312515258789,28.500001907348633
1779997180552926200,15.47992626953125,344.8312683105469,-103.95000457763672,28.51875114440918
1779997180572628700,15.499628662109375,344.9437561035156,-103.9312515258789,28.51875114440918
1779997180592436500,15.5194365234375,344.9250183105469,-103.9312515258789,28.500001907348633
1779997180612346000,15.53934619140625,345,-103.9312515258789,28.481250762939453
1779997180632410000,15.55941015625,344.7750244140625,-103.89375305175781,28.481250762939453
1779997180652349400,15.579349365234375,344.79376220703125,-103.91250610351562,28.51875114440918
1779997180672595500,15.599595458984375,344.70001220703125,-103.91250610351562,28.500001907348633
1779997180692467000,15.619467041015625,344.60626220703125,-103.9312515258789,28.500001907348633
1779997180712856300,15.639856201171876,344.60626220703125,-103.9312515258789,28.462501525878906
1779997180732869000,15.659869140625,344.5687561035156,-103.95000457763672,28.462501525878906
1779997180752815600,15.679815673828125,344.5687561035156,-103.95000457763672,28.481250762939453
1779997180772797400,15.69979736328125,344.5875244140625,-103.95000457763672,28.500001907348633
1779997180792994600,15.71999462890625,344.625,-103.96875762939453,28.481250762939453
1779997180813031700,15.74003173828125,344.7750244140625,-103.95000457763672,28.462501525878906
1779997180832610300,15.7596103515625,344.9437561035156,-103.9312515258789,28.462501525878906
1779997180852655600,15.779655517578124,344.8500061035156,-103.9312515258789,28.462501525878906
1779997180872702500,15.799702392578125,344.6625061035156,-103.9312515258789,28.462501525878906
1779997180892735000,15.81973486328125,344.60626220703125,-103.9312515258789,28.462501525878906
1779997180912506400,15.83950634765625,344.4750061035156,-103.95000457763672,28.462501525878906
1779997180932582100,15.85958203125,344.4562683105469,-103.96875762939453,28.462501525878906
1779997180952430300,15.879430419921874,344.3812561035156,-103.95000457763672,28.443750381469727
1779997180972550000,15.8995498046875,344.4000244140625,-103.95000457763672,28.462501525878906
1779997180992654300,15.919654296875,344.34375,-103.95000457763672,28.481250762939453
1779997181012635000,15.939634765625,344.3625183105469,-103.95000457763672,28.481250762939453
1779997181032449500,15.959449462890625,344.4000244140625,-103.96875762939453,28.462501525878906
1779997181052353000,15.97935302734375,344.25,-103.96875762939453,28.443750381469727
1779997181072534800,15.99953466796875,344.2125244140625,-103.98750305175781,28.443750381469727
1779997181092621800,16.019621826171875,344.04376220703125,-103.96875762939453,28.443750381469727
1779997181112723500,16.039723388671874,344.0250244140625,-103.98750305175781,28.443750381469727
1779997181132800800,16.05980078125,343.9312744140625,-103.98750305175781,28.443750381469727
1779997181152808400,16.079808349609376,343.95001220703125,-103.98750305175781,28.42500114440918
1779997181172751000,16.099751220703126,344.0250244140625,-103.98750305175781,28.406251907348633
1779997181192971500,16.119971435546876,344.1187744140625,-103.96875762939453,28.406251907348633
1779997181212606700,16.139606689453124,344.13751220703125,-103.95000457763672,28.406251907348633
1779997181232672000,16.159672119140627,344.1187744140625,-103.96875762939453,28.387500762939453
1779997181252756700,16.1797568359375,344.1187744140625,-103.96875762939453,28.387500762939453
1779997181272526000,16.199526123046876,344.04376220703125,-103.98750305175781,28.387500762939453
1779997181292379600,16.219379638671874,344.1750183105469,-103.98750305175781,28.368751525878906
1779997181312663800,16.239663818359375,344.1000061035156,-103.98750305175781,28.387500762939453
1779997181332548900,16.259548828125,344.0250244140625,-103.98750305175781,28.406251907348633
1779997181352422100,16.279422119140627,344.13751220703125,-103.98750305175781,28.406251907348633
1779997181372734700,16.299734619140626,344.13751220703125,-103.96875762939453,28.406251907348633
1779997181392724200,16.31972412109375,344.2125244140625,-103.95000457763672,28.406251907348633
1779997181412510700,16.3395107421875,344.1937561035156,-103.95000457763672,28.42500114440918
1779997181432652800,16.35965283203125,344.23126220703125,-103.95000457763672,28.42500114440918
1779997181452733400,16.3797333984375,344.13751220703125,-103.95000457763672,28.42500114440918
1779997181472773000,16.399773193359376,344.13751220703125,-103.95000457763672,28.42500114440918
1779997181492530700,16.41953076171875,344.1000061035156,-103.95000457763672,28.42500114440918
1779997181512815900,16.43981591796875,343.96875,-103.95000457763672,28.443750381469727
1779997181532551000,16.459551025390624,343.8375244140625,-103.9312515258789,28.481250762939453
1779997181552874500,16.47987451171875,343.875,-103.95000457763672,28.481250762939453
1779997181573051400,16.500051513671874,344.0250244140625,-103.9312515258789,28.443750381469727
1779997181592656400,16.519656494140627,343.9312744140625,-103.9312515258789,28.462501525878906
1779997181612424000,16.539423828125,344.0250244140625,-103.91250610351562,28.443750381469727
1779997181632360000,16.55935986328125,344.1000061035156,-103.91250610351562,28.462501525878906
1779997181652309200,16.579309326171874,344.04376220703125,-103.89375305175781,28.443750381469727
1779997181672571000,16.59957080078125,344.0625,-103.9312515258789,28.443750381469727
1779997181692929000,16.619928955078127,344.0812683105469,-103.9312515258789,28.443750381469727
1779997181712760000,16.639760009765624,344.13751220703125,-103.9312515258789,28.42500114440918
1779997181732521500,16.659521484375,344.23126220703125,-103.95000457763672,28.42500114440918
1779997181752380000,16.6793798828125,344.3812561035156,-103.96875762939453,28.42500114440918
1779997181772522800,16.699522705078124,344.3812561035156,-103.95000457763672,28.443750381469727
1779997181792877300,16.719877197265625,344.3812561035156,-103.95000457763672,28.462501525878906
1779997181813063200,16.740063232421875,344.60626220703125,-103.95000457763672,28.462501525878906
1779997181832876500,16.75987646484375,344.8500061035156,-103.96875762939453,28.42500114440918
1779997181852790000,16.7797900390625,344.79376220703125,-103.96875762939453,28.443750381469727
1779997181872745700,16.799745849609376,344.70001220703125,-103.96875762939453,28.462501525878906
1779997181892486700,16.819486572265625,344.5687561035156,-103.96875762939453,28.462501525878906
1779997181912347600,16.83934765625,344.53125,-103.96875762939453,28.481250762939453
1779997181932499500,16.85949951171875,344.4562683105469,-103.98750305175781,28.462501525878906
1779997181952891000,16.879890869140624,344.3812561035156,-103.98750305175781,28.462501525878906
1779997181972870400,16.899870361328126,344.2875061035156,-103.96875762939453,28.481250762939453
1779997181993045200,16.920045166015626,344.1937561035156,-103.98750305175781,28.443750381469727
1779997182013127000,16.940126953125,344.04376220703125,-103.96875762939453,28.443750381469727
1779997182032961000,16.9599609375,343.85626220703125,-103.95000457763672,28.462501525878906
1779997182052778000,16.979778076171876,343.7437744140625,-103.95000457763672,28.462501525878906
1779997182072736000,16.999736083984374,343.66876220703125,-103.96875762939453,28.481250762939453
1779997182092571100,17.019571044921875,343.59375,-103.95000457763672,28.462501525878906
1779997182112383200,17.03938330078125,343.6312561035156,-103.95000457763672,28.462501525878906
1779997182132305000,17.059304931640625,343.5562744140625,-103.95000457763672,28.462501525878906
1779997182152545000,17.079544921875,343.5187683105469,-103.9312515258789,28.443750381469727
1779997182172636700,17.09963671875,343.40625,-103.95000457763672,28.462501525878906
1779997182192732200,17.119732177734374,343.4437561035156,-103.95000457763672,28.462501525878906
1779997182212725500,17.1397255859375,343.38751220703125,-103.9312515258789,28.443750381469727
1779997182232504000,17.159504150390624,343.4250183105469,-103.9312515258789,28.462501525878906
1779997182252374000,17.1793740234375,343.5562744140625,-103.9312515258789,28.462501525878906
1779997182272490000,17.199489990234376,343.66876220703125,-103.95000457763672,28.462501525878906
1779997182292407800,17.21940771484375,343.7062683105469,-103.95000457763672,28.500001907348633
1779997182312356600,17.239356689453125,343.8375244140625,-103.98750305175781,28.51875114440918
1779997182332803600,17.259803466796875,343.9125061035156,-103.98750305175781,28.51875114440918
1779997182352588500,17.279588623046877,343.9875183105469,-103.98750305175781,28.51875114440918
1779997182372702200,17.2997021484375,344.0625,-103.98750305175781,28.500001907348633
1779997182392971800,17.3199716796875,344.1937561035156,-104.00625610351562,28.481250762939453
1779997182412973600,17.3399736328125,344.13751220703125,-104.00625610351562,28.500001907348633
1779997182433149000,17.36014892578125,344.04376220703125,-103.98750305175781,28.500001907348633
1779997182453161000,17.380160888671874,344.1000061035156,-104.00625610351562,28.500001907348633
1779997182472771000,17.39977099609375,344.1750183105469,-103.98750305175781,28.481250762939453
1779997182492451600,17.41945166015625,344.2125244140625,-103.98750305175781,28.462501525878906
1779997182512568800,17.43956884765625,344.4000244140625,-104.00625610351562,28.462501525878906
1779997182532605200,17.459605224609376,344.51251220703125,-104.00625610351562,28.462501525878906
1779997182552439000,17.47943896484375,344.4937744140625,-103.98750305175781,28.443750381469727
1779997182572552000,17.499552001953123,344.4750061035156,-103.96875762939453,28.42500114440918
1779997182592412200,17.519412109375,344.51251220703125,-103.96875762939453,28.406251907348633
1779997182612607000,17.53960693359375,344.53125,-103.9312515258789,28.387500762939453
1779997182632470500,17.559470458984375,344.6625061035156,-103.9312515258789,28.406251907348633
1779997182652575000,17.579574951171875,344.70001220703125,-103.9312515258789,28.387500762939453
1779997182672699400,17.599699462890626,344.71875,-103.91250610351562,28.387500762939453
1779997182692519400,17.61951953125,344.6812744140625,-103.89375305175781,28.406251907348633
1779997182713067500,17.640067626953126,344.6437683105469,-103.89375305175781,28.387500762939453
1779997182732710100,17.659710205078124,344.53125,-103.91250610351562,28.387500762939453
1779997182752473300,17.679473388671877,344.4375,-103.89375305175781,28.406251907348633
1779997182772614700,17.69961474609375,344.4937744140625,-103.91250610351562,28.406251907348633
1779997182792456000,17.7194560546875,344.53125,-103.89375305175781,28.406251907348633
1779997182812829000,17.739828857421877,344.4937744140625,-103.89375305175781,28.387500762939453
1779997182832837600,17.759837646484375,344.5687561035156,-103.89375305175781,28.406251907348633
1779997182852700400,17.779700439453126,344.5687561035156,-103.89375305175781,28.406251907348633
1779997182872933400,17.799933349609375,344.5687561035156,-103.9312515258789,28.42500114440918
1779997182892606500,17.8196064453125,344.51251220703125,-103.91250610351562,28.406251907348633
1779997182912601900,17.839601806640626,344.51251220703125,-103.91250610351562,28.42500114440918
1779997182932416300,17.859416259765624,344.32501220703125,-103.91250610351562,28.406251907348633
1779997182952332300,17.879332275390624,344.32501220703125,-103.91250610351562,28.42500114440918
1779997182972568600,17.899568603515625,344.41876220703125,-103.9312515258789,28.406251907348633
1779997182992440800,17.91944091796875,344.5687561035156,-103.95000457763672,28.387500762939453
1779997183012373200,17.939373291015624,344.60626220703125,-103.96875762939453,28.406251907348633
1779997183032759300,17.95975927734375,344.79376220703125,-103.96875762939453,28.406251907348633
1779997183052818200,17.979818115234377,344.8125,-103.95000457763672,28.406251907348633
1779997183072776700,17.999776611328127,344.9437561035156,-103.95000457763672,28.42500114440918
1779997183092519200,18.019519287109375,344.9437561035156,-103.96875762939453,28.443750381469727
1779997183112376300,18.039376220703126,344.8687744140625,-103.96875762939453,28.443750381469727
1779997183132317700,18.059317626953124,344.9437561035156,-103.98750305175781,28.443750381469727
1779997183152307700,18.0793076171875,345,-103.96875762939453,28.462501525878906
1779997183172368600,18.09936865234375,345.0187683105469,-103.96875762939453,28.462501525878906
1779997183192356400,18.1193564453125,345.07501220703125,-103.96875762939453,28.462501525878906
1779997183212353300,18.139353271484374,344.9625244140625,-103.96875762939453,28.481250762939453
1779997183232524300,18.159524169921873,344.9437561035156,-103.96875762939453,28.500001907348633
1779997183252640800,18.179640869140623,344.8312683105469,-103.96875762939453,28.481250762939453
1779997183272873700,18.199873779296876,344.53125,-103.95000457763672,28.481250762939453
1779997183292828200,18.219828125,344.4000244140625,-103.95000457763672,28.481250762939453
1779997183312812000,18.23981201171875,344.3625183105469,-103.95000457763672,28.500001907348633
1779997183333014300,18.26001416015625,344.2125244140625,-103.95000457763672,28.481250762939453
1779997183352941300,18.27994140625,344.23126220703125,-103.96875762939453,28.443750381469727
1779997183372569600,18.299569580078124,344.0250244140625,-103.96875762939453,28.443750381469727
1779997183392379400,18.31937939453125,344.0250244140625,-103.95000457763672,28.443750381469727
1779997183412535800,18.339535888671875,344.0250244140625,-103.95000457763672,28.443750381469727
1779997183432414700,18.359414794921875,343.76251220703125,-103.9312515258789,28.443750381469727
1779997183452559600,18.3795595703125,343.78125,-103.95000457763672,28.443750381469727
1779997183472897800,18.399897705078125,343.9125061035156,-103.95000457763672,28.42500114440918
1779997183492639200,18.41963916015625,343.8937683105469,-103.95000457763672,28.42500114440918
1779997183512453000,18.439453125,343.96875,-103.95000457763672,28.406251907348633
1779997183532613000,18.459613037109374,344.2125244140625,-103.9312515258789,28.406251907348633
1779997183552575000,18.479574951171877,344.25,-103.91250610351562,28.406251907348633
1779997183572697900,18.49969775390625,344.3625183105469,-103.9312515258789,28.406251907348633
1779997183592509000,18.519509033203125,344.3062744140625,-103.91250610351562,28.387500762939453
1779997183612605200,18.539605224609375,344.3812561035156,-103.9312515258789,28.387500762939453
1779997183632446700,18.55944677734375,344.51251220703125,-103.89375305175781,28.387500762939453
1779997183652363300,18.57936328125,344.53125,-103.87500762939453,28.406251907348633
1779997183672381000,18.599380859375,344.6437683105469,-103.87500762939453,28.406251907348633
1779997183692614700,18.61961474609375,344.8312683105469,-103.89375305175781,28.387500762939453
1779997183712693000,18.63969287109375,344.8312683105469,-103.85625457763672,28.387500762939453
1779997183732716500,18.659716552734373,344.8312683105469,-103.8375015258789,28.387500762939453
1779997183752500500,18.67950048828125,344.7750244140625,-103.8375015258789,28.368751525878906
1779997183772379000,18.69937890625,344.7375183105469,-103.81875610351562,28.387500762939453
1779997183792796000,18.7197958984375,344.60626220703125,-103.81875610351562,28.368751525878906
1779997183812833800,18.739833740234374,344.5500183105469,-103.8375015258789,28.387500762939453
1779997183832569300,18.7595693359375,344.3625183105469,-103.85625457763672,28.350000381469727
1779997183852677600,18.779677734375,344.4000244140625,-103.87500762939453,28.368751525878906
1779997183872532000,18.799531982421875,344.4937744140625,-103.89375305175781,28.368751525878906
1779997183892407600,18.819407470703126,344.5687561035156,-103.89375305175781,28.368751525878906
1779997183912351500,18.8393515625,344.60626220703125,-103.89375305175781,28.387500762939453
1779997183932417800,18.859417724609376,344.5875244140625,-103.89375305175781,28.387500762939453
1779997183952376000,18.8793759765625,344.70001220703125,-103.91250610351562,28.387500762939453
1779997183972659700,18.89965966796875,344.60626220703125,-103.95000457763672,28.387500762939453
1779997183992516900,18.919516845703125,344.34375,-103.95000457763672,28.387500762939453
1779997184012424000,18.939423828125,344.3812561035156,-103.98750305175781,28.406251907348633
1779997184032629200,18.959629150390626,344.34375,-104.00625610351562,28.42500114440918
1779997184052691500,18.97969140625,344.34375,-104.00625610351562,28.42500114440918
1779997184072768300,18.999768310546877,344.2687683105469,-104.00625610351562,28.42500114440918
1779997184092985900,19.01998583984375,344.3625183105469,-104.00625610351562,28.406251907348633
1779997184112771800,19.039771728515625,344.34375,-104.00625610351562,28.406251907348633
1779997184132765000,19.059764892578126,344.3625183105469,-104.00625610351562,28.42500114440918
1779997184152498700,19.079498779296873,344.41876220703125,-103.98750305175781,28.42500114440918
1779997184172856600,19.099856689453127,344.3625183105469,-103.96875762939453,28.42500114440918
1779997184192571400,19.1195712890625,344.23126220703125,-103.96875762939453,28.42500114440918
1779997184212405000,19.139405029296874,344.2875061035156,-103.96875762939453,28.406251907348633
1779997184232798200,19.159798095703124,344.41876220703125,-103.96875762939453,28.42500114440918
1779997184252554000,19.179553955078124,344.4375,-103.96875762939453,28.443750381469727
1779997184272672000,19.199672119140626,344.41876220703125,-103.95000457763672,28.462501525878906
1779997184293090300,19.22009033203125,344.4375,-103.9312515258789,28.462501525878906
1779997184312819200,19.239819091796875,344.4562683105469,-103.9312515258789,28.443750381469727
1779997184332520200,19.259520263671874,344.625,-103.9312515258789,28.443750381469727
1779997184352829400,19.279829345703124,344.6625061035156,-103.91250610351562,28.443750381469727
1779997184372746000,19.29974609375,344.53125,-103.9312515258789,28.443750381469727
1779997184392949500,19.319949462890627,344.4750061035156,-103.9312515258789,28.481250762939453
1779997184412599300,19.339599365234374,344.4937744140625,-103.9312515258789,28.500001907348633
1779997184432602600,19.3596025390625,344.4000244140625,-103.95000457763672,28.500001907348633
1779997184452417000,19.3794169921875,344.4000244140625,-103.96875762939453,28.500001907348633
1779997184472324000,19.399323974609374,344.41876220703125,-103.96875762939453,28.500001907348633
1779997184492673500,19.419673583984373,344.6437683105469,-103.98750305175781,28.500001907348633
1779997184512513800,19.439513671875,344.6437683105469,-104.00625610351562,28.537500381469727
1779997184532400400,19.459400390625,344.41876220703125,-103.98750305175781,28.537500381469727
1779997184552609000,19.479609130859377,344.32501220703125,-103.98750305175781,28.537500381469727
1779997184572478700,19.499478759765626,344.4375,-103.98750305175781,28.500001907348633
1779997184592398800,19.51939892578125,344.4937744140625,-103.98750305175781,28.500001907348633
1779997184612626400,19.53962646484375,344.4375,-103.98750305175781,28.500001907348633
1779997184632495400,19.559495361328125,344.25,-103.96875762939453,28.51875114440918
1779997184652400000,19.579400146484375,344.1187744140625,-103.96875762939453,28.51875114440918
1779997184672586000,19.5995859375,344.15625,-103.95000457763672,28.500001907348633
1779997184692413400,19.619413330078125,344.2875061035156,-103.95000457763672,28.500001907348633
1779997184712559600,19.6395595703125,344.3625183105469,-103.95000457763672,28.500001907348633
1779997184732907500,19.659907470703125,344.5687561035156,-103.95000457763672,28.500001907348633
1779997184752829400,19.679829345703126,344.5500183105469,-103.9312515258789,28.500001907348633
1779997184772746200,19.699746337890623,344.51251220703125,-103.91250610351562,28.500001907348633
1779997184792488200,19.71948828125,344.4562683105469,-103.91250610351562,28.500001907348633
1779997184812394000,19.73939404296875,344.32501220703125,-103.89375305175781,28.481250762939453
1779997184832863700,19.75986376953125,344.32501220703125,-103.89375305175781,28.500001907348633
1779997184852592000,19.779592041015626,344.4750061035156,-103.91250610351562,28.500001907348633
1779997184872817200,19.799817138671877,344.53125,-103.91250610351562,28.500001907348633
1779997184892521500,19.819521484375,344.60626220703125,-103.9312515258789,28.500001907348633
1779997184912644400,19.839644287109376,344.6437683105469,-103.95000457763672,28.51875114440918
1779997184932935000,19.859934814453126,344.5875244140625,-103.95000457763672,28.481250762939453
1779997184952877800,19.8798779296875,344.51251220703125,-103.96875762939453,28.481250762939453
1779997184972835000,19.8998349609375,344.3812561035156,-104.00625610351562,28.500001907348633
1779997184992543700,19.919543701171875,344.2875061035156,-104.0250015258789,28.51875114440918
1779997185012415500,19.93941552734375,344.1937561035156,-104.00625610351562,28.500001907348633
1779997185032326000,19.959325927734376,344.1000061035156,-104.0250015258789,28.500001907348633
1779997185052299000,19.979299072265626,344.0062561035156,-104.0250015258789,28.500001907348633
1779997185072457500,19.99945751953125,343.95001220703125,-104.04375457763672,28.51875114440918
1779997185092393000,20.01939306640625,343.96875,-104.06250762939453,28.51875114440918
1779997185112824800,20.039824951171877,343.9875183105469,-104.06250762939453,28.51875114440918
1779997185132800500,20.059800537109375,344.1187744140625,-104.08125305175781,28.500001907348633
1779997185152550700,20.079550537109377,344.0250244140625,-104.04375457763672,28.500001907348633
1779997185172610300,20.0996103515625,343.8375244140625,-104.04375457763672,28.500001907348633
1779997185192621000,20.11962109375,343.7062683105469,-104.04375457763672,28.51875114440918
1779997185212452400,20.139452392578125,343.57501220703125,-104.04375457763672,28.51875114440918
1779997185232629500,20.15962939453125,343.6875,-104.0250015258789,28.51875114440918
1779997185252726800,20.179726806640623,343.78125,-104.00625610351562,28.537500381469727
1779997185272515000,20.19951513671875,343.9312744140625,-103.98750305175781,28.500001907348633
1779997185292400400,20.219400390625,344.0250244140625,-103.96875762939453,28.500001907348633
1779997185312602400,20.239602294921873,344.0812683105469,-103.96875762939453,28.500001907348633
1779997185332485600,20.259485595703126,344.1937561035156,-103.95000457763672,28.500001907348633
1779997185352600800,20.279600830078124,344.3062744140625,-103.95000457763672,28.500001907348633
1779997185372982500,20.299982421875,344.3062744140625,-103.95000457763672,28.500001907348633
1779997185392708000,20.3197080078125,344.13751220703125,-103.9312515258789,28.481250762939453
1779997185412943000,20.339943115234377,344.15625,-103.9312515258789,28.462501525878906
1779997185432606000,20.35960595703125,344.13751220703125,-103.9312515258789,28.481250762939453
1779997185452403200,20.3794033203125,344.0625,-103.9312515258789,28.481250762939453
1779997185472779300,20.399779296875,344.25,-103.95000457763672,28.500001907348633
1779997185492551400,20.419551513671873,344.3812561035156,-103.9312515258789,28.500001907348633
1779997185512657400,20.439657470703125,344.41876220703125,-103.95000457763672,28.51875114440918
1779997185532927500,20.459927490234374,344.3625183105469,-103.95000457763672,28.51875114440918
1779997185553084700,20.480084716796874,344.3812561035156,-103.96875762939453,28.481250762939453
1779997185572878000,20.499878173828126,344.41876220703125,-103.96875762939453,28.500001907348633
1779997185592536800,20.519536865234375,344.4937744140625,-103.96875762939453,28.481250762939453
1779997185612361000,20.53936083984375,344.5500183105469,-103.98750305175781,28.481250762939453
1779997185632289500,20.55928955078125,344.4000244140625,-104.00625610351562,28.481250762939453
1779997185652270600,20.5792705078125,344.4000244140625,-103.98750305175781,28.481250762939453
1779997185672296200,20.599296142578126,344.4375,-103.96875762939453,28.481250762939453
1779997185692716800,20.619716796875,344.5687561035156,-103.95000457763672,28.481250762939453
1779997185712606200,20.639606201171876,344.71875,-103.95000457763672,28.481250762939453
1779997185732941800,20.65994189453125,344.8125,-103.95000457763672,28.481250762939453
1779997185753228300,20.680228271484374,344.8500061035156,-103.95000457763672,28.462501525878906
1779997185772838700,20.699838623046876,344.6812744140625,-103.91250610351562,28.462501525878906
1779997185792519000,20.719518798828126,344.4375,-103.9312515258789,28.42500114440918
1779997185812345600,20.739345703125,344.4750061035156,-103.9312515258789,28.42500114440918
1779997185832483000,20.759483154296873,344.4750061035156,-103.9312515258789,28.42500114440918
1779997185852379100,20.779379150390625,344.51251220703125,-103.9312515258789,28.443750381469727
1779997185872599600,20.799599609375,344.51251220703125,-103.9312515258789,28.443750381469727
1779997185892668400,20.81966845703125,344.34375,-103.91250610351562,28.462501525878906
1779997185912490000,20.839489990234377,344.1750183105469,-103.9312515258789,28.500001907348633
1779997185932651500,20.859651611328125,344.1187744140625,-103.9312515258789,28.500001907348633
1779997185952812000,20.87981201171875,344.2125244140625,-103.9312515258789,28.481250762939453
1779997185972821200,20.8998212890625,344.23126220703125,-103.96875762939453,28.481250762939453
1779997185992818700,20.919818603515626,344.2125244140625,-103.98750305175781,28.481250762939453
1779997186013017300,20.940017333984375,343.9875183105469,-103.98750305175781,28.481250762939453
1779997186032640300,20.95964013671875,343.8937683105469,-103.96875762939453,28.462501525878906
1779997186052419800,20.979419921875,343.95001220703125,-103.96875762939453,28.481250762939453
1779997186072786200,20.9997861328125,343.8375244140625,-103.98750305175781,28.481250762939453
1779997186092533500,21.019533447265626,343.8375244140625,-103.96875762939453,28.500001907348633
1779997186112591000,21.039591064453123,343.9312744140625,-103.95000457763672,28.481250762939453
1779997186132894000,21.05989404296875,343.9312744140625,-103.95000457763672,28.500001907348633
1779997186152695600,21.079695556640626,344.04376220703125,-103.95000457763672,28.500001907348633
1779997186172938800,21.099938720703125,344.04376220703125,-103.9312515258789,28.500001907348633
1779997186192599800,21.119599853515624,344.1750183105469,-103.95000457763672,28.462501525878906
1779997186212608800,21.13960888671875,344.2687683105469,-103.95000457763672,28.443750381469727
1779997186232423000,21.1594228515625,344.3062744140625,-103.9312515258789,28.443750381469727
1779997186252327400,21.179327392578124,344.25,-103.9312515258789,28.443750381469727
1779997186272501200,21.199501220703127,344.3625183105469,-103.9312515258789,28.42500114440918
1779997186292407600,21.219407470703125,344.34375,-103.9312515258789,28.443750381469727
1779997186312352500,21.2393525390625,344.34375,-103.9312515258789,28.462501525878906
1779997186332546300,21.25954638671875,344.3812561035156,-103.95000457763672,28.462501525878906
1779997186352442600,21.279442626953124,344.3625183105469,-103.95000457763672,28.462501525878906
1779997186372382700,21.2993828125,344.4750061035156,-103.95000457763672,28.481250762939453
1779997186392813300,21.319813232421875,344.6625061035156,-103.95000457763672,28.462501525878906
1779997186412588500,21.339588623046875,344.6437683105469,-103.95000457763672,28.462501525878906
1779997186432644600,21.35964453125,344.7375183105469,-103.9312515258789,28.462501525878906
1779997186452732700,21.379732666015624,344.5875244140625,-103.9312515258789,28.462501525878906
1779997186472514800,21.399514892578125,344.5500183105469,-103.95000457763672,28.462501525878906
1779997186492389400,21.419389404296876,344.4750061035156,-103.95000457763672,28.481250762939453
1779997186512348400,21.439348388671874,344.51251220703125,-103.96875762939453,28.500001907348633
1779997186532447700,21.45944775390625,344.70001220703125,-103.95000457763672,28.500001907348633
1779997186552396500,21.479396484375,344.7375183105469,-103.9312515258789,28.51875114440918
1779997186572627200,21.499627197265625,344.6812744140625,-103.9312515258789,28.51875114440918
1779997186592703000,21.519702880859374,344.7375183105469,-103.9312515258789,28.537500381469727
1779997186612510000,21.539510009765625,344.8312683105469,-103.91250610351562,28.51875114440918
1779997186632661500,21.55966162109375,344.90625,-103.9312515258789,28.51875114440918
1779997186652708900,21.579708984375,344.8500061035156,-103.9312515258789,28.51875114440918
1779997186672506000,21.599506103515626,345.0187683105469,-103.9312515258789,28.537500381469727
1779997186692384000,21.619384033203126,344.88751220703125,-103.9312515258789,28.537500381469727
1779997186712729300,21.639729248046876,344.7562561035156,-103.9312515258789,28.537500381469727
1779997186732508700,21.6595087890625,344.6812744140625,-103.95000457763672,28.537500381469727
1779997186752393000,21.67939306640625,344.8500061035156,-103.9312515258789,28.556251525878906
1779997186772603100,21.69960302734375,344.8125,-103.95000457763672,28.556251525878906
1779997186792475600,21.7194755859375,344.79376220703125,-103.95000457763672,28.556251525878906
1779997186812389600,21.7393896484375,344.79376220703125,-103.91250610351562,28.537500381469727
1779997186832561400,21.7595615234375,344.6812744140625,-103.9312515258789,28.537500381469727
1779997186852445000,21.77944482421875,344.5687561035156,-103.95000457763672,28.537500381469727
1779997186872379600,21.799379638671876,344.6437683105469,-103.95000457763672,28.537500381469727
1779997186892353800,21.819353759765626,344.625,-103.9312515258789,28.537500381469727
1779997186912472000,21.83947216796875,344.6437683105469,-103.95000457763672,28.537500381469727
1779997186932671000,21.8596708984375,344.625,-103.9312515258789,28.537500381469727
1779997186952988000,21.87998779296875,344.5875244140625,-103.9312515258789,28.51875114440918
1779997186972903200,21.899903076171874,344.5687561035156,-103.9312515258789,28.500001907348633
1779997186992579800,21.919579833984375,344.7750244140625,-103.95000457763672,28.481250762939453
1779997187012399000,21.939399169921874,344.8125,-103.96875762939453,28.481250762939453
1779997187032551200,21.95955126953125,344.70001220703125,-103.95000457763672,28.500001907348633
1779997187052675600,21.979675537109376,344.5687561035156,-103.96875762939453,28.481250762939453
1779997187072495000,21.9994951171875,344.8125,-103.95000457763672,28.481250762939453
1779997187092382500,22.019382568359376,344.9625244140625,-103.95000457763672,28.462501525878906
1779997187112325600,22.03932568359375,344.9437561035156,-103.95000457763672,28.481250762939453
1779997187132318700,22.059318603515624,344.8312683105469,-103.96875762939453,28.481250762939453
1779997187152592000,22.079591796875,344.8687744140625,-103.96875762939453,28.481250762939453
1779997187172493600,22.09949365234375,344.8312683105469,-103.95000457763672,28.500001907348633
1779997187192415700,22.119415771484373,344.8500061035156,-103.95000457763672,28.481250762939453
1779997187212374800,22.139374755859375,344.71875,-103.95000457763672,28.500001907348633
1779997187232396000,22.15939599609375,344.5875244140625,-103.9312515258789,28.481250762939453
1779997187252365300,22.179365234375,344.4937744140625,-103.91250610351562,28.500001907348633
1779997187272695300,22.1996953125,344.51251220703125,-103.9312515258789,28.500001907348633
1779997187292544800,22.219544677734376,344.4375,-103.9312515258789,28.51875114440918
1779997187312432000,22.23943212890625,344.41876220703125,-103.91250610351562,28.537500381469727
1779997187332644400,22.259644287109374,344.70001220703125,-103.91250610351562,28.537500381469727
1779997187352713500,22.27971337890625,344.625,-103.91250610351562,28.51875114440918
1779997187372508000,22.2995078125,344.4375,-103.91250610351562,28.51875114440918
1779997187392399000,22.319399169921876,344.3625183105469,-103.9312515258789,28.51875114440918
1779997187412403500,22.339403564453125,344.25,-103.91250610351562,28.51875114440918
1779997187432353800,22.359353759765625,344.3625183105469,-103.9312515258789,28.537500381469727
1779997187452608300,22.379608154296875,344.4000244140625,-103.9312515258789,28.556251525878906
1779997187472931000,22.39993115234375,344.32501220703125,-103.9312515258789,28.556251525878906
1779997187492644900,22.419644775390626,344.4000244140625,-103.95000457763672,28.537500381469727
1779997187512462800,22.439462890625,344.53125,-103.95000457763672,28.537500381469727
1779997187532561200,22.45956103515625,344.6437683105469,-103.96875762939453,28.556251525878906
1779997187552430800,22.479430908203124,344.88751220703125,-103.96875762939453,28.537500381469727
1779997187572357400,22.499357421875,344.7750244140625,-103.95000457763672,28.537500381469727
1779997187592820700,22.51982080078125,344.79376220703125,-103.95000457763672,28.51875114440918
1779997187612648700,22.539648681640625,344.7562561035156,-103.9312515258789,28.500001907348633
1779997187632934700,22.5599345703125,344.60626220703125,-103.91250610351562,28.500001907348633
1779997187652906500,22.579906494140626,344.71875,-103.91250610351562,28.500001907348633
1779997187672789000,22.5997890625,344.71875,-103.91250610351562,28.500001907348633
1779997187692503800,22.61950390625,344.53125,-103.91250610351562,28.481250762939453
1779997187712821500,22.639821533203126,344.60626220703125,-103.91250610351562,28.462501525878906
1779997187732799000,22.659799072265624,344.79376220703125,-103.89375305175781,28.462501525878906
1779997187752727300,22.679727294921875,344.8687744140625,-103.91250610351562,28.42500114440918
1779997187772470800,22.699470703125,344.8312683105469,-103.91250610351562,28.406251907348633
1779997187792664000,22.7196640625,344.60626220703125,-103.89375305175781,28.406251907348633
1779997187812722700,22.73972265625,344.4562683105469,-103.87500762939453,28.387500762939453
1779997187832977700,22.759977783203126,344.4750061035156,-103.87500762939453,28.387500762939453
1779997187853100500,22.7801005859375,344.4562683105469,-103.87500762939453,28.368751525878906
1779997187872680200,22.79968017578125,344.60626220703125,-103.87500762939453,28.387500762939453
1779997187892436200,22.819436279296873,344.4375,-103.87500762939453,28.387500762939453
1779997187912580000,22.839580078125,344.41876220703125,-103.87500762939453,28.406251907348633
1779997187932747300,22.859747314453124,344.41876220703125,-103.87500762939453,28.387500762939453
1779997187952733400,22.8797333984375,344.3812561035156,-103.87500762939453,28.387500762939453
1779997187972762400,22.899762451171874,344.4937744140625,-103.85625457763672,28.387500762939453
1779997187992600000,22.91960009765625,344.5875244140625,-103.85625457763672,28.406251907348633
1779997188012690200,22.939690185546876,344.5875244140625,-103.85625457763672,28.42500114440918
1779997188032948500,22.959948486328123,344.3625183105469,-103.87500762939453,28.406251907348633
1779997188052832500,22.97983251953125,344.3062744140625,-103.85625457763672,28.406251907348633
1779997188072998700,22.99999853515625,344.3062744140625,-103.85625457763672,28.387500762939453
1779997188092611800,23.01961181640625,344.3812561035156,-103.87500762939453,28.406251907348633
1779997188112598300,23.039598388671877,344.4937744140625,-103.87500762939453,28.42500114440918
1779997188132667000,23.0596669921875,344.4375,-103.87500762939453,28.42500114440918
1779997188152906500,23.079906494140626,344.3062744140625,-103.89375305175781,28.443750381469727
1779997188172989200,23.0999892578125,344.25,-103.91250610351562,28.42500114440918
1779997188192607700,23.119607666015625,344.51251220703125,-103.95000457763672,28.443750381469727
1779997188212394500,23.13939453125,344.4750061035156,-103.95000457763672,28.42500114440918
1779997188232771600,23.159771484375,344.51251220703125,-103.96875762939453,28.443750381469727
1779997188252800500,23.179800537109376,344.51251220703125,-103.98750305175781,28.481250762939453
1779997188272541000,23.199541015625,344.53125,-104.00625610351562,28.481250762939453
1779997188292395500,23.2193955078125,344.51251220703125,-104.00625610351562,28.500001907348633
1779997188312620300,23.239620361328125,344.5875244140625,-104.00625610351562,28.500001907348633
1779997188332481300,23.259481201171877,344.625,-104.00625610351562,28.51875114440918
1779997188352391200,23.27939111328125,344.53125,-104.00625610351562,28.537500381469727
1779997188372457500,23.29945751953125,344.4937744140625,-104.00625610351562,28.556251525878906
1779997188392395300,23.319395263671876,344.6812744140625,-104.00625610351562,28.575000762939453
1779997188412358000,23.33935791015625,344.71875,-104.0250015258789,28.575000762939453
1779997188432547600,23.359547607421874,344.60626220703125,-104.0250015258789,28.556251525878906
1779997188452449500,23.379449462890626,344.625,-104.00625610351562,28.556251525878906
1779997188472383200,23.39938330078125,344.625,-103.96875762939453,28.575000762939453
1779997188492554800,23.4195546875,344.4937744140625,-103.96875762939453,28.575000762939453
1779997188512711400,23.43971142578125,344.60626220703125,-103.96875762939453,28.593751907348633
1779997188532524800,23.45952490234375,344.5687561035156,-103.96875762939453,28.593751907348633
1779997188552571600,23.479571533203124,344.4937744140625,-103.95000457763672,28.593751907348633
1779997188572709000,23.499709228515623,344.5500183105469,-103.9312515258789,28.61250114440918
1779997188592778500,23.519778564453127,344.6437683105469,-103.91250610351562,28.631250381469727
1779997188613012000,23.540011962890624,344.60626220703125,-103.91250610351562,28.61250114440918
1779997188632921900,23.559921875,344.5687561035156,-103.89375305175781,28.61250114440918
1779997188652846300,23.579846435546877,344.5875244140625,-103.91250610351562,28.61250114440918
1779997188673048800,23.600048828125,344.7562561035156,-103.91250610351562,28.61250114440918
1779997188692650500,23.619650390625,344.6625061035156,-103.89375305175781,28.593751907348633
1779997188712680700,23.6396806640625,344.5875244140625,-103.87500762939453,28.575000762939453
1779997188732461300,23.65946142578125,344.7375183105469,-103.87500762939453,28.575000762939453
1779997188752355800,23.67935595703125,344.88751220703125,-103.85625457763672,28.575000762939453
1779997188772511200,23.69951123046875,344.98126220703125,-103.87500762939453,28.593751907348633
1779997188792407600,23.719407470703125,345.0562744140625,-103.87500762939453,28.593751907348633
1779997188812551700,23.7395517578125,345,-103.87500762939453,28.575000762939453
1779997188832441300,23.75944140625,345.1125183105469,-103.85625457763672,28.575000762939453
1779997188852372700,23.779372802734375,345.26251220703125,-103.85625457763672,28.556251525878906
1779997188872563500,23.7995634765625,345.1312561035156,-103.87500762939453,28.537500381469727
1779997188892453000,23.819453125,344.9625244140625,-103.87500762939453,28.537500381469727
1779997188912382200,23.83938232421875,344.9250183105469,-103.87500762939453,28.51875114440918
1779997188932552700,23.859552734375,344.9437561035156,-103.89375305175781,28.500001907348633
1779997188952445400,23.879445556640626,345.0187683105469,-103.89375305175781,28.500001907348633
1779997188972376300,23.899376220703125,344.90625,-103.87500762939453,28.500001907348633
1779997188992677400,23.919677490234374,344.9250183105469,-103.89375305175781,28.51875114440918
1779997189012791000,23.939791015625,345.0562744140625,-103.89375305175781,28.51875114440918
1779997189032567600,23.959567626953124,345,-103.89375305175781,28.51875114440918
1779997189052435700,23.979435791015625,344.90625,-103.89375305175781,28.51875114440918
1779997189072745500,23.999745361328124,344.88751220703125,-103.89375305175781,28.51875114440918
1779997189093005000,24.020005126953127,344.79376220703125,-103.89375305175781,28.51875114440918
1779997189112923600,24.039923583984375,344.8125,-103.89375305175781,28.51875114440918
1779997189132782300,24.0597822265625,344.6625061035156,-103.91250610351562,28.500001907348633
1779997189152501500,24.07950146484375,344.5500183105469,-103.89375305175781,28.500001907348633
1779997189172622600,24.09962255859375,344.4750061035156,-103.87500762939453,28.500001907348633
1779997189192445400,24.119445556640624,344.5875244140625,-103.87500762939453,28.500001907348633
1779997189212354600,24.1393544921875,344.71875,-103.85625457763672,28.500001907348633
1779997189232790300,24.159790283203126,344.88751220703125,-103.85625457763672,28.500001907348633
1779997189252904700,24.17990478515625,344.98126220703125,-103.85625457763672,28.51875114440918
1779997189272602000,24.19960205078125,345.0562744140625,-103.85625457763672,28.537500381469727
1779997189292423700,24.219423583984376,345.0375061035156,-103.85625457763672,28.537500381469727
1779997189312549600,24.239549560546877,344.90625,-103.87500762939453,28.556251525878906
1779997189332428000,24.259427978515625,344.9250183105469,-103.87500762939453,28.556251525878906
1779997189352362800,24.27936279296875,344.7750244140625,-103.87500762939453,28.537500381469727
1779997189372602400,24.299602294921876,344.70001220703125,-103.85625457763672,28.556251525878906
1779997189392505600,24.319505615234377,344.79376220703125,-103.85625457763672,28.537500381469727
1779997189412678400,24.339678466796876,344.79376220703125,-103.85625457763672,28.556251525878906
1779997189432979700,24.359979736328125,345.0187683105469,-103.85625457763672,28.556251525878906
1779997189453097200,24.38009716796875,345.07501220703125,-103.85625457763672,28.575000762939453
1779997189472898000,24.39989794921875,345.1875,-103.87500762939453,28.61250114440918
1779997189492552700,24.419552734375,345.2062683105469,-103.87500762939453,28.61250114440918
1779997189512545300,24.439545166015623,345.07501220703125,-103.89375305175781,28.593751907348633
1779997189532376600,24.45937646484375,345,-103.89375305175781,28.593751907348633
1779997189552316700,24.479316650390626,344.7375183105469,-103.89375305175781,28.593751907348633
1779997189572537900,24.499537841796876,344.6437683105469,-103.87500762939453,28.593751907348633
1779997189592627700,24.519627685546876,344.5875244140625,-103.87500762939453,28.575000762939453
1779997189612667100,24.539667236328125,344.4375,-103.87500762939453,28.593751907348633
1779997189632679400,24.559679443359375,344.34375,-103.87500762939453,28.61250114440918
1779997189652476000,24.579475830078124,344.4375,-103.85625457763672,28.61250114440918
1779997189672369700,24.59936962890625,344.2687683105469,-103.85625457763672,28.593751907348633
1779997189692775400,24.619775390625,344.1937561035156,-103.87500762939453,28.61250114440918
1779997189712547600,24.639547607421875,344.2125244140625,-103.87500762939453,28.61250114440918
1779997189732418800,24.659418701171877,344.0625,-103.85625457763672,28.575000762939453
1779997189752633000,24.679633056640625,344.15625,-103.87500762939453,28.575000762939453
1779997189772517000,24.69951708984375,344.13751220703125,-103.87500762939453,28.556251525878906
1779997189792412000,24.719411865234374,344.15625,-103.87500762939453,28.575000762939453
1779997189812738800,24.73973876953125,344.1937561035156,-103.87500762939453,28.575000762939453
1779997189832619500,24.75961962890625,344.1187744140625,-103.89375305175781,28.556251525878906
1779997189852462000,24.779462158203124,344.34375,-103.89375305175781,28.556251525878906
1779997189872639500,24.799639404296876,344.3062744140625,-103.89375305175781,28.537500381469727
1779997189892682500,24.8196826171875,344.2875061035156,-103.91250610351562,28.51875114440918
1779997189912692000,24.83969189453125,344.4937744140625,-103.89375305175781,28.537500381469727
1779997189932948700,24.85994873046875,344.7375183105469,-103.89375305175781,28.537500381469727
1779997189952892400,24.879892333984376,344.6812744140625,-103.91250610351562,28.51875114440918
1779997189972560100,24.89956005859375,344.7375183105469,-103.89375305175781,28.51875114440918
1779997189992378000,24.919378173828125,344.7562561035156,-103.89375305175781,28.500001907348633
1779997190012411100,24.9394111328125,344.7375183105469,-103.89375305175781,28.500001907348633
1779997190032607700,24.959607666015625,344.7375183105469,-103.91250610351562,28.500001907348633
1779997190052935400,24.979935302734376,344.7375183105469,-103.91250610351562,28.481250762939453
1779997190073138700,25.000138671875,344.7562561035156,-103.91250610351562,28.481250762939453
1779997190092712000,25.0197119140625,344.7375183105469,-103.91250610351562,28.462501525878906
1779997190112463600,25.039463623046874,344.71875,-103.9312515258789,28.481250762939453
1779997190132537000,25.059537109375,344.8125,-103.9312515258789,28.481250762939453
1779997190152393000,25.07939306640625,344.5875244140625,-103.95000457763672,28.462501525878906
1779997190172534800,25.09953466796875,344.5687561035156,-103.9312515258789,28.462501525878906
1779997190192412200,25.119412109375,344.5687561035156,-103.9312515258789,28.481250762939453
1779997190212441600,25.139441650390626,344.4562683105469,-103.9312515258789,28.481250762939453
1779997190232379000,25.15937890625,344.1937561035156,-103.95000457763672,28.462501525878906
1779997190252344000,25.179343994140623,344.2875061035156,-103.96875762939453,28.462501525878906
1779997190272538000,25.1995380859375,344.3625183105469,-103.98750305175781,28.481250762939453
1779997190292443000,25.21944287109375,344.4750061035156,-103.96875762939453,28.500001907348633
1779997190312378400,25.23937841796875,344.4562683105469,-103.95000457763672,28.51875114440918
1779997190332562200,25.259562255859375,344.4750061035156,-103.9312515258789,28.537500381469727
1779997190352976600,25.2799765625,344.2125244140625,-103.9312515258789,28.556251525878906
1779997190372655600,25.299655517578124,343.9875183105469,-103.9312515258789,28.537500381469727
1779997190392463600,25.319463623046875,343.9312744140625,-103.91250610351562,28.537500381469727
1779997190412357000,25.339357177734374,343.96875,-103.91250610351562,28.537500381469727
1779997190432519400,25.35951953125,343.8375244140625,-103.89375305175781,28.537500381469727
1779997190452681500,25.379681396484376,343.8937683105469,-103.87500762939453,28.537500381469727
1779997190472506400,25.39950634765625,343.95001220703125,-103.89375305175781,28.556251525878906
1779997190492400000,25.419400146484374,343.9875183105469,-103.89375305175781,28.556251525878906
1779997190512615200,25.439615234375,343.95001220703125,-103.89375305175781,28.575000762939453
1779997190532477400,25.4594775390625,344.0062561035156,-103.89375305175781,28.575000762939453
1779997190552870400,25.479870361328125,343.9312744140625,-103.91250610351562,28.556251525878906
1779997190572873200,25.499873291015625,343.9875183105469,-103.89375305175781,28.556251525878906
1779997190592584200,25.519584228515626,343.9312744140625,-103.91250610351562,28.556251525878906
1779997190612423000,25.5394228515625,343.9125061035156,-103.9312515258789,28.537500381469727
1779997190632603000,25.559602783203125,343.8187561035156,-103.95000457763672,28.537500381469727
1779997190652655400,25.5796552734375,343.96875,-103.98750305175781,28.556251525878906
1779997190672470300,25.59947021484375,344.1000061035156,-103.96875762939453,28.556251525878906
1779997190692370400,25.619370361328127,344.1187744140625,-104.00625610351562,28.575000762939453
1779997190712632000,25.639632080078126,343.875,-103.98750305175781,28.575000762939453
1779997190732477000,25.659476806640626,343.96875,-103.98750305175781,28.593751907348633
1779997190752380400,25.67938037109375,343.9125061035156,-103.96875762939453,28.593751907348633
1779997190772553700,25.6995537109375,343.875,-103.96875762939453,28.61250114440918
1779997190792416500,25.71941650390625,343.8937683105469,-103.96875762939453,28.61250114440918
1779997190812362800,25.73936279296875,343.9125061035156,-103.95000457763672,28.593751907348633
1779997190832870100,25.7598701171875,344.0062561035156,-103.9312515258789,28.575000762939453
1779997190852622300,25.779622314453125,344.1000061035156,-103.9312515258789,28.593751907348633
1779997190872450600,25.799450439453125,344.0812683105469,-103.9312515258789,28.61250114440918
1779997190892370000,25.819369873046874,344.0250244140625,-103.9312515258789,28.593751907348633
1779997190912344000,25.839343994140624,344.04376220703125,-103.95000457763672,28.593751907348633
1779997190932331300,25.859331298828124,344.1187744140625,-103.9312515258789,28.575000762939453
1779997190952338400,25.87933837890625,344.0625,-103.9312515258789,28.575000762939453
1779997190972473000,25.89947314453125,344.2125244140625,-103.9312515258789,28.575000762939453
1779997190992413200,25.9194130859375,344.2125244140625,-103.91250610351562,28.575000762939453
1779997191012379600,25.939379638671873,344.4375,-103.9312515258789,28.556251525878906
1779997191032559600,25.9595595703125,344.5687561035156,-103.9312515258789,28.556251525878906
1779997191052916200,25.979916259765623,344.71875,-103.95000457763672,28.537500381469727
1779997191072636200,25.99963623046875,344.7750244140625,-103.9312515258789,28.51875114440918
1779997191092611000,26.019611083984376,344.71875,-103.95000457763672,28.500001907348633
1779997191112442400,26.0394423828125,344.6812744140625,-103.96875762939453,28.500001907348633
1779997191132559600,26.0595595703125,344.5500183105469,-103.96875762939453,28.481250762939453
1779997191152837000,26.079837158203127,344.4000244140625,-103.96875762939453,28.443750381469727
1779997191172837000,26.099837158203126,344.3625183105469,-103.95000457763672,28.443750381469727
1779997191192764200,26.11976416015625,344.3625183105469,-103.9312515258789,28.42500114440918
1779997191213003300,26.140003173828124,344.4750061035156,-103.9312515258789,28.42500114440918
1779997191232636400,26.159636474609375,344.4750061035156,-103.95000457763672,28.42500114440918
1779997191252617200,26.1796171875,344.5500183105469,-103.9312515258789,28.443750381469727
1779997191272678700,26.1996787109375,344.51251220703125,-103.9312515258789,28.443750381469727
1779997191292471600,26.219471435546875,344.41876220703125,-103.95000457763672,28.443750381469727
1779997191312354600,26.2393544921875,344.3062744140625,-103.96875762939453,28.443750381469727
1779997191332320800,26.25932080078125,344.1750183105469,-103.98750305175781,28.443750381469727
1779997191352313900,26.27931396484375,344.1750183105469,-103.98750305175781,28.462501525878906
1779997191372588800,26.2995888671875,344.1750183105469,-103.98750305175781,28.481250762939453
1779997191392682500,26.3196826171875,344.23126220703125,-103.98750305175781,28.481250762939453
1779997191412724500,26.339724365234375,344.3625183105469,-104.00625610351562,28.462501525878906
1779997191432513300,26.35951318359375,344.4937744140625,-103.98750305175781,28.481250762939453
1779997191452395500,26.3793955078125,344.60626220703125,-103.98750305175781,28.500001907348633
1779997191472684000,26.39968408203125,344.625,-104.00625610351562,28.481250762939453
1779997191492496000,26.419495849609376,344.71875,-104.00625610351562,28.481250762939453
1779997191512390400,26.439390380859376,344.7750244140625,-104.00625610351562,28.481250762939453
1779997191532538000,26.4595380859375,344.7562561035156,-103.98750305175781,28.481250762939453
1779997191552433000,26.479432861328124,344.7750244140625,-103.98750305175781,28.481250762939453
1779997191572369200,26.499369140625,344.7562561035156,-103.98750305175781,28.462501525878906
1779997191592844000,26.519843994140626,344.98126220703125,-103.96875762939453,28.462501525878906
1779997191612882200,26.539882080078126,345.1875,-103.91250610351562,28.462501525878906
1779997191632602000,26.55960205078125,345.2062683105469,-103.91250610351562,28.481250762939453
1779997191652430600,26.5794306640625,345.1500244140625,-103.91250610351562,28.462501525878906
1779997191672405800,26.59940576171875,345.1500244140625,-103.91250610351562,28.443750381469727
1779997191692343600,26.619343505859376,345.3000183105469,-103.91250610351562,28.462501525878906
1779997191712324600,26.63932470703125,345.35626220703125,-103.89375305175781,28.481250762939453
1779997191732524300,26.659524169921873,345.3937683105469,-103.9312515258789,28.443750381469727
1779997191752432000,26.67943212890625,345.6187744140625,-103.95000457763672,28.42500114440918
1779997191772641500,26.6996416015625,345.6187744140625,-103.9312515258789,28.42500114440918
1779997191792739800,26.71973974609375,345.65625,-103.9312515258789,28.42500114440918
1779997191812739000,26.739739013671876,345.6000061035156,-103.95000457763672,28.406251907348633
1779997191832781000,26.759781005859374,345.7687683105469,-103.95000457763672,28.350000381469727
1779997191852770300,26.779770263671875,345.73126220703125,-103.95000457763672,28.33125114440918
1779997191872503300,26.79950341796875,345.8062744140625,-103.9312515258789,28.275001525878906
1779997191892371000,26.819370849609374,345.7125244140625,-103.9312515258789,28.256250381469727
1779997191912575200,26.8395751953125,345.7125244140625,-103.95000457763672,28.200000762939453
1779997191932450000,26.859449951171875,345.84375,-103.96875762939453,28.162500381469727
1779997191952381400,26.87938134765625,346.10626220703125,-103.96875762939453,28.125001907348633
1779997191972345000,26.899344970703126,346.2562561035156,-103.96875762939453,28.087501525878906
1779997191992645000,26.91964501953125,346.29376220703125,-103.98750305175781,28.068750381469727
1779997192012715300,26.93971533203125,346.1625061035156,-103.98750305175781,28.031251907348633
1779997192032518000,26.959517822265624,346.1437683105469,-103.98750305175781,28.012500762939453
1779997192052399400,26.9793994140625,346.125,-103.95000457763672,27.993751525878906
1779997192072609500,26.999609619140625,346.2750244140625,-103.95000457763672,27.95625114440918
1779997192092469500,27.019469482421876,346.29376220703125,-103.95000457763672,27.918750762939453
1779997192112600800,27.039600830078125,346.4625244140625,-103.95000457763672,27.881250381469727
1779997192132457700,27.059457763671876,346.4625244140625,-103.95000457763672,27.881250381469727
1779997192152377300,27.07937744140625,346.6875,-103.96875762939453,27.86250114440918
1779997192172616700,27.09961669921875,346.7250061035156,-103.96875762939453,27.843751907348633
1779997192192472600,27.11947265625,346.7062683105469,-104.00625610351562,27.843751907348633
1779997192212651800,27.13965185546875,346.6875,-104.00625610351562,27.843751907348633
1779997192232819000,27.15981884765625,346.76251220703125,-104.00625610351562,27.86250114440918
1779997192252565200,27.179565185546874,346.59375,-104.00625610351562,27.843751907348633
1779997192272674800,27.1996748046875,346.6500244140625,-104.00625610351562,27.825000762939453
1779997192292753000,27.2197529296875,346.6312561035156,-104.00625610351562,27.806251525878906
1779997192312535000,27.23953515625,346.6125183105469,-104.0250015258789,27.787500381469727
1779997192332661500,27.25966162109375,346.6875,-104.0250015258789,27.76875114440918
1779997192352995000,27.2799951171875,346.6125183105469,-104.04375457763672,27.750001907348633
1779997192372650000,27.29964990234375,346.57501220703125,-104.06250762939453,27.750001907348633
1779997192392449800,27.31944970703125,346.57501220703125,-104.06250762939453,27.731250762939453
1779997192412350200,27.33935009765625,346.59375,-104.06250762939453,27.731250762939453
1779997192432409600,27.35940966796875,346.5375061035156,-104.08125305175781,27.693750381469727
1779997192452361500,27.379361572265626,346.48126220703125,-104.08125305175781,27.67500114440918
1779997192472803600,27.399803466796875,346.5,-104.10000610351562,27.67500114440918
1779997192492583200,27.419583251953124,346.59375,-104.08125305175781,27.67500114440918
1779997192512443000,27.43944287109375,346.5562744140625,-104.10000610351562,27.656251907348633
1779997192532563000,27.45956298828125,346.4437561035156,-104.08125305175781,27.637500762939453
1779997192552643000,27.47964306640625,346.5,-104.10000610351562,27.618751525878906
1779997192572979000,27.49997900390625,346.48126220703125,-104.1187515258789,27.618751525878906
1779997192592848600,27.5198486328125,346.66876220703125,-104.1187515258789,27.600000381469727
1779997192612957700,27.539957763671875,346.875,-104.10000610351562,27.600000381469727
1779997192632594400,27.559594482421875,346.875,-104.10000610351562,27.600000381469727
1779997192652849700,27.579849609375,346.9312744140625,-104.10000610351562,27.600000381469727
1779997192673007600,27.600007568359374,347.13751220703125,-104.08125305175781,27.618751525878906
1779997192692624000,27.619623779296877,347.13751220703125,-104.08125305175781,27.600000381469727
1779997192712406300,27.63940625,347.1937561035156,-104.10000610351562,27.600000381469727
1779997192732575700,27.65957568359375,347.41876220703125,-104.10000610351562,27.618751525878906
1779997192752786400,27.679786376953125,347.53125,-104.10000610351562,27.618751525878906
1779997192772553700,27.6995537109375,347.70001220703125,-104.10000610351562,27.600000381469727
1779997192792415700,27.719415771484375,347.88751220703125,-104.08125305175781,27.600000381469727
1779997192812486100,27.739486083984374,348.1312561035156,-104.08125305175781,27.58125114440918
1779997192832390000,27.759389892578124,348.09375,-104.10000610351562,27.562501907348633
1779997192852655600,27.779655517578124,348.0187683105469,-104.10000610351562,27.58125114440918
1779997192872737300,27.7997373046875,348.0375061035156,-104.08125305175781,27.562501907348633
1779997192892531700,27.81953173828125,347.8312683105469,-104.08125305175781,27.525001525878906
1779997192912402000,27.83940185546875,347.8687744140625,-104.10000610351562,27.525001525878906
1779997192932544000,27.8595439453125,347.90625,-104.08125305175781,27.48750114440918
1779997192952428300,27.87942822265625,347.9437561035156,-104.10000610351562,27.48750114440918
1779997192972360200,27.899360107421874,347.7750244140625,-104.1187515258789,27.468751907348633
1779997192992721700,27.9197216796875,347.90625,-104.10000610351562,27.48750114440918
1779997193012770600,27.9397705078125,347.7562561035156,-104.10000610351562,27.48750114440918
1779997193032749300,27.959749267578125,347.6625061035156,-104.10000610351562,27.468751907348633
