time,seconds_elapsed,z,y,x
1779997165280552000,0.207552001953125,9.727950096130371,-0.3379500210285187,-1.4659500122070312
1779997165297919000,0.2249189453125,9.700950622558594,-0.31200000643730164,-1.4749500751495361
1779997165315194400,0.2421943359375,9.582000732421875,-0.3360000252723694,-1.453950047492981
1779997165332470800,0.259470703125,9.619950294494629,-0.3340500295162201,-1.4590500593185425
1779997165349747200,0.276747314453125,9.708000183105469,-0.35805001854896545,-1.450950026512146
1779997165367023400,0.2940234375,9.723000526428223,-0.34800001978874207,-1.4659500122070312
1779997165384300000,0.311300048828125,9.670050621032715,-0.3430500030517578,-1.4830501079559326
1779997165401576200,0.328576171875,9.58905029296875,-0.37005001306533813,-1.4610000848770142
1779997165418852600,0.3458525390625,9.768000602722168,-0.3460500240325928,-1.4989501237869263
1779997165436129000,0.36312890625,9.904950141906738,-0.29100000858306885,-1.5540000200271606
1779997165453405400,0.380405517578125,9.87405014038086,-0.3550500273704529,-1.53000009059906
1779997165470681600,0.397681640625,9.739950180053711,-0.3960000276565552,-1.4899500608444214
1779997165487958000,0.4149580078125,9.795000076293945,-0.3769500255584717,-1.492050051689148
1779997165505234400,0.432234375,9.808950424194336,-0.34995001554489136,-1.516050100326538
1779997165522510800,0.4495107421875,9.771000862121582,-0.3550500273704529,-1.516050100326538
1779997165539787300,0.466787353515625,9.723000526428223,-0.3720000088214874,-1.4970000982284546
1779997165557063700,0.484063720703125,9.754050254821777,-0.3739500045776367,-1.4989501237869263
1779997165574340000,0.501340087890625,9.723000526428223,-0.34800001978874207,-1.5210000276565552
1779997165591616300,0.5186162109375,9.655950546264648,-0.36705002188682556,-1.492050051689148
1779997165608893000,0.535892822265625,9.703950881958008,-0.35805001854896545,-1.5019500255584717
1779997165626169300,0.55316943359375,9.708000183105469,-0.3550500273704529,-1.516050100326538
1779997165643445500,0.570445556640625,9.732000350952148,-0.34095001220703125,-1.5180001258850098
1779997165660722000,0.587721923828125,9.718050003051758,-0.3720000088214874,-1.5040500164031982
1779997165677998300,0.604998291015625,9.735000610351562,-0.3550500273704529,-1.5180001258850098
1779997165695274800,0.622274658203125,9.535950660705566,-0.34800001978874207,-1.516050100326538
1779997165712551200,0.63955126953125,9.631950378417969,-0.36000001430511475,-1.5180001258850098
1779997165729827300,0.656827392578125,9.782999992370605,-0.364950031042099,-1.5180001258850098
1779997165747104000,0.67410400390625,9.82800006866455,-0.3859500288963318,-1.5210000276565552
1779997165764380200,0.691380126953125,9.928950309753418,-0.3820500075817108,-1.5400500297546387
1779997165781656600,0.708656494140625,9.86400032043457,-0.36000001430511475,-1.549950122833252
1779997165798933000,0.72593310546875,9.652950286865234,-0.3960000276565552,-1.516050100326538
1779997165816209400,0.74320947265625,9.687000274658203,-0.36195001006126404,-1.5400500297546387
1779997165833485800,0.76048583984375,9.766050338745117,-0.33105000853538513,-1.5810000896453857
1779997165850762000,0.777761962890625,9.844950675964355,-0.3739500045776367,-1.5640500783920288
1779997165868038400,0.795038330078125,9.768000602722168,-0.3930000066757202,-1.537950038909912
1779997165885314600,0.812314453125,9.618000030517578,-0.3720000088214874,-1.5450000762939453
1779997165902591200,0.82959130859375,9.417000770568848,-0.36705002188682556,-1.537950038909912
1779997165919867400,0.846867431640625,9.670050621032715,-0.364950031042099,-1.5420000553131104
1779997165937143800,0.864143798828125,9.940950393676758,-0.34095001220703125,-1.588050127029419
1779997165954420500,0.88142041015625,9.735000610351562,-0.40095001459121704,-1.5450000762939453
1779997165971697000,0.89869677734375,9.771000862121582,-0.3720000088214874,-1.5709500312805176
1779997165988973000,0.91597314453125,9.945000648498535,-0.31905001401901245,-1.6309500932693481
1779997166006249500,0.93324951171875,9.844950675964355,-0.3910500109195709,-1.588050127029419
1779997166023526100,0.950526123046875,10.009950637817383,-0.3960000276565552,-1.5709500312805176
1779997166040802300,0.96780224609375,9.86400032043457,-0.3840000033378601,-1.5660001039505005
1779997166058078700,0.98507861328125,9.748950004577637,-0.3930000066757202,-1.5640500783920288
1779997166075355100,1.002355224609375,9.652950286865234,-0.3859500288963318,-1.53000009059906
1779997166092631600,1.019631591796875,9.618000030517578,-0.36000001430511475,-1.5259500741958618
1779997166109908000,1.036907958984375,9.555000305175781,-0.34995001554489136,-1.5139501094818115
1779997166127184400,1.054184326171875,9.510000228881836,-0.3720000088214874,-1.5019500255584717
1779997166144460500,1.07146044921875,9.634050369262695,-0.34995001554489136,-1.5109500885009766
1779997166161737200,1.0887373046875,9.826050758361816,-0.33105000853538513,-1.5349500179290771
1779997166179013400,1.106013427734375,9.673050880432129,-0.37905001640319824,-1.516050100326538
1779997166196289800,1.123289794921875,9.634050369262695,-0.41505002975463867,-1.4970000982284546
1779997166213566500,1.14056640625,9.715950012207031,-0.3840000033378601,-1.533000111579895
1779997166230842600,1.157842529296875,9.865950584411621,-0.3550500273704529,-1.5810000896453857
1779997166248119000,1.175119140625,9.792000770568848,-0.3720000088214874,-1.5660001039505005
1779997166265395500,1.1923955078125,9.829950332641602,-0.3840000033378601,-1.5690001249313354
1779997166282671900,1.209671875,9.747000694274902,-0.3739500045776367,-1.5540000200271606
1779997166299948300,1.2269482421875,9.763050079345703,-0.3910500109195709,-1.5259500741958618
1779997166317224700,1.244224609375,9.715950012207031,-0.3910500109195709,-1.50600004196167
1779997166334501000,1.261501220703125,9.778050422668457,-0.3550500273704529,-1.537950038909912
1779997166351777500,1.278777587890625,9.688950538635254,-0.36705002188682556,-1.5420000553131104
1779997166369054000,1.296053955078125,9.619950294494629,-0.3720000088214874,-1.5229500532150269
1779997166386330000,1.313330078125,9.61500072479248,-0.35805001854896545,-1.5259500741958618
1779997166403606500,1.3306064453125,9.535950660705566,-0.35805001854896545,-1.5109500885009766
1779997166420883000,1.347883056640625,9.62505054473877,-0.3910500109195709,-1.516050100326538
1779997166438159400,1.365159423828125,9.814050674438477,-0.35295000672340393,-1.5730500221252441
1779997166455436000,1.38243603515625,9.90195083618164,-0.34995001554489136,-1.602000117301941
1779997166472712200,1.399712158203125,9.92400074005127,-0.3859500288963318,-1.5780000686645508
1779997166489988600,1.416988525390625,9.792000770568848,-0.40095001459121704,-1.5520501136779785
1779997166507264800,1.4342646484375,9.708000183105469,-0.3859500288963318,-1.5540000200271606
1779997166524541400,1.45154150390625,9.782999992370605,-0.35805001854896545,-1.5660001039505005
1779997166541817600,1.468817626953125,9.802050590515137,-0.34800001978874207,-1.5709500312805176
1779997166559094000,1.486093994140625,9.687000274658203,-0.3859500288963318,-1.537950038909912
1779997166576370400,1.503370361328125,9.82800006866455,-0.364950031042099,-1.5589500665664673
1779997166593646800,1.520646728515625,9.807000160217285,-0.3340500295162201,-1.5640500783920288
1779997166610923300,1.53792333984375,9.646050453186035,-0.36195001006126404,-1.53000009059906
1779997166628199700,1.55519970703125,9.586050033569336,-0.3550500273704529,-1.5090000629425049
1779997166645476000,1.57247607421875,9.61500072479248,-0.35295000672340393,-1.5229500532150269
1779997166662752500,1.58975244140625,9.676950454711914,-0.32895001769065857,-1.5400500297546387
1779997166680029000,1.60702880859375,9.673050880432129,-0.3360000252723694,-1.5259500741958618
1779997166697305000,1.62430517578125,9.619950294494629,-0.37005001306533813,-1.4970000982284546
1779997166714581800,1.641581787109375,9.730050086975098,-0.3840000033378601,-1.516050100326538
1779997166731858200,1.658858154296875,9.835050582885742,-0.33105000853538513,-1.5589500665664673
1779997166749134300,1.67613427734375,9.763050079345703,-0.36195001006126404,-1.5520501136779785
1779997166766411000,1.693410888671875,9.897000312805176,-0.3240000009536743,-1.5610500574111938
1779997166783687400,1.7106875,9.916950225830078,-0.31200000643730164,-1.5780000686645508
1779997166800963600,1.727963623046875,9.943050384521484,-0.34095001220703125,-1.5690001249313354
1779997166818240300,1.745240234375,9.94800090789795,-0.3240000009536743,-1.5709500312805176
1779997166835516400,1.762516357421875,9.853950500488281,-0.27900001406669617,-1.5730500221252441
1779997166852792800,1.779792724609375,9.86205005645752,-0.27900001406669617,-1.576050043106079
1779997166870069200,1.7970693359375,10.017000198364258,-0.32895001769065857,-1.5420000553131104
1779997166887345700,1.814345703125,10.735050201416016,-0.30705001950263977,-1.549950122833252
1779997166904622000,1.8316220703125,11.209050178527832,-0.42000001668930054,-1.4440500736236572
1779997166921898500,1.8488984375,14.274001121520996,-0.7260000109672546,-1.602000117301941
1779997166939175000,1.8661748046875,22.48695182800293,-0.8239500522613525,-2.3460001945495605
1779997166956451300,1.883451416015625,23.281051635742188,0.5580000281333923,-3.1030502319335938
1779997166973727500,1.9007275390625,9.688950538635254,-1.0320000648498535,-2.0500500202178955
1779997166991004000,1.91800390625,-9.039000511169434,-0.08205000311136246,0.3930000066757202
1779997167008280600,1.935280517578125,-9.727950096130371,-0.7000500559806824,2.0239500999450684
1779997167025557000,1.952556884765625,-7.408950328826904,-0.25005000829696655,0.8850000500679016
1779997167042833400,1.96983349609375,1.9030500650405884,2.158950090408325,-2.136000156402588
1779997167060109800,1.98710986328125,16.156949996948242,1.8190500736236572,-3.765000104904175
1779997167077386000,2.004385986328125,63.037052154541016,-4.5520501136779785,-2.7649500370025635
1779997167094662700,2.02166259765625,18.00495147705078,-2.887050151824951,-1.915950059890747
1779997167111938800,2.038938720703125,2.4100501537323,2.218950033187866,-1.76295006275177
1779997167129215200,2.05621533203125,-7.350000381469727,0.3550500273704529,0.5790000557899475
1779997167146492000,2.073491943359375,-10.582050323486328,-1.1380500793457031,1.9690500497817993
1779997167163768000,2.09076806640625,-7.462050437927246,-0.3430500030517578,1.1920500993728638
1779997167181044500,2.10804443359375,1.6639500856399536,1.120050072669983,-1.6000500917434692
1779997167198320600,2.125320556640625,14.524950981140137,0.8209500312805176,-3.201000213623047
1779997167215597300,2.142597412109375,56.458953857421875,-3.5329501628875732,-2.69100022315979
1779997167232873700,2.159873779296875,16.03995132446289,-0.6400500535964966,-1.6309500932693481
1779997167250150000,2.17714990234375,7.818000316619873,1.2570000886917114,-1.741050124168396
1779997167267426600,2.194426513671875,5.782050132751465,-0.89805006980896,-0.32895001769065857
1779997167284703000,2.211702880859375,-7.804050445556641,-0.6330000162124634,0.37800002098083496
1779997167301979100,2.228979248046875,-6.402000427246094,-0.41505002975463867,0.921000063419342
1779997167319255600,2.246255615234375,-0.39795002341270447,1.582050085067749,-0.5920500159263611
1779997167336532200,2.2635322265625,10.936050415039062,2.575050115585327,-2.6550002098083496
1779997167353808400,2.280808349609375,30.402002334594727,-2.578050136566162,-2.064000129699707
1779997167371085000,2.2980849609375,43.00605392456055,-4.332000255584717,-1.6000500917434692
1779997167388361500,2.315361572265625,8.67495059967041,1.891050100326538,-2.9950501918792725
1779997167405637600,2.3326376953125,-0.6180000305175781,1.651050090789795,-1.0350000858306885
1779997167422914300,2.349914306640625,-6.1459503173828125,-0.5350500345230103,1.081950068473816
1779997167440190700,2.367190673828125,-5.797050476074219,-0.4320000112056732,1.1820000410079956
1779997167457467000,2.384466796875,0.4020000100135803,0.5359500050544739,-0.6139500141143799
1779997167474743600,2.40174365234375,10.48905086517334,0.39795002341270447,-1.9729501008987427
1779997167492019700,2.419019775390625,44.791053771972656,-2.514000177383423,-2.245950222015381
1779997167509296400,2.43629638671875,17.160001754760742,0.14205001294612885,-1.645050048828125
1779997167526572500,2.453572509765625,16.72395133972168,0.16305001080036163,-1.3150500059127808
1779997167543849000,2.470848876953125,12.094050407409668,-1.3170000314712524,-1.1209501028060913
1779997167561125400,2.48812548828125,-5.445000171661377,-0.5080500245094299,0.7470000386238098
1779997167578401800,2.50540185546875,-7.06695032119751,-0.13005000352859497,1.2109500169754028
1779997167595678200,2.52267822265625,-3.5500502586364746,0.9379500150680542,0.18900001049041748
1779997167612954600,2.53995458984375,6.202950477600098,1.963050127029419,-1.450950026512146
1779997167630231000,2.55723095703125,20.73495101928711,-2.052000045776367,-1.6960500478744507
1779997167647507500,2.574507568359375,46.279052734375,-3.6450002193450928,-1.602000117301941
1779997167664784100,2.5917841796875,9.985950469970703,1.4170501232147217,-2.6479501724243164
1779997167682060300,2.609060302734375,4.4320502281188965,1.3930500745773315,-1.2340500354766846
1779997167699336700,2.626336669921875,-1.8049501180648804,-0.26205000281333923,0.16305001080036163
1779997167716613400,2.64361328125,-3.175950050354004,-0.48405003547668457,0.6720000505447388
1779997167733889500,2.6608896484375,2.209050178527832,-0.22605000436306,0.04305000230669975
1779997167751166000,2.678166015625,8.730000495910645,0.1969500035047531,-1.1569499969482422
1779997167768442600,2.695442626953125,25.23600196838379,-0.5610000491142273,-1.7050501108169556
1779997167785719000,2.712718994140625,25.506000518798828,-0.3859500288963318,-1.6189501285552979
1779997167802995500,2.729995361328125,19.720050811767578,-0.25200000405311584,-1.453950047492981
1779997167820271900,2.74727197265625,8.835000038146973,-0.25200000405311584,-0.9030000567436218
1779997167837548300,2.76454833984375,-2.5920000076293945,0.028950002044439316,0.14400000870227814
1779997167854824700,2.78182470703125,-4.501950263977051,-0.11100000888109207,0.8160000443458557
1779997167872101000,2.79910107421875,-0.9940500259399414,0.1579500138759613,0.20595000684261322
1779997167889377500,2.81637744140625,6.250950336456299,0.6580500602722168,-1.2310500144958496
1779997167906654000,2.833654052734375,27.75105094909668,-1.1779500246047974,-1.8079501390457153
1779997167923930400,2.850930419921875,24.067951202392578,-0.7980000376701355,-1.1359500885009766
1779997167941206800,2.868206787109375,13.309950828552246,0.5320500135421753,-1.1710500717163086
1779997167958483200,2.885483154296875,18.154951095581055,-1.308000087738037,-1.0330500602722168
1779997167975759600,2.902759521484375,-2.659050226211548,-0.07800000160932541,-0.544950008392334
1779997167993036000,2.9200361328125,-3.6289501190185547,0.08400000631809235,0.5650500059127808
1779997168010312400,2.9373125,-1.755000114440918,0.4069500267505646,0.21105000376701355
1779997168027589000,2.954589111328125,4.669050216674805,0.89805006980896,-0.8910000324249268
1779997168044865300,2.971865234375,17.016000747680664,-0.8959500193595886,-1.5690001249313354
1779997168062141700,2.9891416015625,37.018951416015625,-2.2860000133514404,-1.4659500122070312
1779997168079418400,3.00641845703125,11.488950729370117,1.3950001001358032,-2.200050115585327
1779997168096694500,3.023694580078125,8.026050567626953,0.4620000123977661,-0.4420500099658966
1779997168113971000,3.040970947265625,11.034000396728516,-1.5520501136779785,-0.07095000147819519
1779997168131247600,3.05824755859375,-4.380000114440918,-0.19200000166893005,0.5580000281333923
1779997168148523800,3.075523681640625,-2.182950019836426,0.45000001788139343,0.5410500168800354
1779997168165800400,3.092800537109375,3.0390000343322754,0.9379500150680542,-0.6400500535964966
1779997168183076900,3.110076904296875,11.449950218200684,0.22500000894069672,-1.2960000038146973
1779997168200353000,3.12735302734375,41.70600128173828,-3.223950147628784,-1.3870500326156616
1779997168217629700,3.144629638671875,9.897000312805176,0.5959500074386597,-1.7269500494003296
1779997168234906000,3.161906005859375,6.313050270080566,0.62295001745224,-0.7290000319480896
1779997168252182500,3.1791826171875,8.055000305175781,-0.7500000596046448,-0.19005000591278076
1779997168269459000,3.196458984375,0.9150000214576721,-0.5389500260353088,0.5070000290870667
1779997168286735400,3.2137353515625,0.36705002188682556,0.24705001711845398,0.5650500059127808
1779997168304011800,3.23101171875,4.498950004577637,0.8640000224113464,-0.6880500316619873
1779997168321288200,3.2482880859375,11.71095085144043,0.040950000286102295,-0.9390000700950623
1779997168338564600,3.265564697265625,35.24100112915039,-2.40405011177063,-1.1809500455856323
1779997168355841000,3.282841064453125,9.892950057983398,0.9499500393867493,-1.3840500116348267
1779997168373117700,3.30011767578125,8.67495059967041,0.19200000166893005,-0.42000001668930054
1779997168390393900,3.317393798828125,12.984000205993652,-1.284000039100647,-0.2550000250339508
1779997168407670500,3.33467041015625,-2.1090002059936523,0.16305001080036163,-0.031950000673532486
1779997168424947000,3.351947021484375,-0.12105000764131546,0.4330500066280365,0.18195000290870667
1779997168442223400,3.369223388671875,3.9370501041412354,0.534000039100647,-0.43695002794265747
1779997168459499800,3.386499755859375,16.332000732421875,-0.7500000596046448,-1.0609500408172607
1779997168476776400,3.4037763671875,24.553951263427734,-1.2550500631332397,-0.8100000619888306
1779997168494052600,3.421052490234375,10.419000625610352,1.0219500064849854,-1.2859500646591187
1779997168511329000,3.4383291015625,17.907001495361328,-1.0230000019073486,-0.3240000009536743
1779997168528605400,3.45560546875,3.484950065612793,-0.24000000953674316,0.18000000715255737
1779997168545881900,3.4728818359375,-0.7399500608444214,0.33105000853538513,0.7849500179290771
1779997168563158500,3.490158447265625,0.24705001711845398,0.18495000898838043,0.37095001339912415
1779997168580435000,3.50743505859375,4.8480000495910645,0.17295001447200775,-0.18105000257492065
1779997168597711400,3.52471142578125,22.00605010986328,-1.240950107574463,-0.8629500269889832
1779997168614987800,3.54198779296875,12.55095100402832,0.4429500102996826,-0.9799500703811646
1779997168632264200,3.55926416015625,21.196950912475586,-0.6450000405311584,-0.8509500622749329
1779997168649540600,3.57654052734375,11.814000129699707,-0.35805001854896545,-0.5470499992370605
1779997168666817300,3.5938173828125,2.616000175476074,0.3040500283241272,-0.05595000088214874
1779997168684093400,3.611093505859375,4.225950241088867,-0.3840000033378601,0.37095001339912415
1779997168701369900,3.628369873046875,1.4980500936508179,-0.04905000329017639,0.37605002522468567
1779997168718646500,3.645646484375,4.864950180053711,0.2639999985694885,-0.3079500198364258
1779997168735922700,3.662922607421875,17.260051727294922,-0.6420000195503235,-0.7980000376701355
1779997168753199400,3.680199462890625,15.790950775146484,-0.019950000569224358,-0.8839500546455383
1779997168770475800,3.697475830078125,19.078950881958008,-0.3930000066757202,-0.8820000290870667
1779997168787752200,3.714752197265625,12.243000984191895,-0.2740500271320343,-0.6310500502586365
1779997168805028600,3.732028564453125,4.489950180053711,0.10095000267028809,-0.10695000737905502
1779997168822305300,3.74930517578125,3.58305025100708,-0.23805001378059387,0.25905001163482666
1779997168839581700,3.766581787109375,1.1040000915527344,0.08400000631809235,0.28005000948905945
1779997168856858000,3.783858154296875,6.753000259399414,-0.039000000804662704,-0.22395001351833344
1779997168874134500,3.801134521484375,15.088050842285156,-0.3820500075817108,-0.7219500541687012
1779997168891411200,3.8184111328125,16.39695167541504,-0.09405000507831573,-0.8940000534057617
1779997168908687400,3.835687255859375,19.30605125427246,-0.4720500111579895,-0.8680500388145447
1779997168925963800,3.8529638671875,10.789950370788574,-0.031950000673532486,-0.6160500049591064
1779997168943240400,3.870240478515625,6.57105016708374,-0.17295001447200775,-0.07304999977350235
1779997168960517000,3.88751708984375,1.8840000629425049,-0.027000000700354576,0.2850000262260437
1779997168977793300,3.904793212890625,1.4860501289367676,0.06705000251531601,0.26100000739097595
1779997168995070000,3.922070068359375,8.014050483703613,-0.21405000984668732,-0.21900001168251038
1779997169012346400,3.939346435546875,13.317000389099121,-0.20205001533031464,-0.7189500331878662
1779997169029622800,3.956622802734375,17.847000122070312,-0.2569500207901001,-0.8700000643730164
1779997169046899200,3.973899169921875,17.842050552368164,-0.364950031042099,-0.8560500144958496
1779997169064175600,3.991175537109375,11.461950302124023,-0.08700000494718552,-0.6019500494003296
1779997169081452000,4.0084521484375,6.624000549316406,-0.2070000171661377,-0.12105000764131546
1779997169098728700,4.025728759765625,1.5799500942230225,0.06000000238418579,0.26295000314712524
1779997169116004900,4.0430048828125,2.451000213623047,-0.003000000026077032,0.24195000529289246
1779997169133281500,4.060281494140625,7.813050270080566,-0.19005000591278076,-0.2070000171661377
1779997169150558000,4.077557861328125,13.20405101776123,-0.12300000339746475,-0.7050000429153442
1779997169167834000,4.094834228515625,18.06705093383789,-0.36195001006126404,-0.8560500144958496
1779997169185110800,4.11211083984375,17.047950744628906,-0.24300001561641693,-0.8410500288009644
1779997169202387500,4.129387451171875,12.106050491333008,-0.19995000958442688,-0.5779500007629395
1779997169219664000,4.146663818359375,6.058950424194336,-0.1469999998807907,-0.11100000888109207
1779997169236940300,4.163940185546875,1.9960501194000244,0.06000000238418579,0.21300001442432404
1779997169254216700,4.181216796875,2.7739500999450684,-0.05595000088214874,0.2440500110387802
1779997169271493000,4.1984931640625,7.504950523376465,-0.14505000412464142,-0.1860000044107437
1779997169288769500,4.21576953125,13.506000518798828,-0.15195000171661377,-0.6930000185966492
1779997169306046200,4.233046142578125,17.554950714111328,-0.32895001769065857,-0.8290500640869141
1779997169323322600,4.250322509765625,17.07900047302246,-0.23295001685619354,-0.8239500522613525
1779997169340599000,4.26759912109375,11.986950874328613,-0.19995000958442688,-0.5730000138282776
1779997169357875500,4.28487548828125,6.022950172424316,-0.09195000678300858,-0.10695000737905502
1779997169375152000,4.302152099609375,2.2829999923706055,0.010050000622868538,0.23895001411437988
1779997169392428500,4.319428466796875,2.7930002212524414,-0.05400000140070915,0.24900001287460327
1779997169409705000,4.336705078125,7.660050392150879,-0.1399500072002411,-0.21405000984668732
1779997169426981400,4.3539814453125,13.555951118469238,-0.19200000166893005,-0.7260000109672546
1779997169444257800,4.3712578125,17.386951446533203,-0.2950500249862671,-0.8050500154495239
1779997169461534200,4.3885341796875,16.927949905395508,-0.2740500271320343,-0.8100000619888306
1779997169478811000,4.405810791015625,11.745000839233398,-0.17595000565052032,-0.5520000457763672
1779997169496087600,4.423087646484375,6.1810503005981445,-0.1279500126838684,-0.1189500093460083
1779997169513363700,4.44036376953125,2.4150002002716064,0.024000000208616257,0.226950004696846
1779997169530640400,4.457640380859375,2.998950242996216,-0.04200000315904617,0.23205001652240753
1779997169547916800,4.474916748046875,7.785000324249268,-0.14205001294612885,-0.20205001533031464
1779997169565193200,4.492193115234375,13.354950904846191,-0.1660500019788742,-0.6829500198364258
1779997169582469600,4.5094697265625,17.320051193237305,-0.31905001401901245,-0.8130000233650208
1779997169599746300,4.526746337890625,16.741050720214844,-0.25005000829696655,-0.8029500246047974
1779997169617022500,4.5440224609375,11.745000839233398,-0.1879500150680542,-0.544950008392334
1779997169634299100,4.561299072265625,6.177000522613525,-0.10200000554323196,-0.0970500037074089
1779997169651575600,4.578575439453125,2.508000135421753,-0.025050001218914986,0.21300001442432404
1779997169668852200,4.595852294921875,3.195000171661377,-0.022950001060962677,0.18405000865459442
1779997169686128600,4.613128662109375,7.8319501876831055,-0.1489500105381012,-0.21405000984668732
1779997169703405000,4.630405029296875,13.438950538635254,-0.1969500035047531,-0.6550500392913818
1779997169720681500,4.647681396484375,17.137950897216797,-0.29295000433921814,-0.7890000343322754
1779997169737958000,4.6649580078125,16.520999908447266,-0.2569500207901001,-0.778950035572052
1779997169755234300,4.682234375,11.65095043182373,-0.17100000381469727,-0.5230500102043152
1779997169772511000,4.699510986328125,6.174000263214111,-0.0990000069141388,-0.10395000129938126
1779997169789787400,4.716787353515625,2.704050064086914,0.024000000208616257,0.22500000894069672
1779997169807063800,4.734063720703125,3.3510000705718994,-0.07500000298023224,0.22305001318454742
1779997169824340200,4.75134033203125,7.939950466156006,-0.14505000412464142,-0.19995000958442688
1779997169841617000,4.768616943359375,13.4170503616333,-0.15195000171661377,-0.7219500541687012
1779997169858893300,4.785893310546875,17.059051513671875,-0.31200000643730164,-0.7669500112533569
1779997169876170000,4.803169921875,16.33905029296875,-0.24795001745224,-0.778950035572052
1779997169893446100,4.820446044921875,11.553000450134277,-0.18300001323223114,-0.5089499950408936
1779997169910722800,4.837722900390625,6.199950218200684,-0.12105000764131546,-0.09000000357627869
1779997169927999200,4.854999267578125,2.8339500427246094,-0.006000000052154064,0.20295001566410065
1779997169945275600,4.872275634765625,3.5350501537323,-0.034950003027915955,0.18405000865459442
1779997169962552000,4.889552001953125,7.998000144958496,-0.14205001294612885,-0.21900001168251038
1779997169979828700,4.906828857421875,13.37700080871582,-0.20400001108646393,-0.6520500183105469
1779997169997105200,4.924105224609375,16.867950439453125,-0.27105000615119934,-0.7570500373840332
1779997170014381600,4.941381591796875,16.2049503326416,-0.2639999985694885,-0.7600500583648682
1779997170031658000,4.958657958984375,11.503050804138184,-0.17100000381469727,-0.5040000081062317
1779997170048934700,4.9759345703125,6.211950302124023,-0.09195000678300858,-0.0970500037074089
1779997170066211000,4.993211181640625,2.9440500736236572,-0.018000001087784767,0.19200000166893005
1779997170083487500,5.010487548828125,3.7069501876831055,-0.04200000315904617,0.14400000870227814
1779997170100764200,5.02776416015625,8.12700080871582,-0.1660500019788742,-0.19500000774860382
1779997170118040600,5.04504052734375,13.4170503616333,-0.17295001447200775,-0.6499500274658203
1779997170135317000,5.06231689453125,16.762950897216797,-0.29295000433921814,-0.7549500465393066
1779997170152593700,5.07959375,16.02105140686035,-0.24000000953674316,-0.753000020980835
1779997170169870000,5.0968701171875,11.359950065612793,-0.17595000565052032,-0.492000013589859
1779997170187146500,5.114146484375,6.217050075531006,-0.12495000660419464,-0.08505000174045563
1779997170204423200,5.131423095703125,3.078000068664551,0.024000000208616257,0.19395001232624054
1779997170221699600,5.148699462890625,3.862950086593628,-0.030000001192092896,0.1770000010728836
1779997170238976000,5.16597607421875,8.218050003051758,-0.13695000112056732,-0.23805001378059387
1779997170256252400,5.18325244140625,13.398000717163086,-0.23100000619888306,-0.6310500502586365
1779997170273528800,5.20052880859375,16.746000289916992,-0.2639999985694885,-0.7410000562667847
1779997170290805200,5.21780517578125,15.85305118560791,-0.2740500271320343,-0.7500000596046448
1779997170308082000,5.23508203125,11.248950958251953,-0.16905000805854797,-0.46095001697540283
1779997170325358300,5.2523583984375,6.190950393676758,-0.0990000069141388,-0.09195000678300858
1779997170342634800,5.269634765625,3.1399500370025635,-0.04200000315904617,0.19200000166893005
1779997170359911400,5.286911376953125,4.047000408172607,-0.04905000329017639,0.10095000267028809
1779997170377187800,5.304187744140625,8.365950584411621,-0.1399500072002411,-0.2650500237941742
1779997170394464300,5.32146435546875,13.480051040649414,-0.21195000410079956,-0.5850000381469727
1779997170411740700,5.33874072265625,16.617000579833984,-0.26205000281333923,-0.7410000562667847
1779997170429017300,5.356017333984375,15.661951065063477,-0.24300001561641693,-0.7099500298500061
1779997170446293800,5.373293701171875,11.122950553894043,-0.16395001113414764,-0.46095001697540283
1779997170463570200,5.390570068359375,6.1020002365112305,-0.09405000507831573,-0.07304999977350235
1779997170480846800,5.407846923828125,3.2380502223968506,-0.04200000315904617,0.19395001232624054
1779997170498123300,5.425123291015625,4.188000202178955,-0.04905000329017639,0.11700000613927841
1779997170515400000,5.44239990234375,8.538000106811523,-0.13695000112056732,-0.27900001406669617
1779997170532676400,5.45967626953125,13.542000770568848,-0.22395001351833344,-0.6019500494003296
1779997170549952800,5.476952880859375,16.54305076599121,-0.2550000250339508,-0.7410000562667847
1779997170567229400,5.4942294921875,15.502050399780273,-0.24300001561641693,-0.7050000429153442
1779997170584505900,5.511505859375,10.960050582885742,-0.17295001447200775,-0.4420500099658966
1779997170601782300,5.5287822265625,6.073950290679932,-0.10605000704526901,-0.07605000585317612
1779997170619058700,5.54605859375,3.3289501667022705,-0.05595000088214874,0.18405000865459442
1779997170636335000,5.563335205078125,4.381950378417969,-0.010950000956654549,0.08595000207424164
1779997170653611800,5.58061181640625,8.682000160217285,-0.1489500105381012,-0.2670000195503235
1779997170670888200,5.59788818359375,13.578001022338867,-0.22095000743865967,-0.6070500016212463
1779997170688164600,5.61516455078125,16.453950881958008,-0.2760000228881836,-0.7309500575065613
1779997170705441000,5.63244091796875,15.316950798034668,-0.24300001561641693,-0.7000500559806824
1779997170722717700,5.6497177734375,10.821000099182129,-0.18105000257492065,-0.42705002427101135
1779997170739994000,5.666994140625,6.043050289154053,-0.1279500126838684,-0.06105000153183937
1779997170757270500,5.6842705078125,3.4150502681732178,0.004950000438839197,0.18195000290870667
1779997170774547200,5.701547119140625,4.534950256347656,-0.05400000140070915,0.09105000644922256
1779997170791824000,5.718823974609375,8.836950302124023,-0.14505000412464142,-0.28395000100135803
1779997170809100000,5.73610009765625,13.603950500488281,-0.21195000410079956,-0.5920500159263611
1779997170826376700,5.753376708984375,16.37700080871582,-0.28095000982284546,-0.7339500188827515
1779997170843653400,5.7706533203125,15.13800048828125,-0.25200000405311584,-0.6880500316619873
1779997170860929500,5.787929443359375,10.705950736999512,-0.15900000929832458,-0.41805002093315125
1779997170878206200,5.805206298828125,6.007050514221191,-0.10200000554323196,-0.05400000140070915
1779997170895482600,5.822482666015625,3.5179500579833984,0.012000000104308128,0.18900001049041748
1779997170912759000,5.839759033203125,4.686000347137451,-0.06300000101327896,0.09600000083446503
1779997170930035500,5.857035400390625,8.959050178527832,-0.15195000171661377,-0.29100000858306885
1779997170947312000,5.87431201171875,13.635000228881836,-0.22395001351833344,-0.6000000238418579
1779997170964588500,5.891588623046875,16.296001434326172,-0.25200000405311584,-0.7429500222206116
1779997170981865000,5.908864990234375,14.974950790405273,-0.24495001137256622,-0.6640500426292419
1779997170999141600,5.9261416015625,10.596000671386719,-0.15405000746250153,-0.40800002217292786
1779997171016418300,5.943418212890625,5.983050346374512,-0.10200000554323196,-0.04200000315904617
1779997171033694500,5.960694580078125,3.5850002765655518,-0.037050001323223114,0.16995000839233398
1779997171050971100,5.97797119140625,4.863000392913818,-0.06300000101327896,0.05505000427365303
1779997171068247600,5.99524755859375,9.088950157165527,-0.15195000171661377,-0.30000001192092896
1779997171085524200,6.012524169921875,13.708950996398926,-0.21405000984668732,-0.597000002861023
1779997171102800600,6.029800537109375,16.211999893188477,-0.2569500207901001,-0.7120500206947327
1779997171120077000,6.0470771484375,14.80095100402832,-0.23100000619888306,-0.6520500183105469
1779997171137353500,6.064353515625,10.44795036315918,-0.1660500019788742,-0.3820500075817108
1779997171154630100,6.081630126953125,5.928000450134277,-0.0580500029027462,-0.04005000367760658
1779997171171906600,6.098906494140625,3.6739501953125,-0.05595000088214874,0.17205001413822174
1779997171189183200,6.116183349609375,5.017950057983398,-0.07304999977350235,0.04605000093579292
1779997171206459600,6.133459716796875,9.238950729370117,-0.1570500135421753,-0.30300000309944153
1779997171223736000,6.150736083984375,13.771950721740723,-0.22800001502037048,-0.6000000238418579
1779997171241012500,6.168012451171875,16.132949829101562,-0.2689500153064728,-0.7189500331878662
1779997171258289200,6.1852890625,14.623050689697266,-0.23595000803470612,-0.6469500064849854
1779997171275565600,6.202565673828125,10.309050559997559,-0.15405000746250153,-0.38700002431869507
1779997171292842000,6.219842041015625,5.884950160980225,-0.09405000507831573,-0.022950001060962677
1779997171310118400,6.237118408203125,3.7600502967834473,-0.05595000088214874,0.16995000839233398
1779997171327395000,6.25439501953125,5.176050186157227,-0.07304999977350235,0.031050002202391624
1779997171344671500,6.27167138671875,9.373050689697266,-0.13695000112056732,-0.3079500198364258
1779997171361948000,6.288947998046875,13.815000534057617,-0.208950012922287,-0.597000002861023
1779997171379224600,6.306224609375,16.05000114440918,-0.25005000829696655,-0.7170000076293945
1779997171396501000,6.3235009765625,14.454000473022461,-0.23805001378059387,-0.6139500141143799
1779997171413777400,6.34077734375,10.17495059967041,-0.1469999998807907,-0.3769500255584717
1779997171431054000,6.35805419921875,5.833950042724609,-0.06795000284910202,-0.037050001323223114
1779997171448330500,6.37533056640625,3.8359501361846924,-0.05400000140070915,0.1680000126361847
1779997171465607000,6.39260693359375,5.349000453948975,-0.07304999977350235,0.013950000517070293
1779997171482883300,6.40988330078125,9.523950576782227,-0.16395001113414764,-0.3079500198364258
1779997171500160000,6.427159912109375,13.872000694274902,-0.21195000410079956,-0.5800500512123108
1779997171517436700,6.444436767578125,15.961050987243652,-0.23805001378059387,-0.6930000185966492
1779997171534712800,6.461712890625,14.278950691223145,-0.22395001351833344,-0.6190500259399414
1779997171551989500,6.478989501953125,10.041000366210938,-0.16395001113414764,-0.35295000672340393
1779997171569266000,6.496265869140625,5.797950267791748,-0.07500000298023224,-0.016050001606345177
1779997171586542600,6.51354248046875,3.9250502586364746,-0.06599999964237213,0.1680000126361847
1779997171603819000,6.530819091796875,5.503950119018555,-0.07304999977350235,0.0070500001311302185
1779997171621095400,6.548095458984375,9.687000274658203,-0.1570500135421753,-0.3270000219345093
1779997171638372000,6.5653720703125,13.915050506591797,-0.23295001685619354,-0.6040500402450562
1779997171655648800,6.582648681640625,15.877050399780273,-0.26205000281333923,-0.697950005531311
1779997171672925200,6.59992529296875,14.109000205993652,-0.22800001502037048,-0.6000000238418579
1779997171690201600,6.61720166015625,9.907050132751465,-0.15900000929832458,-0.34095001220703125
1779997171707478300,6.634478271484375,5.764950275421143,-0.09000000357627869,-0.013050000183284283
1779997171724754700,6.651754638671875,4.011000156402588,-0.05400000140070915,0.15300001204013824
1779997171742031000,6.669031005859375,5.662050247192383,-0.06105000153183937,-0.009000000543892384
1779997171759307800,6.686307861328125,9.811050415039062,-0.16395001113414764,-0.3270000219345093
1779997171776584200,6.703584228515625,13.969950675964355,-0.21405000984668732,-0.5920500159263611
1779997171793860600,6.720860595703125,15.778950691223145,-0.24000000953674316,-0.6859500408172607
1779997171811137000,6.738136962890625,13.94205093383789,-0.21900001168251038,-0.5879999995231628
1779997171828413400,6.755413330078125,9.766050338745117,-0.14205001294612885,-0.3360000252723694
1779997171845690000,6.772690185546875,5.719050407409668,-0.09405000507831573,0.004950000438839197
1779997171862966500,6.789966552734375,4.104000091552734,-0.039000000804662704,0.13395000994205475
1779997171880243200,6.8072431640625,5.830050468444824,-0.09195000678300858,-0.004050000105053186
1779997171897519600,6.82451953125,9.96405029296875,-0.1399500072002411,-0.35805001854896545
1779997171914796000,6.841796142578125,13.992000579833984,-0.23805001378059387,-0.5779500007629395
1779997171932072700,6.85907275390625,15.705000877380371,-0.24495001137256622,-0.6829500198364258
1779997171949349400,6.876349365234375,13.768950462341309,-0.22395001351833344,-0.5659500360488892
1779997171966625800,6.893625732421875,9.63900089263916,-0.15195000171661377,-0.31995001435279846
1779997171983902200,6.910902099609375,5.688000202178955,-0.07005000114440918,-0.0010500000789761543
1779997172001179000,6.928178955078125,4.176000118255615,-0.05400000140070915,0.13199999928474426
1779997172018455300,6.945455322265625,5.986950397491455,-0.09405000507831573,-0.022950001060962677
1779997172035731700,6.962731689453125,10.078950881958008,-0.18300001323223114,-0.3340500295162201
1779997172053008100,6.980008056640625,14.044050216674805,-0.23100000619888306,-0.583050012588501
1779997172070284800,6.997284912109375,15.588000297546387,-0.24795001745224,-0.6670500040054321
1779997172087561200,7.014561279296875,13.606950759887695,-0.21405000984668732,-0.5710500478744507
1779997172104837600,7.031837646484375,9.507000923156738,-0.13005000352859497,-0.3240000009536743
1779997172122114300,7.0491142578125,5.6670002937316895,-0.08700000494718552,0.013950000517070293
1779997172139390700,7.066390625,4.297950267791748,-0.06105000153183937,0.14100000262260437
1779997172156667100,7.083667236328125,6.130950450897217,-0.08700000494718552,-0.028050001710653305
1779997172173943800,7.10094384765625,10.209000587463379,-0.11805000901222229,-0.37905001640319824
1779997172191220200,7.11822021484375,14.056050300598145,-0.22605000436306,-0.6000000238418579
1779997172208496600,7.13549658203125,15.502050399780273,-0.25200000405311584,-0.6430500149726868
1779997172225773300,7.152773193359375,13.45305061340332,-0.24795001745224,-0.5299500226974487
1779997172243050000,7.170050048828125,9.382950782775879,-0.1469999998807907,-0.29100000858306885
1779997172260326400,7.187326416015625,5.641050338745117,-0.08505000174045563,0.0070500001311302185
1779997172277602800,7.204602783203125,4.375050067901611,-0.05100000277161598,0.10500000417232513
1779997172294879200,7.221879150390625,6.31095027923584,-0.10395000129938126,-0.04200000315904617
1779997172312156000,7.239156005859375,10.345050811767578,-0.1660500019788742,-0.35100001096725464
1779997172329432600,7.2564326171875,14.089950561523438,-0.2160000056028366,-0.6000000238418579
1779997172346708700,7.273708740234375,15.399001121520996,-0.24495001137256622,-0.6589500308036804
1779997172363985400,7.2909853515625,13.281001091003418,-0.1969500035047531,-0.544950008392334
1779997172381262000,7.308261962890625,9.268050193786621,-0.1489500105381012,-0.2689500153064728
1779997172398538200,7.325538330078125,5.6170501708984375,-0.09195000678300858,0.016950000077486038
1779997172415815000,7.34281494140625,4.480050086975098,-0.04200000315904617,0.10305000841617584
1779997172433091600,7.360091552734375,6.4609503746032715,-0.10905000567436218,-0.06105000153183937
1779997172450367700,7.37736767578125,10.450050354003906,-0.16905000805854797,-0.36000001430511475
1779997172467644400,7.39464453125,14.119050979614258,-0.23295001685619354,-0.5879999995231628
1779997172484920800,7.4119208984375,15.286050796508789,-0.22395001351833344,-0.6570000052452087
1779997172502197200,7.429197265625,13.141950607299805,-0.2070000171661377,-0.5350500345230103
1779997172519474000,7.446473876953125,9.148950576782227,-0.14505000412464142,-0.26205000281333923
1779997172536750300,7.463750244140625,5.602050304412842,-0.09405000507831573,0.025950001552700996
1779997172554027000,7.481027099609375,4.591950416564941,-0.04905000329017639,0.10500000417232513
1779997172571303400,7.498303466796875,6.592950344085693,-0.0799500048160553,-0.07605000585317612
1779997172588579800,7.515579833984375,10.572000503540039,-0.18105000257492065,-0.364950031042099
1779997172605856500,7.5328564453125,14.121000289916992,-0.22605000436306,-0.5779500007629395
1779997172623133000,7.5501328125,15.195000648498535,-0.23595000803470612,-0.6469500064849854
1779997172640409600,7.56740966796875,12.987000465393066,-0.21405000984668732,-0.5179499983787537
1779997172657686000,7.58468603515625,9.03600025177002,-0.1399500072002411,-0.2530499994754791
1779997172674962700,7.601962646484375,5.596950054168701,-0.0990000069141388,0.010050000622868538
1779997172692238800,7.61923876953125,4.651950359344482,-0.10605000704526901,0.1080000028014183
1779997172709515500,7.636515625,6.772050380706787,-0.00795000046491623,-0.07304999977350235
1779997172726792200,7.653792236328125,10.651050567626953,-0.22095000743865967,-0.34095001220703125
1779997172744068400,7.671068359375,14.146950721740723,-0.20400001108646393,-0.62295001745224
1779997172761345000,7.688344970703125,15.049050331115723,-0.2639999985694885,-0.6330000162124634
1779997172778621400,7.705621337890625,12.862051010131836,-0.2070000171661377,-0.5230500102043152
1779997172795897900,7.72289794921875,8.928000450134277,-0.14505000412464142,-0.24795001745224
1779997172813174500,7.740174560546875,5.63100004196167,-0.07304999977350235,0.04305000230669975
1779997172830451000,7.757450927734375,4.767000198364258,-0.09000000357627869,0.12195000797510147
1779997172847727400,7.774727294921875,6.88200044631958,-0.0990000069141388,-0.09495000541210175
1779997172865004000,7.792004150390625,10.759050369262695,-0.15195000171661377,-0.3940500319004059
1779997172882280700,7.80928076171875,14.109000205993652,-0.22800001502037048,-0.5879999995231628
1779997172899557000,7.82655712890625,14.992051124572754,-0.22605000436306,-0.625950038433075
1779997172916833500,7.84383349609375,12.703950881958008,-0.20400001108646393,-0.5059500336647034
1779997172934110000,7.86110986328125,8.851950645446777,-0.15405000746250153,-0.23100000619888306
1779997172951386600,7.87838671875,5.614050388336182,-0.07304999977350235,0.019050000235438347
1779997172968663300,7.895663330078125,4.870050430297852,-0.07800000160932541,0.09105000644922256
1779997172985939700,7.912939697265625,7.014000415802002,-0.10605000704526901,-0.0970500037074089
1779997173003216100,7.930216064453125,10.85205078125,-0.17805001139640808,-0.3840000033378601
1779997173020492800,7.947492919921875,14.122950553894043,-0.2160000056028366,-0.5850000381469727
1779997173037769200,7.964769287109375,14.869950294494629,-0.24495001137256622,-0.6160500049591064
1779997173055045600,7.982045654296875,12.570000648498535,-0.1879500150680542,-0.4849500358104706
1779997173072322300,7.999322265625,8.743950843811035,-0.14205001294612885,-0.22605000436306
1779997173089598700,8.0165986328125,5.629050254821777,-0.07304999977350235,0.024000000208616257
1779997173106875100,8.033875244140624,4.968000411987305,-0.07304999977350235,0.07905000448226929
1779997173124151800,8.05115185546875,7.162050247192383,-0.10605000704526901,-0.10905000567436218
1779997173141428200,8.06842822265625,10.941000938415527,-0.17295001447200775,-0.3940500319004059
1779997173158705000,8.085704833984375,14.119050979614258,-0.23295001685619354,-0.5640000104904175
1779997173175981300,8.102981201171875,14.785950660705566,-0.22605000436306,-0.6040500402450562
1779997173193258000,8.120258056640624,12.429000854492188,-0.20400001108646393,-0.4729500114917755
1779997173210534400,8.137534423828125,8.657999992370605,-0.12300000339746475,-0.22905001044273376
1779997173227811000,8.15481103515625,5.6260504722595215,-0.07005000114440918,0.024000000208616257
1779997173245087200,8.172087158203125,5.065950393676758,-0.09000000357627869,0.07200000435113907
1779997173262364000,8.189364013671875,7.2960004806518555,-0.08700000494718552,-0.13305000960826874
1779997173279640300,8.206640380859374,11.032050132751465,-0.20400001108646393,-0.38700002431869507
1779997173296917000,8.2239169921875,14.133000373840332,-0.22800001502037048,-0.583050012588501
1779997173314193400,8.241193359375,14.676000595092773,-0.21195000410079956,-0.612000048160553
1779997173331469800,8.2584697265625,12.292950630187988,-0.2160000056028366,-0.4459500312805176
1779997173348746200,8.275746337890626,8.560050010681152,-0.14505000412464142,-0.21195000410079956
1779997173366023000,8.29302294921875,5.629050254821777,-0.06795000284910202,0.0019500000635161996
1779997173383299600,8.310299560546875,5.169000148773193,-0.06300000101327896,0.05295000225305557
1779997173400576000,8.327575927734374,7.423050403594971,-0.10200000554323196,-0.10395000129938126
1779997173417852400,8.344852294921875,11.130000114440918,-0.16395001113414764,-0.3769500255584717
1779997173435129000,8.362129150390626,14.110950469970703,-0.1879500150680542,-0.595050036907196
1779997173452405500,8.379405517578125,14.571001052856445,-0.27900001406669617,-0.5760000348091125
1779997173469682000,8.396681884765625,12.15195083618164,-0.18300001323223114,-0.4440000355243683
1779997173486958600,8.41395849609375,8.47095012664795,-0.11595000326633453,-0.21000000834465027
1779997173504235300,8.4312353515625,5.650050163269043,-0.09000000357627869,0.024000000208616257
1779997173521511400,8.448511474609376,5.260050296783447,-0.05595000088214874,0.05295000225305557
1779997173538788000,8.4657880859375,7.569000244140625,-0.13305000960826874,-0.12600000202655792
1779997173556064500,8.483064453125,11.197050094604492,-0.18300001323223114,-0.38895002007484436
1779997173573341000,8.5003408203125,14.121000289916992,-0.1969500035047531,-0.5920500159263611
1779997173590617600,8.51761767578125,14.470050811767578,-0.2670000195503235,-0.5779500007629395
1779997173607894000,8.53489404296875,12.027000427246094,-0.14505000412464142,-0.44895002245903015
1779997173625170700,8.552170654296875,8.392050743103027,-0.12495000660419464,-0.2070000171661377
1779997173642447000,8.569447021484375,5.6569504737854,-0.11100000888109207,0.036000002175569534
1779997173659723500,8.5867236328125,5.373000144958496,-0.0970500037074089,0.05505000427365303
1779997173677000200,8.604000244140625,7.677000522613525,-0.12300000339746475,-0.1469999998807907
1779997173694276600,8.621276611328126,11.281050682067871,-0.14205001294612885,-0.4420500099658966
1779997173711553000,8.638552978515625,14.116050720214844,-0.24000000953674316,-0.5590500235557556
1779997173728829700,8.65582958984375,14.367000579833984,-0.25905001163482666,-0.5520000457763672
1779997173746106000,8.673106201171874,11.898000717163086,-0.1969500035047531,-0.43905001878738403
1779997173763382500,8.690382568359375,8.311050415039062,-0.11100000888109207,-0.1860000044107437
1779997173780659200,8.7076591796875,5.662050247192383,-0.05400000140070915,0
1779997173797935600,8.724935546875,5.458950042724609,-0.12105000764131546,0.0690000057220459
1779997173815212000,8.7422119140625,7.807950496673584,-0.07800000160932541,-0.1570500135421753
1779997173832488700,8.75948876953125,11.355000495910645,-0.2160000056028366,-0.3940500319004059
1779997173849765400,8.776765380859375,14.101950645446777,-0.1969500035047531,-0.5800500512123108
1779997173867041500,8.79404150390625,14.262001037597656,-0.23805001378059387,-0.5659500360488892
1779997173884318200,8.811318115234375,11.794950485229492,-0.17595000565052032,-0.4339500069618225
1779997173901595000,8.828594970703126,8.22195053100586,-0.13695000112056732,-0.1860000044107437
1779997173918871000,8.84587109375,5.707950115203857,-0.07500000298023224,0.016950000077486038
1779997173936147700,8.863147705078125,5.550000190734863,-0.0990000069141388,0.06000000238418579
1779997173953424400,8.88042431640625,7.926000595092773,-0.12300000339746475,-0.1570500135421753
1779997173970700800,8.89770068359375,11.44800090789795,-0.17100000381469727,-0.43695002794265747
1779997173987977200,8.914977294921876,14.076000213623047,-0.2160000056028366,-0.5710500478744507
1779997174005254000,8.93225390625,14.181000709533691,-0.24795001745224,-0.5419500470161438
1779997174022530300,8.9495302734375,11.653950691223145,-0.17295001447200775,-0.42000001668930054
1779997174039807000,8.966806884765624,8.182050704956055,-0.13005000352859497,-0.1860000044107437
1779997174057083400,8.98408349609375,5.722050189971924,-0.0580500029027462,0.019050000235438347
1779997174074359800,9.00135986328125,5.65500020980835,-0.05595000088214874,0.034050002694129944
1779997174091636500,9.018636474609375,8.035950660705566,-0.15195000171661377,-0.14295001327991486
1779997174108913000,9.035912841796875,11.508000373840332,-0.17805001139640808,-0.40800002217292786
1779997174126189600,9.053189453125,14.052000999450684,-0.23100000619888306,-0.5680500268936157
1779997174143466000,9.070466064453125,14.065950393676758,-0.2070000171661377,-0.5640000104904175
1779997174160742400,9.087742431640624,11.545950889587402,-0.18300001323223114,-0.41805002093315125
1779997174178018800,9.105018798828125,8.122050285339355,-0.14505000412464142,-0.17100000381469727
1779997174195295500,9.12229541015625,5.7460503578186035,-0.06599999964237213,0.013950000517070293
1779997174212572200,9.139572265625,5.7460503578186035,-0.11400000751018524,0.04605000093579292
1779997174229848600,9.1568486328125,8.155050277709961,-0.11400000751018524,-0.1660500019788742
1779997174247125000,9.174125,11.565000534057617,-0.1879500150680542,-0.4030500054359436
1779997174264401700,9.191401611328125,14.028000831604004,-0.21900001168251038,-0.5470499992370605
1779997174281678300,9.20867822265625,13.953001022338867,-0.2070000171661377,-0.5610000491142273
1779997174298954800,9.225954833984375,11.460000991821289,-0.17805001139640808,-0.40095001459121704
1779997174316231200,9.243231201171875,8.062050819396973,-0.13005000352859497,-0.15900000929832458
1779997174333507600,9.260507568359374,5.776950359344482,-0.08700000494718552,0.022050000727176666
1779997174350784300,9.2777841796875,5.844000339508057,-0.0799500048160553,0.012000000104308128
1779997174368060700,9.295060791015626,8.260950088500977,-0.12105000764131546,-0.1980000138282776
1779997174385337300,9.31233740234375,11.632050514221191,-0.17595000565052032,-0.41805002093315125
1779997174402613800,9.32961376953125,13.992000579833984,-0.22095000743865967,-0.5659500360488892
1779997174419890200,9.34689013671875,13.860000610351562,-0.24795001745224,-0.5400000214576721
1779997174437166800,9.364166748046875,11.32800006866455,-0.1660500019788742,-0.3940500319004059
1779997174454443300,9.381443359375,8.006999969482422,-0.13005000352859497,-0.16200000047683716
1779997174471720000,9.398719970703125,5.797950267791748,-0.09000000357627869,0.034050002694129944
1779997174488996000,9.41599609375,5.94195032119751,-0.07500000298023224,-0.0010500000789761543
1779997174506272800,9.433272705078124,8.373000144958496,-0.14505000412464142,-0.18105000257492065
1779997174523549200,9.450549072265625,11.697000503540039,-0.16905000805854797,-0.4249500334262848
1779997174540825900,9.467825927734374,13.97700023651123,-0.23295001685619354,-0.5520000457763672
1779997174558102300,9.485102294921875,13.76205062866211,-0.21405000984668732,-0.5419500470161438
1779997174575379000,9.50237890625,11.227950096130371,-0.18300001323223114,-0.37905001640319824
1779997174592655000,9.519655029296874,7.962000370025635,-0.10905000567436218,-0.14505000412464142
1779997174609931800,9.536931884765625,5.821950435638428,-0.09195000678300858,0.016950000077486038
1779997174627208400,9.55420849609375,6.028050422668457,-0.09405000507831573,0.0070500001311302185
1779997174644484900,9.57148486328125,8.47605037689209,-0.13005000352859497,-0.19305001199245453
1779997174661761300,9.58876123046875,11.752050399780273,-0.19005000591278076,-0.41805002093315125
1779997174679038000,9.606037841796875,13.951050758361816,-0.2160000056028366,-0.5370000004768372
1779997174696314400,9.623314453125,13.654050827026367,-0.21405000984668732,-0.5250000357627869
1779997174713590800,9.6405908203125,11.119950294494629,-0.15900000929832458,-0.38895002007484436
1779997174730867500,9.657867431640625,7.89900016784668,-0.12105000764131546,-0.1399500072002411
1779997174748144000,9.67514404296875,5.857950210571289,-0.09195000678300858,0.0070500001311302185
1779997174765420500,9.692420654296875,6.124050140380859,-0.09405000507831573,0.004950000438839197
1779997174782697000,9.709697021484375,8.577000617980957,-0.13500000536441803,-0.19995000958442688
1779997174799973600,9.7269736328125,11.805000305175781,-0.18105000257492065,-0.4320000112056732
1779997174817250300,9.744250244140625,13.915050506591797,-0.21900001168251038,-0.5560500025749207
1779997174834526500,9.7615263671875,13.555951118469238,-0.22095000743865967,-0.5160000324249268
1779997174851803100,9.77880322265625,11.02695083618164,-0.17595000565052032,-0.3630000054836273
1779997174869079600,9.79607958984375,7.852050304412842,-0.11400000751018524,-0.13095000386238098
1779997174886356200,9.813356201171874,5.881950378417969,-0.09000000357627869,0.025950001552700996
1779997174903632600,9.830632568359375,6.210000514984131,-0.09000000357627869,-0.009000000543892384
1779997174920909300,9.847909423828124,8.68005084991455,-0.13005000352859497,-0.21705001592636108
1779997174938185700,9.865185791015625,11.863950729370117,-0.19200000166893005,-0.4249500334262848
1779997174955462400,9.88246240234375,13.884000778198242,-0.22800001502037048,-0.5370000004768372
1779997174972738600,9.899738525390624,13.470000267028809,-0.20400001108646393,-0.5250000357627869
1779997174990015200,9.91701513671875,10.929000854492188,-0.18105000257492065,-0.364950031042099
1779997175007292000,9.9342919921875,7.81095027923584,-0.11805000901222229,-0.13095000386238098
1779997175024568300,9.951568359375,5.911050319671631,-0.09195000678300858,0.019050000235438347
1779997175041845000,9.968844970703126,6.303000450134277,-0.0970500037074089,-0.016050001606345177
1779997175059121400,9.986121337890625,8.778000831604004,-0.1279500126838684,-0.2070000171661377
1779997175076397800,10.003397705078125,11.9170503616333,-0.18495000898838043,-0.4339500069618225
1779997175093674200,10.02067431640625,13.858050346374512,-0.23805001378059387,-0.5299500226974487
1779997175110951000,10.037950927734375,13.378951072692871,-0.20400001108646393,-0.5110500454902649
1779997175128227300,10.055227294921876,10.843050956726074,-0.17805001139640808,-0.35295000672340393
1779997175145503700,10.072503662109375,7.761000156402588,-0.11400000751018524,-0.1380000114440918
1779997175162780400,10.089780517578125,5.94195032119751,-0.0799500048160553,0.022050000727176666
1779997175180056800,10.107056884765624,6.388950347900391,-0.10395000129938126,-0.022950001060962677
1779997175197333500,10.12433349609375,8.884950637817383,-0.15405000746250153,-0.21900001168251038
1779997175214610000,10.14160986328125,11.95995044708252,-0.1879500150680542,-0.4300500154495239
1779997175231886600,10.158886474609375,13.815000534057617,-0.2160000056028366,-0.5400000214576721
1779997175249163300,10.176163330078126,13.276050567626953,-0.208950012922287,-0.5089499950408936
1779997175266439400,10.193439453125,10.74000072479248,-0.1660500019788742,-0.35100001096725464
1779997175283716000,10.210716064453125,7.717950344085693,-0.11400000751018524,-0.1189500093460083
1779997175300992800,10.22799267578125,5.977950096130371,-0.10200000554323196,0.024000000208616257
1779997175318269200,10.245269287109375,6.4800004959106445,-0.09195000678300858,-0.018000001087784767
1779997175335545600,10.262545654296876,8.980950355529785,-0.12495000660419464,-0.22395001351833344
1779997175352822300,10.279822265625,12.00105094909668,-0.18105000257492065,-0.4300500154495239
1779997175370098700,10.2970986328125,13.77405071258545,-0.23295001685619354,-0.5179499983787537
1779997175387375000,10.314375,13.17300033569336,-0.21195000410079956,-0.5010000467300415
1779997175404651800,10.33165185546875,10.654050827026367,-0.17100000381469727,-0.3460500240325928
1779997175421928400,10.348928466796876,7.681950569152832,-0.10605000704526901,-0.13305000960826874
1779997175439204600,10.36620458984375,6.019050121307373,-0.10395000129938126,0.025950001552700996
1779997175456481300,10.383481201171875,6.586050510406494,-0.10200000554323196,-0.04200000315904617
1779997175473757700,10.4007578125,9.070050239562988,-0.13695000112056732,-0.23295001685619354
1779997175491034400,10.418034423828125,12.042000770568848,-0.17595000565052032,-0.4440000355243683
1779997175508310800,10.435310791015626,13.729050636291504,-0.22395001351833344,-0.5230500102043152
1779997175525587500,10.45258740234375,13.092000961303711,-0.2160000056028366,-0.4849500358104706
1779997175542864000,10.46986376953125,10.567950248718262,-0.16905000805854797,-0.3340500295162201
1779997175560140300,10.487140380859374,7.6459503173828125,-0.10395000129938126,-0.12105000764131546
1779997175577417000,10.5044169921875,6.054000377655029,-0.08700000494718552,0.016950000077486038
1779997175594693400,10.521693359375,6.672000408172607,-0.08700000494718552,-0.04005000367760658
1779997175611970000,10.538969970703125,9.163050651550293,-0.1489500105381012,-0.23595000803470612
1779997175629246500,10.55624658203125,12.073050498962402,-0.1879500150680542,-0.42195001244544983
1779997175646523000,10.57352294921875,13.695000648498535,-0.22095000743865967,-0.5110500454902649
1779997175663799600,10.590799560546875,12.994050979614258,-0.20205001533031464,-0.4939500093460083
1779997175681076000,10.608075927734374,10.47705078125,-0.15900000929832458,-0.3340500295162201
1779997175698352400,10.625352294921875,7.606950283050537,-0.11100000888109207,-0.12105000764131546
1779997175715629000,10.642629150390626,6.090000152587891,-0.10395000129938126,0.010050000622868538
1779997175732905700,10.65990576171875,6.763050556182861,-0.0970500037074089,-0.04005000367760658
1779997175750182000,10.677181884765625,9.256050109863281,-0.1489500105381012,-0.24300001561641693
1779997175767458600,10.69445849609375,12.118050575256348,-0.19500000774860382,-0.4339500069618225
1779997175784735200,10.7117353515625,13.635000228881836,-0.23805001378059387,-0.5130000114440918
1779997175802011400,10.729011474609376,12.903000831604004,-0.20205001533031464,-0.4729500114917755
1779997175819288000,10.7462880859375,10.386000633239746,-0.16095000505447388,-0.3240000009536743
1779997175836564700,10.763564697265625,7.573950290679932,-0.12300000339746475,-0.12600000202655792
1779997175853841400,10.78084130859375,6.141000270843506,-0.08205000311136246,0.010050000622868538
1779997175871117600,10.79811767578125,6.841950416564941,-0.0990000069141388,-0.04005000367760658
1779997175888394200,10.815394287109376,9.349950790405273,-0.14205001294612885,-0.24495001137256622
1779997175905671000,10.8326708984375,12.121050834655762,-0.20400001108646393,-0.43905001878738403
1779997175922947000,10.849947021484375,13.609050750732422,-0.20400001108646393,-0.5209500193595886
1779997175940223700,10.8672236328125,12.793050765991211,-0.20400001108646393,-0.47505003213882446
1779997175957500400,10.88450048828125,10.315950393676758,-0.16095000505447388,-0.31005001068115234
1779997175974776800,10.90177685546875,7.548000335693359,-0.11805000901222229,-0.09495000541210175
1779997175992053200,10.91905322265625,6.178950309753418,-0.0799500048160553,0.010050000622868538
1779997176009330000,10.936329833984376,6.9370503425598145,-0.09405000507831573,-0.06405000388622284
1779997176026606600,10.953606689453125,9.421050071716309,-0.14205001294612885,-0.25005000829696655
1779997176043882800,10.9708828125,12.168000221252441,-0.2070000171661377,-0.43905001878738403
1779997176061159400,10.988159423828124,13.554000854492188,-0.2160000056028366,-0.5209500193595886
1779997176078436000,11.00543603515625,12.714000701904297,-0.19995000958442688,-0.47505003213882446
1779997176095712500,11.02271240234375,10.234950065612793,-0.14505000412464142,-0.3150000274181366
1779997176112989000,11.039989013671875,7.52400016784668,-0.13005000352859497,-0.10395000129938126
1779997176130265600,11.057265625,6.226950168609619,-0.10200000554323196,0.010050000622868538
1779997176147542000,11.0745419921875,7.026000499725342,-0.10905000567436218,-0.07304999977350235
1779997176164818400,11.091818359375,9.505050659179688,-0.13695000112056732,-0.26205000281333923
1779997176182095000,11.10909521484375,12.180000305175781,-0.1969500035047531,-0.4300500154495239
1779997176199371500,11.12637158203125,13.518000602722168,-0.21405000984668732,-0.4990500211715698
1779997176216648000,11.14364794921875,12.628050804138184,-0.19500000774860382,-0.45600003004074097
1779997176233924600,11.160924560546874,10.144050598144531,-0.14505000412464142,-0.30300000309944153
1779997176251201000,11.178200927734375,7.504950523376465,-0.12495000660419464,-0.0970500037074089
1779997176268477700,11.195477783203126,6.265050411224365,-0.09195000678300858,0
1779997176285754000,11.212754150390625,7.105050563812256,-0.10395000129938126,-0.07304999977350235
1779997176303030800,11.23003076171875,9.57705020904541,-0.1489500105381012,-0.2670000195503235
1779997176320307200,11.24730712890625,12.207000732421875,-0.1969500035047531,-0.4440000355243683
1779997176337583900,11.264583984375,13.462950706481934,-0.21195000410079956,-0.5040000081062317
1779997176354860300,11.2818603515625,12.53895092010498,-0.19500000774860382,-0.4510500133037567
1779997176372136700,11.29913671875,10.075050354003906,-0.1660500019788742,-0.286050021648407
1779997176389413400,11.316413330078126,7.4760003089904785,-0.10200000554323196,-0.10905000567436218
1779997176406690000,11.33368994140625,6.31095027923584,-0.0970500037074089,-0.0010500000789761543
1779997176423966200,11.35096630859375,7.194000244140625,-0.10395000129938126,-0.0799500048160553
1779997176441243000,11.368242919921874,9.652950286865234,-0.1489500105381012,-0.2670000195503235
1779997176458519300,11.385519287109375,12.22605037689209,-0.19995000958442688,-0.4320000112056732
1779997176475796000,11.4027958984375,13.420050621032715,-0.208950012922287,-0.5059500336647034
1779997176493072400,11.420072265625,12.451050758361816,-0.208950012922287,-0.44895002245903015
1779997176510349000,11.43734912109375,10.005000114440918,-0.1489500105381012,-0.28395000100135803
1779997176527625500,11.45462548828125,7.459050178527832,-0.12105000764131546,-0.08700000494718552
1779997176544902000,11.47190185546875,6.366000175476074,-0.08505000174045563,-0.006000000052154064
1779997176562178600,11.489178466796876,7.284000396728516,-0.11805000901222229,-0.0799500048160553
1779997176579455200,11.506455322265625,9.736950874328613,-0.15405000746250153,-0.2650500237941742
1779997176596731600,11.523731689453125,12.244950294494629,-0.20400001108646393,-0.4249500334262848
1779997176614008000,11.541008056640624,13.369950294494629,-0.1969500035047531,-0.5059500336647034
1779997176631284700,11.55828466796875,12.367050170898438,-0.1969500035047531,-0.4339500069618225
1779997176648561200,11.57556103515625,9.925950050354004,-0.15405000746250153,-0.2880000174045563
1779997176665837800,11.592837890625,7.44705057144165,-0.12495000660419464,-0.09195000678300858
1779997176683114200,11.6101142578125,6.41295051574707,-0.0990000069141388,-0.010950000956654549
1779997176700391000,11.627390869140624,7.36305046081543,-0.11100000888109207,-0.0970500037074089
1779997176717667300,11.644667236328125,9.795000076293945,-0.1570500135421753,-0.2959500253200531
1779997176734943700,11.66194384765625,12.265950202941895,-0.2070000171661377,-0.42000001668930054
1779997176752220400,11.679220458984375,13.321950912475586,-0.22095000743865967,-0.48705002665519714
1779997176769496800,11.696496826171876,12.288000106811523,-0.19995000958442688,-0.43695002794265747
1779997176786773500,11.7137734375,9.850050926208496,-0.1399500072002411,-0.28095000982284546
1779997176804050000,11.7310498046875,7.4350504875183105,-0.11400000751018524,-0.08700000494718552
1779997176821326300,11.748326416015624,6.459000110626221,-0.0990000069141388,-0.0010500000789761543
1779997176838603000,11.76560302734375,7.45395040512085,-0.10905000567436218,-0.09195000678300858
1779997176855879400,11.78287939453125,9.87405014038086,-0.14505000412464142,-0.28395000100135803
1779997176873155800,11.80015576171875,12.27405071258545,-0.20205001533031464,-0.43695002794265747
1779997176890432500,11.8174326171875,13.267050743103027,-0.21900001168251038,-0.4819500148296356
1779997176907709000,11.834708984375,12.204000473022461,-0.1879500150680542,-0.4339500069618225
1779997176924985600,11.851985595703125,9.784950256347656,-0.14505000412464142,-0.2740500271320343
1779997176950900200,11.877900146484375,6.720000267028809,-0.11400000751018524,-0.030000001192092896
1779997176968176600,11.8951767578125,6.7920002937316895,-0.0990000069141388,-0.04005000367760658
1779997176985453300,11.912453369140625,8.634000778198242,-0.13005000352859497,-0.19005000591278076
1779997177002730000,11.92972998046875,11.227950096130371,-0.17295001447200775,-0.3769500255584717
1779997177020006100,11.947006103515625,13.023000717163086,-0.208950012922287,-0.45600003004074097
1779997177037282800,11.96428271484375,12.913050651550293,-0.21405000984668732,-0.4729500114917755
1779997177054559500,11.9815595703125,11.0149507522583,-0.16395001113414764,-0.35100001096725464
1779997177071836000,11.9988359375,8.457000732421875,-0.11400000751018524,-0.17595000565052032
1779997177089112300,12.0161123046875,6.748050212860107,-0.10395000129938126,-0.030000001192092896
1779997177106389000,12.033388916015625,6.849000453948975,-0.0990000069141388,-0.04200000315904617
1779997177123665400,12.05066552734375,8.71500015258789,-0.1469999998807907,-0.1879500150680542
1779997177140941800,12.06794189453125,11.260950088500977,-0.18495000898838043,-0.3720000088214874
1779997177158218500,12.085218505859375,12.994050979614258,-0.21405000984668732,-0.5040000081062317
1779997177175495200,12.1024951171875,12.838050842285156,-0.2160000056028366,-0.46605002880096436
1779997177192771300,12.119771240234375,10.936050415039062,-0.19005000591278076,-0.33900001645088196
1779997177210048000,12.137048095703125,8.413949966430664,-0.13305000960826874,-0.17805001139640808
1779997177227324700,12.15432470703125,6.765000343322754,-0.09000000357627869,-0.04200000315904617
1779997177244601000,12.17160107421875,6.922950267791748,-0.11100000888109207,-0.04200000315904617
1779997177261877500,12.18887744140625,8.81100082397461,-0.1399500072002411,-0.19995000958442688
1779997177279154200,12.206154296875,11.302050590515137,-0.16395001113414764,-0.364950031042099
1779997177296430800,12.223430908203126,12.976950645446777,-0.18105000257492065,-0.4819500148296356
1779997177313707300,12.240707275390625,12.754950523376465,-0.2160000056028366,-0.46095001697540283
1779997177330983700,12.257983642578125,10.867050170898438,-0.17805001139640808,-0.33900001645088196
1779997177348260400,12.27526025390625,8.365950584411621,-0.13695000112056732,-0.16200000047683716
1779997177365536800,12.292536865234375,6.784050464630127,-0.09000000357627869,-0.05595000088214874
1779997177382813400,12.3098134765625,6.990000247955322,-0.12300000339746475,-0.06405000388622284
1779997177400089900,12.32708984375,8.872950553894043,-0.1570500135421753,-0.19500000774860382
1779997177417366500,12.344366455078125,11.344950675964355,-0.18495000898838043,-0.38895002007484436
1779997177434643000,12.361642822265624,12.94800090789795,-0.20205001533031464,-0.48000001907348633
1779997177451919600,12.378919677734375,12.702000617980957,-0.1879500150680542,-0.4440000355243683
1779997177469196000,12.396196044921876,10.789950370788574,-0.17805001139640808,-0.3270000219345093
1779997177486472700,12.41347265625,8.341950416564941,-0.11595000326633453,-0.15000000596046448
1779997177503748900,12.430748779296875,6.801000118255615,-0.0990000069141388,-0.025050001218914986
1779997177521025500,12.448025634765624,7.069050312042236,-0.0799500048160553,-0.046950001269578934
1779997177538302200,12.46530224609375,8.931000709533691,-0.1399500072002411,-0.2070000171661377
1779997177555578600,12.48257861328125,11.383050918579102,-0.18495000898838043,-0.3630000054836273
1779997177572855000,12.49985498046875,12.915000915527344,-0.20205001533031464,-0.45795002579689026
1779997177590131700,12.517131591796876,12.63705062866211,-0.2070000171661377,-0.45795002579689026
1779997177607408000,12.534408203125,10.717950820922852,-0.17805001139640808,-0.33900001645088196
1779997177624684800,12.551684814453125,8.299050331115723,-0.13305000960826874,-0.1570500135421753
1779997177641961200,12.568961181640624,6.844050407409668,-0.10605000704526901,-0.030000001192092896
1779997177659237600,12.586237548828125,7.129050254821777,-0.12495000660419464,-0.07304999977350235
1779997177676514300,12.603514404296876,9.02400016784668,-0.12300000339746475,-0.2050500065088272
1779997177693790700,12.620790771484375,11.395051002502441,-0.18300001323223114,-0.3769500255584717
1779997177711067100,12.638067138671875,12.892951011657715,-0.19995000958442688,-0.4819500148296356
1779997177728343800,12.65534375,12.562950134277344,-0.1879500150680542,-0.4540500342845917
1779997177745620500,12.672620361328125,10.660950660705566,-0.1469999998807907,-0.3460500240325928
1779997177762897000,12.68989697265625,8.284950256347656,-0.13500000536441803,-0.15000000596046448
1779997177780173300,12.70717333984375,6.87000036239624,-0.1279500126838684,-0.031950000673532486
1779997177797450000,12.724449951171875,7.203000545501709,-0.12495000660419464,-0.07800000160932541
1779997177814726400,12.741726318359374,9.079050064086914,-0.1399500072002411,-0.23805001378059387
1779997177832003000,12.759003173828125,11.440950393676758,-0.18300001323223114,-0.38700002431869507
1779997177849279500,12.776279541015626,12.865050315856934,-0.22095000743865967,-0.4440000355243683
1779997177866556200,12.79355615234375,12.487051010131836,-0.20205001533031464,-0.4300500154495239
1779997177883832800,12.810832763671876,10.576950073242188,-0.16395001113414764,-0.3169500231742859
1779997177901109000,12.82810888671875,8.245950698852539,-0.10200000554323196,-0.15900000929832458
1779997177918385700,12.8453857421875,6.889950275421143,-0.10200000554323196,-0.025050001218914986
1779997177935662000,12.862662109375,7.267950534820557,-0.11400000751018524,-0.06105000153183937
1779997177952938500,12.8799384765625,9.160050392150879,-0.13305000960826874,-0.21405000984668732
1779997177970215200,12.897215087890626,11.458050727844238,-0.19005000591278076,-0.37905001640319824
1779997177987491600,12.91449169921875,12.82905101776123,-0.20400001108646393,-0.46995002031326294
1779997178004768300,12.931768310546875,12.421950340270996,-0.21405000984668732,-0.4459500312805176
1779997178022044700,12.949044677734374,10.51200008392334,-0.17805001139640808,-0.3150000274181366
1779997178039321300,12.9663212890625,8.220000267028809,-0.12300000339746475,-0.1570500135421753
1779997178056597800,12.98359765625,6.922950267791748,-0.09405000507831573,-0.046950001269578934
1779997178073874200,13.000874267578125,7.332000255584717,-0.12105000764131546,-0.07304999977350235
1779997178091150800,13.01815087890625,9.232050895690918,-0.13500000536441803,-0.22395001351833344
1779997178108427500,13.035427490234374,11.479050636291504,-0.1879500150680542,-0.37905001640319824
1779997178125704200,13.0527041015625,12.81195068359375,-0.19200000166893005,-0.4630500078201294
1779997178142980400,13.06998046875,12.348000526428223,-0.1969500035047531,-0.42000001668930054
1779997178160257000,13.087257080078125,10.443000793457031,-0.15405000746250153,-0.29805001616477966
1779997178177533700,13.10453369140625,8.187000274658203,-0.12105000764131546,-0.13305000960826874
1779997178194810000,13.12181005859375,6.961050510406494,-0.09195000678300858,-0.043950002640485764
1779997178212086500,13.13908642578125,7.399050235748291,-0.11595000326633453,-0.08700000494718552
1779997178229363200,13.15636328125,9.28695011138916,-0.1399500072002411,-0.23595000803470612
1779997178246639600,13.1736396484375,11.515050888061523,-0.1969500035047531,-0.37905001640319824
1779997178263916300,13.190916259765626,12.769050598144531,-0.20400001108646393,-0.4510500133037567
1779997178281192700,13.208192626953124,12.283050537109375,-0.19005000591278076,-0.4300500154495239
1779997178298469400,13.225469482421875,10.371000289916992,-0.1570500135421753,-0.3150000274181366
1779997178315745800,13.242745849609374,8.163000106811523,-0.12495000660419464,-0.1469999998807907
1779997178333022200,13.260022216796875,6.990000247955322,-0.09405000507831573,-0.046950001269578934
1779997178350299000,13.277298828125,7.462050437927246,-0.12105000764131546,-0.07605000585317612
1779997178367575300,13.2945751953125,9.35205078125,-0.16095000505447388,-0.22395001351833344
1779997178384852000,13.31185205078125,11.529000282287598,-0.1879500150680542,-0.3940500319004059
1779997178402128400,13.32912841796875,12.745050430297852,-0.19995000958442688,-0.46605002880096436
1779997178419404800,13.34640478515625,12.219000816345215,-0.1969500035047531,-0.4300500154495239
1779997178436681500,13.363681396484376,10.321050643920898,-0.15900000929832458,-0.31005001068115234
1779997178453958100,13.380958251953125,8.155050277709961,-0.15195000171661377,-0.1380000114440918
1779997178471234600,13.398234619140625,7.024050235748291,-0.11805000901222229,-0.037050001323223114
1779997178488511200,13.41551123046875,7.5259504318237305,-0.10395000129938126,-0.0970500037074089
1779997178505787600,13.43278759765625,9.406949996948242,-0.14205001294612885,-0.24495001137256622
1779997178523064000,13.45006396484375,11.553000450134277,-0.18300001323223114,-0.38700002431869507
1779997178540340700,13.4673408203125,12.706950187683105,-0.1969500035047531,-0.4510500133037567
1779997178557617200,13.4846171875,12.159000396728516,-0.19005000591278076,-0.40800002217292786
1779997178574893600,13.5018935546875,10.252050399780273,-0.1570500135421753,-0.2770500183105469
1779997178592170200,13.519170166015625,8.146050453186035,-0.12105000764131546,-0.1380000114440918
1779997178609447000,13.536447021484374,7.04295015335083,-0.11595000326633453,-0.05205000191926956
1779997178626723000,13.55372314453125,7.5960001945495605,-0.11100000888109207,-0.10395000129938126
1779997178643999700,13.570999755859376,9.473999977111816,-0.1469999998807907,-0.23595000803470612
1779997178661276400,13.5882763671875,11.57295036315918,-0.19005000591278076,-0.3820500075817108
1779997178678552800,13.605552734375,12.688050270080566,-0.208950012922287,-0.45795002579689026
1779997178695829200,13.622829345703124,12.088950157165527,-0.2070000171661377,-0.41505002975463867
1779997178713105700,13.640105712890625,10.206000328063965,-0.16095000505447388,-0.29100000858306885
1779997178730382300,13.65738232421875,8.119950294494629,-0.11400000751018524,-0.1380000114440918
1779997178747659000,13.674658935546875,7.083000183105469,-0.08700000494718552,-0.05400000140070915
1779997178764935400,13.691935302734375,7.651050567626953,-0.11100000888109207,-0.10395000129938126
1779997178782211800,13.7092119140625,9.531000137329102,-0.16395001113414764,-0.22905001044273376
1779997178799488500,13.726488525390625,11.593950271606445,-0.18300001323223114,-0.3769500255584717
1779997178816765000,13.743764892578126,12.64905071258545,-0.19005000591278076,-0.44895002245903015
1779997178834041600,13.76104150390625,12.031950950622559,-0.18495000898838043,-0.41100001335144043
1779997178851318000,13.778318115234375,10.132050514221191,-0.16395001113414764,-0.28095000982284546
1779997178868594400,13.795594482421874,8.104949951171875,-0.12300000339746475,-0.1380000114440918
1779997178885871000,13.81287109375,7.1170501708984375,-0.11400000751018524,-0.05595000088214874
1779997178903147500,13.8301474609375,7.7149505615234375,-0.11595000326633453,-0.10395000129938126
1779997178920424200,13.847424072265625,9.582000732421875,-0.1489500105381012,-0.2550000250339508
1779997178937700600,13.86470068359375,11.613000869750977,-0.17100000381469727,-0.3820500075817108
1779997178954977300,13.881977294921874,12.610950469970703,-0.21405000984668732,-0.4440000355243683
1779997178972253700,13.899253662109375,11.96505069732666,-0.18105000257492065,-0.41505002975463867
1779997178989530000,13.916530029296876,10.081950187683105,-0.1489500105381012,-0.286050021648407
1779997179006806800,13.933806884765625,8.098050117492676,-0.12105000764131546,-0.12600000202655792
1779997179024083200,13.951083251953126,7.14300012588501,-0.11595000326633453,-0.046950001269578934
1779997179041359600,13.968359619140625,7.782000541687012,-0.11595000326633453,-0.10905000567436218
1779997179058636300,13.98563623046875,9.63900089263916,-0.1399500072002411,-0.25995001196861267
1779997179075913000,14.002912841796874,11.632050514221191,-0.18495000898838043,-0.3769500255584717
1779997179093189400,14.020189453125,12.585000991821289,-0.1879500150680542,-0.43905001878738403
1779997179110465800,14.0374658203125,11.898000717163086,-0.2070000171661377,-0.4030500054359436
1779997179127742500,14.054742431640625,10.039050102233887,-0.1489500105381012,-0.27900001406669617
1779997179145019100,14.07201904296875,8.074049949645996,-0.13305000960826874,-0.1380000114440918
1779997179162295600,14.089295654296874,7.182000160217285,-0.12300000339746475,-0.06599999964237213
1779997179179572000,14.106572021484375,7.842000484466553,-0.13695000112056732,-0.10905000567436218
1779997179196848600,14.1238486328125,9.694050788879395,-0.1469999998807907,-0.25005000829696655
1779997179214125000,14.141125,11.63700008392334,-0.1660500019788742,-0.38700002431869507
1779997179231401700,14.158401611328125,12.541950225830078,-0.19500000774860382,-0.4339500069618225
1779997179248678100,14.17567822265625,11.838000297546387,-0.17595000565052032,-0.3960000276565552
1779997179265954600,14.19295458984375,9.981000900268555,-0.14205001294612885,-0.2689500153064728
1779997179283231200,14.210231201171876,8.06505012512207,-0.11805000901222229,-0.1380000114440918
1779997179300508000,14.2275078125,7.207950115203857,-0.11805000901222229,-0.06599999964237213
1779997179317784300,14.244784423828126,7.909050464630127,-0.12300000339746475,-0.12600000202655792
1779997179335060700,14.262060791015625,9.747000694274902,-0.17295001447200775,-0.2569500207901001
1779997179352337200,14.279337158203125,11.656050682067871,-0.19500000774860382,-0.3910500109195709
1779997179369613800,14.29661376953125,12.5110502243042,-0.20400001108646393,-0.45600003004074097
1779997179386890500,14.313890380859375,11.778000831604004,-0.17805001139640808,-0.3960000276565552
1779997179404167000,14.3311669921875,9.93600082397461,-0.1489500105381012,-0.2670000195503235
1779997179421443600,14.348443603515625,8.056950569152832,-0.11805000901222229,-0.10905000567436218
1779997179438720000,14.365719970703125,7.25100040435791,-0.10605000704526901,-0.046950001269578934
1779997179455996400,14.382996337890624,7.954050540924072,-0.11400000751018524,-0.12600000202655792
1779997179473273000,14.400273193359375,9.792000770568848,-0.15900000929832458,-0.2689500153064728
1779997179490549500,14.417549560546876,11.671051025390625,-0.19005000591278076,-0.37905001640319824
1779997179507826200,14.434826171875,12.487051010131836,-0.21405000984668732,-0.4420500099658966
1779997179525102600,14.4521025390625,11.728050231933594,-0.19200000166893005,-0.39900001883506775
1779997179542379000,14.46937890625,9.880950927734375,-0.1660500019788742,-0.2740500271320343
1779997179559655700,14.48665576171875,8.050050735473633,-0.11595000326633453,-0.12600000202655792
1779997179576932000,14.50393212890625,7.270050525665283,-0.10395000129938126,-0.06599999964237213
1779997179594208800,14.521208740234375,8.006999969482422,-0.11100000888109207,-0.12300000339746475
1779997179611485200,14.538485107421875,9.850050926208496,-0.1489500105381012,-0.24795001745224
1779997179628761900,14.555761962890625,11.677950859069824,-0.17295001447200775,-0.37905001640319824
1779997179646038300,14.573038330078125,12.439050674438477,-0.18495000898838043,-0.4339500069618225
1779997179663315000,14.59031494140625,11.66100025177002,-0.17595000565052032,-0.38700002431869507
1779997179680591400,14.60759130859375,9.838050842285156,-0.1570500135421753,-0.2569500207901001
1779997179697867800,14.62486767578125,8.032950401306152,-0.13305000960826874,-0.13500000536441803
1779997179715144400,14.64214453125,7.311000347137451,-0.10605000704526901,-0.07800000160932541
1779997179732420900,14.6594208984375,8.074049949645996,-0.12300000339746475,-0.13500000536441803
1779997179749697300,14.676697265625,9.88800048828125,-0.1489500105381012,-0.26205000281333923
1779997179766974000,14.693973876953125,11.6850004196167,-0.1969500035047531,-0.37905001640319824
1779997179784250400,14.71125048828125,12.415050506591797,-0.20205001533031464,-0.43695002794265747
1779997179801527000,14.728527099609375,11.601000785827637,-0.17295001447200775,-0.37905001640319824
1779997179818803500,14.745803466796875,9.792000770568848,-0.15195000171661377,-0.2550000250339508
1779997179836080000,14.763080078125,8.026050567626953,-0.10905000567436218,-0.1399500072002411
1779997179853356500,14.7803564453125,7.35105037689209,-0.12495000660419464,-0.06105000153183937
1779997179870633200,14.79763330078125,8.143050193786621,-0.1279500126838684,-0.13305000960826874
1779997179887909600,14.81490966796875,9.933000564575195,-0.15900000929832458,-0.2670000195503235
1779997179905186300,14.832186279296875,11.695050239562988,-0.17595000565052032,-0.3910500109195709
1779997179922463000,14.849462890625,12.364950180053711,-0.20205001533031464,-0.42705002427101135
1779997179939739100,14.8667392578125,11.557950973510742,-0.18300001323223114,-0.3750000298023224
1779997179957015800,14.884015869140624,9.735000610351562,-0.17295001447200775,-0.2550000250339508
1779997179974292500,14.90129248046875,8.014050483703613,-0.11595000326633453,-0.13500000536441803
1779997179991569000,14.91856884765625,7.371000289916992,-0.12300000339746475,-0.08295000344514847
1779997180008845300,14.93584521484375,8.20995044708252,-0.13305000960826874,-0.14295001327991486
1779997180026122000,14.9531220703125,9.993000030517578,-0.15900000929832458,-0.2650500237941742
1779997180043398700,14.970398681640624,11.70405101776123,-0.17805001139640808,-0.3910500109195709
1779997180060674800,14.9876748046875,12.328950881958008,-0.17805001139640808,-0.4300500154495239
1779997180077951500,15.004951416015626,11.494050979614258,-0.1879500150680542,-0.36000001430511475
1779997180095228200,15.022228271484375,9.700950622558594,-0.1570500135421753,-0.24300001561641693
1779997180112504600,15.039504638671875,8.006999969482422,-0.11400000751018524,-0.11595000326633453
1779997180129781000,15.056781005859374,7.414050579071045,-0.10200000554323196,-0.07800000160932541
1779997180147057700,15.0740576171875,8.254050254821777,-0.1279500126838684,-0.13500000536441803
1779997180164334300,15.091334228515626,10.029000282287598,-0.1570500135421753,-0.2670000195503235
1779997180181610800,15.10861083984375,11.713950157165527,-0.17295001447200775,-0.3960000276565552
1779997180198887200,15.12588720703125,12.300000190734863,-0.21195000410079956,-0.40800002217292786
1779997180216163800,15.143163818359374,11.434050559997559,-0.18495000898838043,-0.3750000298023224
1779997180233440300,15.160440185546875,9.643950462341309,-0.1469999998807907,-0.25005000829696655
1779997180250716700,15.177716552734376,8.017050743103027,-0.11400000751018524,-0.12105000764131546
1779997180267993300,15.194993408203125,7.450050354003906,-0.10605000704526901,-0.09195000678300858
1779997180285270000,15.21227001953125,8.320950508117676,-0.12300000339746475,-0.1469999998807907
1779997180302546700,15.229546630859375,10.066950798034668,-0.17295001447200775,-0.2689500153064728
1779997180319822800,15.24682275390625,11.719050407409668,-0.17805001139640808,-0.3940500319004059
1779997180337099500,15.264099609375,12.256950378417969,-0.1879500150680542,-0.4249500334262848
1779997180354376200,15.281376220703125,11.379000663757324,-0.17295001447200775,-0.35805001854896545
1779997180371652400,15.29865234375,9.618000030517578,-0.1660500019788742,-0.24105000495910645
1779997180388929000,15.315928955078125,7.99500036239624,-0.12300000339746475,-0.12300000339746475
1779997180406205700,15.333205810546875,7.489950180053711,-0.11595000326633453,-0.0990000069141388
1779997180423482400,15.350482421875,8.371050834655762,-0.13500000536441803,-0.1399500072002411
1779997180440758500,15.367758544921875,10.132050514221191,-0.15405000746250153,-0.2689500153064728
1779997180458035200,15.38503515625,11.72295093536377,-0.19005000591278076,-0.38895002007484436
1779997180475311600,15.4023115234375,12.219000816345215,-0.19500000774860382,-0.42000001668930054
1779997180492588300,15.41958837890625,11.314050674438477,-0.1660500019788742,-0.35805001854896545
1779997180509864700,15.43686474609375,9.56505012512207,-0.13005000352859497,-0.24105000495910645
1779997180527141400,15.454141357421875,8.002050399780273,-0.12495000660419464,-0.11400000751018524
1779997180544417800,15.471417724609376,7.528950214385986,-0.12105000764131546,-0.09000000357627869
1779997180561694200,15.488694091796875,8.431050300598145,-0.12495000660419464,-0.16200000047683716
1779997180578971000,15.505970947265626,10.168050765991211,-0.16095000505447388,-0.286050021648407
1779997180596247300,15.523247314453124,11.72295093536377,-0.18300001323223114,-0.38700002431869507
1779997180613524000,15.54052392578125,12.187950134277344,-0.20400001108646393,-0.40800002217292786
1779997180630800400,15.55780029296875,11.266050338745117,-0.19005000591278076,-0.35805001854896545
1779997180648077000,15.5750771484375,9.517050743103027,-0.15195000171661377,-0.24105000495910645
1779997180665353700,15.592353759765626,7.99500036239624,-0.11805000901222229,-0.12600000202655792
1779997180682630100,15.609630126953125,7.560000419616699,-0.11805000901222229,-0.09495000541210175
1779997180699906600,15.626906494140625,8.485950469970703,-0.12495000660419464,-0.1660500019788742
1779997180717183200,15.644183349609374,10.209000587463379,-0.15900000929832458,-0.286050021648407
1779997180734460000,15.6614599609375,11.730000495910645,-0.18495000898838043,-0.37905001640319824
1779997180751736300,15.678736328125,12.136950492858887,-0.19500000774860382,-0.40605002641677856
1779997180769012700,15.6960126953125,11.199000358581543,-0.17295001447200775,-0.3439500033855438
1779997180786289400,15.713289306640625,9.478950500488281,-0.13695000112056732,-0.23100000619888306
1779997180803566000,15.730566162109374,7.987950325012207,-0.12300000339746475,-0.12300000339746475
1779997180820842500,15.747842529296875,7.597950458526611,-0.12105000764131546,-0.09495000541210175
1779997180838119000,15.765118896484376,8.538000106811523,-0.12495000660419464,-0.16905000805854797
1779997180855395600,15.7823955078125,10.243950843811035,-0.17295001447200775,-0.2880000174045563
1779997180872672000,15.799672119140626,11.730000495910645,-0.19005000591278076,-0.3840000033378601
1779997180889948400,15.816948486328124,12.103950500488281,-0.19005000591278076,-0.4129500091075897
1779997180907225000,15.83422509765625,11.146950721740723,-0.17295001447200775,-0.33900001645088196
1779997180924501500,15.85150146484375,9.436050415039062,-0.14205001294612885,-0.23100000619888306
1779997180941778200,15.868778076171875,7.999950408935547,-0.12300000339746475,-0.12105000764131546
1779997180959054600,15.8860546875,7.636050224304199,-0.11100000888109207,-0.09000000357627869
1779997180976331300,15.903331298828125,8.593050003051758,-0.13500000536441803,-0.17100000381469727
1779997180993607700,15.920607666015625,10.282950401306152,-0.16095000505447388,-0.29295000433921814
1779997181010884000,15.937884033203124,11.733000755310059,-0.18105000257492065,-0.3910500109195709
1779997181028160800,15.955160888671875,12.067950248718262,-0.19500000774860382,-0.40605002641677856
1779997181045437400,15.9724375,11.086950302124023,-0.18105000257492065,-0.33900001645088196
1779997181062713900,15.9897138671875,9.405000686645508,-0.16095000505447388,-0.23805001378059387
1779997181079990300,16.006990234375,7.9830002784729,-0.12300000339746475,-0.12600000202655792
1779997181097267000,16.024266845703124,7.678950309753418,-0.10395000129938126,-0.10200000554323196
1779997181114543400,16.04154345703125,8.65095043182373,-0.12495000660419464,-0.17595000565052032
1779997181131820000,16.058820068359374,10.333050727844238,-0.17295001447200775,-0.27900001406669617
1779997181149096700,16.0760966796875,11.737950325012207,-0.19005000591278076,-0.3820500075817108
1779997181166372900,16.093372802734375,12.022050857543945,-0.19200000166893005,-0.4030500054359436
1779997181183649500,16.1106494140625,11.03700065612793,-0.17295001447200775,-0.34800001978874207
1779997181200926000,16.127926025390625,9.361050605773926,-0.1469999998807907,-0.22605000436306
1779997181218202600,16.14520263671875,7.978050231933594,-0.12105000764131546,-0.11595000326633453
1779997181235479300,16.162479248046875,7.710000514984131,-0.11805000901222229,-0.0970500037074089
1779997181252755700,16.179755615234374,8.701050758361816,-0.12495000660419464,-0.17595000565052032
1779997181270032100,16.1970322265625,10.357050895690918,-0.17100000381469727,-0.28395000100135803
1779997181287308800,16.214308837890623,11.728050231933594,-0.17295001447200775,-0.37905001640319824
1779997181304585500,16.23158544921875,11.982000350952148,-0.1969500035047531,-0.39900001883506775
1779997181321862000,16.24886181640625,10.981050491333008,-0.16095000505447388,-0.33900001645088196
1779997181339138600,16.266138671875,9.318000793457031,-0.13695000112056732,-0.21900001168251038
1779997181356415000,16.2834150390625,7.9830002784729,-0.13005000352859497,-0.11100000888109207
1779997181373691400,16.30069140625,7.758000373840332,-0.11100000888109207,-0.10905000567436218
1779997181390968000,16.317968017578124,8.7610502243042,-0.13500000536441803,-0.17595000565052032
1779997181408244500,16.335244384765623,10.402050018310547,-0.15405000746250153,-0.29295000433921814
1779997181425521200,16.352521240234374,11.719050407409668,-0.1879500150680542,-0.3820500075817108
1779997181442797600,16.369797607421877,11.946000099182129,-0.17595000565052032,-0.3960000276565552
1779997181460074000,16.387073974609375,10.933950424194336,-0.16905000805854797,-0.33900001645088196
1779997181477350400,16.404350341796874,9.2989501953125,-0.13695000112056732,-0.2050500065088272
1779997181494627000,16.421626953125,7.99500036239624,-0.12300000339746475,-0.11595000326633453
1779997181511903700,16.43890380859375,7.797000408172607,-0.13005000352859497,-0.0990000069141388
1779997181529180400,16.456180419921875,8.81100082397461,-0.13305000960826874,-0.18300001323223114
1779997181546456600,16.47345654296875,10.438050270080566,-0.15195000171661377,-0.3049500286579132
1779997181563733200,16.490733154296876,11.728050231933594,-0.18300001323223114,-0.38700002431869507
1779997181581010000,16.508010009765623,11.920050621032715,-0.19500000774860382,-0.38700002431869507
1779997181598286300,16.525286376953126,10.885950088500977,-0.18495000898838043,-0.31995001435279846
1779997181615562800,16.542562744140625,9.256050109863281,-0.13695000112056732,-0.22395001351833344
1779997181632839400,16.55983935546875,8.006999969482422,-0.11400000751018524,-0.11595000326633453
1779997181658754300,16.58575439453125,8.212950706481934,-0.13500000536441803,-0.1399500072002411
1779997181676030700,16.60303076171875,9.64905071258545,-0.16395001113414764,-0.24105000495910645
1779997181693307100,16.62030712890625,11.191950798034668,-0.18105000257492065,-0.34800001978874207
1779997181710583800,16.637583740234376,11.962950706481934,-0.17295001447200775,-0.40605002641677856
1779997181727860500,16.654860595703123,11.470050811767578,-0.17805001139640808,-0.36000001430511475
1779997181745137000,16.672136962890626,10.045950889587402,-0.15195000171661377,-0.2689500153064728
1779997181762413300,16.689413330078125,8.509950637817383,-0.13695000112056732,-0.14505000412464142
1779997181779690000,16.70668994140625,7.770000457763672,-0.12495000660419464,-0.09195000678300858
1779997181796966700,16.723966552734375,8.275050163269043,-0.12105000764131546,-0.15000000596046448
1779997181814242800,16.741242919921874,9.688950538635254,-0.15195000171661377,-0.24795001745224
1779997181831519500,16.75851953125,11.215950965881348,-0.18105000257492065,-0.35295000672340393
1779997181848796200,16.775796142578123,11.92905044555664,-0.19500000774860382,-0.4030500054359436
1779997181866072800,16.79307275390625,11.428950309753418,-0.17595000565052032,-0.364950031042099
1779997181883349000,16.810348876953125,10.00005054473877,-0.1570500135421753,-0.27195000648498535
1779997181900625700,16.827625732421875,8.493000030517578,-0.1279500126838684,-0.15405000746250153
1779997181917902300,16.84490234375,7.807950496673584,-0.13005000352859497,-0.0970500037074089
1779997181935178500,16.862178466796873,8.308950424194336,-0.13005000352859497,-0.13500000536441803
1779997181952455200,16.879455078125,9.724950790405273,-0.15195000171661377,-0.2530499994754791
1779997181969731800,16.89673193359375,11.221050262451172,-0.1660500019788742,-0.34800001978874207
1779997181987008500,16.914008544921874,11.91195011138916,-0.18105000257492065,-0.3910500109195709
1779997182004285000,16.931284912109376,11.392951011657715,-0.17295001447200775,-0.35295000672340393
1779997182021561300,16.948561279296875,9.949950218200684,-0.15900000929832458,-0.2650500237941742
1779997182038838000,16.965838134765626,8.485950469970703,-0.12300000339746475,-0.15405000746250153
1779997182056114400,16.983114501953125,7.82295036315918,-0.11805000901222229,-0.10905000567436218
1779997182073391000,17.00039111328125,8.361000061035156,-0.1279500126838684,-0.14295001327991486
1779997182090667500,17.01766748046875,9.778050422668457,-0.15405000746250153,-0.2530499994754791
1779997182107944200,17.034944091796874,11.233050346374512,-0.17100000381469727,-0.3550500273704529
1779997182125220400,17.052220458984376,11.878950119018555,-0.19200000166893005,-0.3910500109195709
1779997182142497000,17.0694970703125,11.32800006866455,-0.17100000381469727,-0.35100001096725464
1779997182159773700,17.086773681640626,9.916950225830078,-0.15900000929832458,-0.26205000281333923
1779997182177050400,17.10405029296875,8.47605037689209,-0.13500000536441803,-0.1469999998807907
1779997182194326800,17.121326904296875,7.855950355529785,-0.11805000901222229,-0.10200000554323196
1779997182211603200,17.138603271484374,8.407050132751465,-0.13005000352859497,-0.1469999998807907
1779997182228880000,17.1558798828125,9.816000938415527,-0.1469999998807907,-0.2569500207901001
1779997182246156300,17.17315625,11.25195026397705,-0.17595000565052032,-0.35295000672340393
1779997182263432700,17.1904326171875,11.862000465393066,-0.18495000898838043,-0.38895002007484436
1779997182280709400,17.20770947265625,11.281050682067871,-0.18300001323223114,-0.34800001978874207
1779997182297986000,17.224986083984376,9.883050918579102,-0.1570500135421753,-0.2650500237941742
1779997182315262500,17.242262451171875,8.461950302124023,-0.12300000339746475,-0.15195000171661377
1779997182332539000,17.259538818359374,7.878000259399414,-0.12105000764131546,-0.1189500093460083
1779997182349815600,17.276815673828125,8.449950218200684,-0.13500000536441803,-0.1399500072002411
1779997182367092000,17.294092041015624,9.856950759887695,-0.15900000929832458,-0.24795001745224
1779997182384368600,17.31136865234375,11.269050598144531,-0.17595000565052032,-0.3460500240325928
1779997182401645000,17.32864501953125,11.838000297546387,-0.18105000257492065,-0.3940500319004059
1779997182418921700,17.345921630859376,11.239950180053711,-0.17595000565052032,-0.3460500240325928
1779997182436198100,17.3631982421875,9.823050498962402,-0.16395001113414764,-0.2530499994754791
1779997182453474800,17.380474853515626,8.445000648498535,-0.13005000352859497,-0.1399500072002411
1779997182470751200,17.397751220703125,7.902000427246094,-0.12495000660419464,-0.1189500093460083
1779997182488027600,17.415027587890624,8.50200080871582,-0.12105000764131546,-0.17100000381469727
1779997182505304300,17.43230419921875,9.909000396728516,-0.16095000505447388,-0.25995001196861267
1779997182522580700,17.449580810546873,11.27595043182373,-0.19005000591278076,-0.3460500240325928
1779997182539857400,17.466857421875,11.817000389099121,-0.18495000898838043,-0.3720000088214874
1779997182557133800,17.4841337890625,11.185050964355469,-0.1660500019788742,-0.3460500240325928
1779997182574410500,17.501410400390625,9.778050422668457,-0.14505000412464142,-0.2530499994754791
1779997182591687000,17.51868701171875,8.44694995880127,-0.12300000339746475,-0.15000000596046448
1779997182608963300,17.53596337890625,7.933050155639648,-0.11595000326633453,-0.11100000888109207
1779997182626240000,17.553239990234374,8.557050704956055,-0.14505000412464142,-0.1570500135421753
1779997182643516700,17.5705166015625,9.943050384521484,-0.15405000746250153,-0.26205000281333923
1779997182660793000,17.58779296875,11.272950172424316,-0.16905000805854797,-0.3630000054836273
1779997182678069500,17.605069580078126,11.773950576782227,-0.1879500150680542,-0.3840000033378601
1779997182695346200,17.62234619140625,11.134950637817383,-0.18105000257492065,-0.34095001220703125
1779997182712622600,17.63962255859375,9.739950180053711,-0.15195000171661377,-0.24300001561641693
1779997182729899300,17.656899169921875,8.421000480651855,-0.12300000339746475,-0.15195000171661377
1779997182747175700,17.67417578125,7.962000370025635,-0.12105000764131546,-0.11400000751018524
1779997182764452400,17.691452392578125,8.605050086975098,-0.13305000960826874,-0.16200000047683716
1779997182781728800,17.708728759765624,9.991050720214844,-0.15405000746250153,-0.26205000281333923
1779997182799005400,17.72600537109375,11.30505084991455,-0.17805001139640808,-0.35100001096725464
1779997182816281900,17.74328173828125,11.757000923156738,-0.19500000774860382,-0.3820500075817108
1779997182833558300,17.760558349609376,11.086950302124023,-0.17595000565052032,-0.34095001220703125
1779997182850835000,17.7778349609375,9.708000183105469,-0.15405000746250153,-0.23805001378059387
1779997182868111400,17.795111328125,8.421000480651855,-0.13305000960826874,-0.14505000412464142
1779997182885388000,17.812387939453124,7.975950241088867,-0.12495000660419464,-0.12600000202655792
1779997182902664400,17.82966455078125,8.659950256347656,-0.13500000536441803,-0.15900000929832458
1779997182919941000,17.846941162109374,10.02405071258545,-0.15405000746250153,-0.2650500237941742
1779997182937217500,17.864217529296877,11.296950340270996,-0.18300001323223114,-0.35805001854896545
1779997182954494200,17.881494140625,11.72295093536377,-0.17595000565052032,-0.3840000033378601
1779997182971770600,17.8987705078125,11.03700065612793,-0.17805001139640808,-0.33195000886917114
1779997182989047300,17.91604736328125,9.673050880432129,-0.16095000505447388,-0.22095000743865967
1779997183006323700,17.93332373046875,8.407050132751465,-0.12495000660419464,-0.1399500072002411
1779997183023600000,17.95060009765625,8.017050743103027,-0.12300000339746475,-0.11400000751018524
1779997183040876800,17.967876708984374,8.695950508117676,-0.12105000764131546,-0.17100000381469727
1779997183058153500,17.985153564453125,10.054950714111328,-0.17295001447200775,-0.2740500271320343
1779997183075430000,18.002429931640624,11.30505084991455,-0.17805001139640808,-0.36000001430511475
1779997183092706300,18.019706298828126,11.69205093383789,-0.19500000774860382,-0.37905001640319824
1779997183109983000,18.03698291015625,10.993050575256348,-0.18105000257492065,-0.3270000219345093
1779997183127259400,18.05425927734375,9.62700080871582,-0.15405000746250153,-0.24105000495910645
1779997183144535800,18.071535888671875,8.413949966430664,-0.12495000660419464,-0.16905000805854797
1779997183161812500,18.0888125,8.043000221252441,-0.12300000339746475,-0.11595000326633453
1779997183179089000,18.1060888671875,8.74905014038086,-0.13500000536441803,-0.1660500019788742
1779997183196365600,18.123365478515623,10.102950096130371,-0.15900000929832458,-0.2740500271320343
1779997183213642000,18.14064208984375,11.29995059967041,-0.16905000805854797,-0.3439500033855438
1779997183230918700,18.157918701171877,11.66295051574707,-0.17295001447200775,-0.3820500075817108
1779997183248195000,18.175195068359375,10.945950508117676,-0.17295001447200775,-0.33195000886917114
1779997183265471700,18.1924716796875,9.60105037689209,-0.14505000412464142,-0.23295001685619354
1779997183282748200,18.209748046875,8.41200065612793,-0.12495000660419464,-0.1469999998807907
1779997183300024800,18.22702490234375,8.076000213623047,-0.12300000339746475,-0.11595000326633453
1779997183317301200,18.24430126953125,8.797050476074219,-0.13695000112056732,-0.17400000989437103
1779997183334578000,18.261577880859374,10.134000778198242,-0.16095000505447388,-0.2650500237941742
1779997183351854300,18.278854248046876,11.308950424194336,-0.16905000805854797,-0.35295000672340393
1779997183369130800,18.296130859375,11.625000953674316,-0.18300001323223114,-0.3750000298023224
1779997183386407400,18.313407470703126,10.894950866699219,-0.17100000381469727,-0.31995001435279846
1779997183403683800,18.330683837890625,9.559950828552246,-0.15405000746250153,-0.22905001044273376
1779997183420960500,18.34796044921875,8.407050132751465,-0.1399500072002411,-0.14295001327991486
1779997183438237000,18.36523681640625,8.098050117492676,-0.12300000339746475,-0.12300000339746475
1779997183455513600,18.382513671875,8.833050727844238,-0.1279500126838684,-0.1860000044107437
1779997183472790000,18.3997900390625,10.17300033569336,-0.16395001113414764,-0.28095000982284546
1779997183490066700,18.417066650390623,11.320950508117676,-0.16395001113414764,-0.3630000054836273
1779997183507343000,18.434343017578126,11.604000091552734,-0.2070000171661377,-0.36000001430511475
1779997183524619500,18.45161962890625,10.8589506149292,-0.1660500019788742,-0.3169500231742859
1779997183541896200,18.468896240234375,9.534000396728516,-0.15195000171661377,-0.23595000803470612
1779997183559172600,18.486172607421874,8.40195083618164,-0.11595000326633453,-0.1469999998807907
1779997183576449300,18.50344921875,8.131950378417969,-0.13005000352859497,-0.13095000386238098
1779997183593725700,18.5207255859375,8.875950813293457,-0.13005000352859497,-0.19305001199245453
1779997183611002000,18.538002197265627,10.206000328063965,-0.15405000746250153,-0.2740500271320343
1779997183628278800,18.55527880859375,11.33595085144043,-0.19005000591278076,-0.3550500273704529
1779997183645555500,18.572555419921876,11.569950103759766,-0.18300001323223114,-0.36705002188682556
1779997183662831900,18.589831787109375,10.809000968933105,-0.16905000805854797,-0.322050005197525
1779997183680108300,18.6071083984375,9.486000061035156,-0.1469999998807907,-0.22605000436306
1779997183697385000,18.624385009765625,8.40000057220459,-0.11400000751018524,-0.1469999998807907
1779997183714661400,18.641661376953124,8.170050621032715,-0.12495000660419464,-0.1279500126838684
1779997183731938000,18.65893798828125,8.919000625610352,-0.14205001294612885,-0.17805001139640808
1779997183749214500,18.67621435546875,10.242000579833984,-0.15900000929832458,-0.28095000982284546
1779997183766491100,18.6934912109375,11.32800006866455,-0.17805001139640808,-0.34800001978874207
1779997183783767600,18.710767578125,11.541000366210938,-0.18495000898838043,-0.3720000088214874
1779997183801044000,18.7280439453125,10.759050369262695,-0.15900000929832458,-0.322050005197525
1779997183818320600,18.745320556640625,9.454950332641602,-0.15405000746250153,-0.22605000436306
1779997183835597000,18.76259716796875,8.397000312805176,-0.12495000660419464,-0.14505000412464142
1779997183852873700,18.779873779296874,8.208000183105469,-0.13695000112056732,-0.12300000339746475
1779997183870150100,18.797150146484373,8.980950355529785,-0.13305000960826874,-0.19500000774860382
1779997183887426800,18.8144267578125,10.267950057983398,-0.15900000929832458,-0.29295000433921814
1779997183904703200,18.831703125,11.32395076751709,-0.1660500019788742,-0.34095001220703125
1779997183921980000,18.84897998046875,11.506050109863281,-0.1879500150680542,-0.3550500273704529
1779997183939256300,18.86625634765625,10.7160005569458,-0.16395001113414764,-0.3079500198364258
1779997183956532700,18.88353271484375,9.417000770568848,-0.14205001294612885,-0.22095000743865967
1779997183973809400,18.900809326171874,8.397000312805176,-0.12495000660419464,-0.14295001327991486
1779997183991085800,18.9180859375,8.230050086975098,-0.12300000339746475,-0.13305000960826874
1779997184008362500,18.935362548828124,9.02400016784668,-0.1489500105381012,-0.1980000138282776
1779997184025639000,18.952638916015626,10.306950569152832,-0.1570500135421753,-0.28395000100135803
1779997184042915300,18.969915283203125,11.320950508117676,-0.17295001447200775,-0.36000001430511475
1779997184060192000,18.98719189453125,11.482050895690918,-0.19005000591278076,-0.36000001430511475
1779997184077468400,19.004468505859375,10.675050735473633,-0.17100000381469727,-0.3150000274181366
1779997184094745000,19.0217451171875,9.397050857543945,-0.15405000746250153,-0.21900001168251038
1779997184112021500,19.039021484375,8.38800048828125,-0.12105000764131546,-0.14505000412464142
1779997184129298200,19.056298095703124,8.266050338745117,-0.12495000660419464,-0.13500000536441803
1779997184146574600,19.07357470703125,9.064949989318848,-0.14205001294612885,-0.19005000591278076
1779997184163851300,19.090851318359373,10.339950561523438,-0.1570500135421753,-0.28395000100135803
1779997184181127700,19.108127685546876,11.331000328063965,-0.18495000898838043,-0.34800001978874207
1779997184198404000,19.125404052734375,11.443050384521484,-0.1879500150680542,-0.35100001096725464
1779997184215680800,19.1426806640625,10.623000144958496,-0.1660500019788742,-0.3049500286579132
1779997184232957400,19.15995751953125,9.369000434875488,-0.1279500126838684,-0.22395001351833344
1779997184250233900,19.17723388671875,8.395050048828125,-0.13305000960826874,-0.15000000596046448
1779997184267510300,19.19451025390625,8.304000854492188,-0.13305000960826874,-0.13305000960826874
1779997184284787000,19.211786865234377,9.115050315856934,-0.1489500105381012,-0.1980000138282776
1779997184302063600,19.229063720703124,10.369050025939941,-0.15900000929832458,-0.29805001616477966
1779997184319340000,19.246340087890626,11.320950508117676,-0.20205001533031464,-0.35295000672340393
1779997184336616400,19.263616455078125,11.422050476074219,-0.18300001323223114,-0.3820500075817108
1779997184353893000,19.28089306640625,10.575000762939453,-0.16095000505447388,-0.29295000433921814
1779997184371169500,19.29816943359375,9.337950706481934,-0.11400000751018524,-0.2050500065088272
1779997184388446000,19.315446044921874,8.409000396728516,-0.13305000960826874,-0.13305000960826874
1779997184405722600,19.33272265625,8.329950332641602,-0.11805000901222229,-0.13095000386238098
1779997184422999000,19.3499990234375,9.156000137329102,-0.11805000901222229,-0.16395001113414764
1779997184440275700,19.367275634765626,10.386000633239746,-0.13005000352859497,-0.27900001406669617
1779997184457552100,19.38455224609375,11.319000244140625,-0.19200000166893005,-0.3550500273704529
1779997184474828500,19.40182861328125,11.380950927734375,-0.20400001108646393,-0.37905001640319824
1779997184492105200,19.419105224609375,10.54800033569336,-0.19500000774860382,-0.3240000009536743
1779997184509381600,19.436381591796874,9.31605052947998,-0.16095000505447388,-0.22395001351833344
1779997184526658300,19.453658203125,8.40000057220459,-0.1469999998807907,-0.1469999998807907
1779997184543934700,19.470934814453123,8.368050575256348,-0.12300000339746475,-0.15000000596046448
1779997184561211100,19.488211181640626,9.192000389099121,-0.12105000764131546,-0.18105000257492065
1779997184578487800,19.50548779296875,10.410000801086426,-0.11595000326633453,-0.2770500183105469
1779997184595764200,19.52276416015625,11.307000160217285,-0.1660500019788742,-0.33900001645088196
1779997184613041000,19.540041015625,11.343000411987305,-0.16095000505447388,-0.3169500231742859
1779997184630317300,19.5573173828125,10.510050773620605,-0.12105000764131546,-0.2959500253200531
1779997184647594000,19.574593994140624,9.28695011138916,-0.1279500126838684,-0.21405000984668732
1779997184664870400,19.591870361328127,8.419050216674805,-0.1570500135421753,-0.14505000412464142
1779997184682146800,19.609146728515626,8.40000057220459,-0.15405000746250153,-0.1469999998807907
1779997184699423500,19.626423583984376,9.235050201416016,-0.15405000746250153,-0.23100000619888306
1779997184716700000,19.643699951171875,10.443000793457031,-0.16395001113414764,-0.3169500231742859
1779997184733976600,19.6609765625,11.295000076293945,-0.19200000166893005,-0.3630000054836273
1779997184751253000,19.6782529296875,11.308950424194336,-0.18300001323223114,-0.35100001096725464
1779997184768529700,19.69552978515625,10.46505069732666,-0.16905000805854797,-0.29295000433921814
1779997184785806300,19.712806396484375,9.273000717163086,-0.15195000171661377,-0.20205001533031464
1779997184803082500,19.73008251953125,8.413949966430664,-0.10605000704526901,-0.1469999998807907
1779997184820359200,19.747359130859376,8.419050216674805,-0.10605000704526901,-0.1469999998807907
1779997184837635800,19.7646357421875,9.280050277709961,-0.13695000112056732,-0.20205001533031464
1779997184854912300,19.781912353515626,10.47195053100586,-0.17100000381469727,-0.28395000100135803
1779997184872188700,19.799188720703125,11.290050506591797,-0.17805001139640808,-0.3439500033855438
1779997184889465300,19.81646533203125,11.278050422668457,-0.1879500150680542,-0.36000001430511475
1779997184906742000,19.833741943359374,10.422000885009766,-0.16905000805854797,-0.3079500198364258
1779997184924018400,19.851018310546873,9.244050025939941,-0.1489500105381012,-0.21900001168251038
1779997184941294800,19.868294921875,8.42805004119873,-0.12495000660419464,-0.15405000746250153
1779997184958571500,19.885571533203127,8.457000732421875,-0.1570500135421753,-0.1469999998807907
1779997184975848200,19.90284814453125,9.318000793457031,-0.1469999998807907,-0.22095000743865967
1779997184993124400,19.920124267578124,10.492950439453125,-0.17595000565052032,-0.2959500253200531
1779997185010401000,19.937401123046875,11.290050506591797,-0.15900000929832458,-0.3550500273704529
1779997185027677700,19.954677734375,11.230050086975098,-0.16095000505447388,-0.34800001978874207
1779997185044954000,19.9719541015625,10.374000549316406,-0.1570500135421753,-0.2740500271320343
1779997185062230500,19.98923046875,9.208050727844238,-0.15405000746250153,-0.1980000138282776
1779997185079507200,20.006507080078126,8.431050300598145,-0.11400000751018524,-0.1469999998807907
1779997185096783600,20.02378369140625,8.50005054473877,-0.11100000888109207,-0.14505000412464142
1779997185114060000,20.04106005859375,9.357000350952148,-0.1489500105381012,-0.2070000171661377
1779997185131336700,20.058336669921875,10.516950607299805,-0.16395001113414764,-0.29805001616477966
1779997185148613000,20.075613037109374,11.281050682067871,-0.18105000257492065,-0.35295000672340393
1779997185165889500,20.0928896484375,11.214000701904297,-0.16905000805854797,-0.35295000672340393
1779997185183166200,20.110166259765624,10.342950820922852,-0.16905000805854797,-0.27900001406669617
1779997185200443000,20.12744287109375,9.189000129699707,-0.1489500105381012,-0.21195000410079956
1779997185217719000,20.144718994140625,8.434950828552246,-0.13005000352859497,-0.15195000171661377
1779997185234995700,20.16199560546875,8.530950546264648,-0.13500000536441803,-0.1660500019788742
1779997185252272400,20.1792724609375,9.394950866699219,-0.13005000352859497,-0.22605000436306
1779997185269548800,20.196548828125,10.53600025177002,-0.15900000929832458,-0.2959500253200531
1779997185286825200,20.2138251953125,11.283000946044922,-0.19200000166893005,-0.3360000252723694
1779997185304102000,20.231101806640623,11.170950889587402,-0.1879500150680542,-0.3439500033855438
1779997185321378600,20.248378662109374,10.306950569152832,-0.16095000505447388,-0.28395000100135803
1779997185338654700,20.26565478515625,9.157950401306152,-0.1469999998807907,-0.20205001533031464
1779997185355931400,20.282931396484376,8.449950218200684,-0.11595000326633453,-0.1469999998807907
1779997185373208000,20.3002080078125,8.554950714111328,-0.1399500072002411,-0.14295001327991486
1779997185390484500,20.317484375,9.433050155639648,-0.14205001294612885,-0.22395001351833344
1779997185407761200,20.33476123046875,10.570050239562988,-0.16095000505447388,-0.30000001192092896
1779997185425037600,20.35203759765625,11.260950088500977,-0.16905000805854797,-0.3550500273704529
1779997185442314000,20.36931396484375,11.14905071258545,-0.18105000257492065,-0.34095001220703125
1779997185459590700,20.386590576171876,10.258950233459473,-0.15900000929832458,-0.2740500271320343
1779997185476867000,20.4038671875,9.136950492858887,-0.14205001294612885,-0.21195000410079956
1779997185494143700,20.421143798828126,8.45895004272461,-0.13500000536441803,-0.15000000596046448
1779997185511420200,20.438420166015625,8.593050003051758,-0.1279500126838684,-0.16200000047683716
1779997185528696600,20.455696533203124,9.487950325012207,-0.13695000112056732,-0.23100000619888306
1779997185545973200,20.47297314453125,10.588950157165527,-0.18300001323223114,-0.28395000100135803
1779997185563249700,20.490249755859374,11.259000778198242,-0.16905000805854797,-0.35295000672340393
1779997185580526300,20.5075263671875,11.11305046081543,-0.17595000565052032,-0.3360000252723694
1779997185597802800,20.524802734375,10.204050064086914,-0.15900000929832458,-0.27195000648498535
1779997185615079400,20.542079345703126,9.124950408935547,-0.13005000352859497,-0.21195000410079956
1779997185632355800,20.55935595703125,8.469000816345215,-0.1399500072002411,-0.14505000412464142
1779997185649632300,20.57663232421875,8.632050514221191,-0.13305000960826874,-0.1570500135421753
1779997185666909000,20.593908935546875,9.511950492858887,-0.1660500019788742,-0.23295001685619354
1779997185684185300,20.611185302734373,10.611000061035156,-0.16395001113414764,-0.3079500198364258
1779997185701461800,20.628461669921876,11.248950958251953,-0.17295001447200775,-0.34800001978874207
1779997185718738200,20.64573828125,11.082000732421875,-0.18105000257492065,-0.33900001645088196
1779997185736014800,20.663014892578126,10.177050590515137,-0.16395001113414764,-0.2740500271320343
1779997185753291500,20.68029150390625,9.109950065612793,-0.1469999998807907,-0.19500000774860382
1779997185770568000,20.69756787109375,8.48805046081543,-0.13500000536441803,-0.1380000114440918
1779997185787844400,20.71484423828125,8.668050765991211,-0.1279500126838684,-0.15900000929832458
1779997185805121000,20.73212109375,9.550950050354004,-0.13305000960826874,-0.23295001685619354
1779997185822397700,20.749397705078124,10.624950408935547,-0.16395001113414764,-0.29805001616477966
1779997185839673900,20.766673828125,11.239950180053711,-0.18495000898838043,-0.34800001978874207
1779997185856950500,20.783950439453125,11.03700065612793,-0.17805001139640808,-0.33195000886917114
1779997185874227200,20.801227294921876,10.146000862121582,-0.17100000381469727,-0.2689500153064728
1779997185891503600,20.818503662109375,9.088950157165527,-0.14205001294612885,-0.20205001533031464
1779997185908780300,20.8357802734375,8.479050636291504,-0.1399500072002411,-0.14505000412464142
1779997185926056700,20.853056640625,8.701050758361816,-0.12300000339746475,-0.17100000381469727
1779997185943333000,20.8703330078125,9.58905029296875,-0.1469999998807907,-0.22395001351833344
1779997185960609800,20.88760986328125,10.648950576782227,-0.15900000929832458,-0.30300000309944153
1779997185977886200,20.90488623046875,11.221050262451172,-0.17295001447200775,-0.3460500240325928
1779997185995163000,20.922162841796876,11.008050918579102,-0.16905000805854797,-0.3340500295162201
1779997186012439300,20.939439208984375,10.099050521850586,-0.1570500135421753,-0.2689500153064728
1779997186029715700,20.9567158203125,9.07395076751709,-0.1399500072002411,-0.19500000774860382
1779997186046992100,20.9739921875,8.505000114440918,-0.14505000412464142,-0.1399500072002411
1779997186064268800,20.991268798828123,8.722949981689453,-0.13305000960826874,-0.17400000989437103
1779997186081545500,21.00854541015625,9.628950119018555,-0.15405000746250153,-0.24495001137256622
1779997186098822000,21.02582177734375,10.656000137329102,-0.1660500019788742,-0.30300000309944153
1779997186116098300,21.043098388671876,11.218050956726074,-0.16905000805854797,-0.3439500033855438
1779997186133375000,21.060375,10.972050666809082,-0.17295001447200775,-0.322050005197525
1779997186150651400,21.0776513671875,10.066950798034668,-0.15405000746250153,-0.25995001196861267
1779997186167927800,21.094927734375,9.052950859069824,-0.13695000112056732,-0.19305001199245453
1779997186185204500,21.11220458984375,8.509950637817383,-0.13500000536441803,-0.15195000171661377
1779997186202481000,21.12948095703125,8.773050308227539,-0.1469999998807907,-0.16905000805854797
1779997186219757300,21.14675732421875,9.664950370788574,-0.1469999998807907,-0.24495001137256622
1779997186237034000,21.164033935546875,10.675050735473633,-0.16905000805854797,-0.3150000274181366
1779997186254310700,21.181310546875,11.199000358581543,-0.17595000565052032,-0.34095001220703125
1779997186271587000,21.198587158203125,10.930950164794922,-0.17595000565052032,-0.33195000886917114
1779997186288863500,21.215863525390624,10.036050796508789,-0.1570500135421753,-0.26205000281333923
1779997186306140200,21.23314013671875,9.03600025177002,-0.14205001294612885,-0.19005000591278076
1779997186323416600,21.25041650390625,8.526000022888184,-0.11595000326633453,-0.15405000746250153
1779997186340693200,21.267693359375,8.797050476074219,-0.14505000412464142,-0.17100000381469727
1779997186357969700,21.2849697265625,9.700950622558594,-0.15195000171661377,-0.24300001561641693
1779997186375246300,21.302246337890626,10.70205020904541,-0.16905000805854797,-0.3079500198364258
1779997186392522800,21.319522705078125,11.190000534057617,-0.18105000257492065,-0.3360000252723694
1779997186409799200,21.336799072265624,10.905000686645508,-0.18105000257492065,-0.32895001769065857
1779997186427075800,21.354075927734375,9.993000030517578,-0.16095000505447388,-0.2689500153064728
1779997186444352300,21.371352294921873,9.022050857543945,-0.13695000112056732,-0.19305001199245453
1779997186461628700,21.388628662109376,8.538000106811523,-0.13305000960826874,-0.15000000596046448
1779997186478905300,21.4059052734375,8.842050552368164,-0.13500000536441803,-0.17400000989437103
1779997186496181800,21.423181640625,9.735000610351562,-0.1469999998807907,-0.22395001351833344
1779997186513458200,21.440458251953125,10.70895004272461,-0.15900000929832458,-0.29100000858306885
1779997186530734800,21.45773486328125,11.167950630187988,-0.16395001113414764,-0.34095001220703125
1779997186548011000,21.475010986328126,10.8589506149292,-0.16095000505447388,-0.3360000252723694
1779997186565287700,21.49228759765625,9.957000732421875,-0.15900000929832458,-0.2569500207901001
1779997186582564400,21.509564453125,9,-0.15405000746250153,-0.18105000257492065
1779997186599840800,21.5268408203125,8.557050704956055,-0.10605000704526901,-0.15000000596046448
1779997186617117200,21.5441171875,8.881050109863281,-0.16395001113414764,-0.18105000257492065
1779997186634393900,21.561393798828124,9.780000686645508,-0.15900000929832458,-0.2550000250339508
1779997186651670300,21.578670166015623,10.72095012664795,-0.16395001113414764,-0.3150000274181366
1779997186668947000,21.595947021484374,11.163000106811523,-0.1570500135421753,-0.32895001769065857
