time,seconds_elapsed,z,y,x
1779997442654588200,0.346588134765625,0.010596999898552895,0.0018749999580904841,-0.11137299984693527
1779997442671864300,0.3638642578125,0.010916000232100487,0.0012000000569969416,-0.07194200158119202
1779997442689140700,0.381140625,0.011247999966144562,0.0009459999855607748,-0.046668000519275665
1779997442706417000,0.3984169921875,0.009037000127136707,0.0008350000134669244,-0.03054399974644184
1779997442723693600,0.415693603515625,0.003728999989107251,0.0020020001102238894,-0.020402999594807625
1779997442740969700,0.4329697265625,0.0017099999822676182,0.0015620000194758177,-0.013338999822735786
1779997442758246100,0.45024609375,0.008089999668300152,0.0013439999893307686,-0.009813000448048115
1779997442775522300,0.467522216796875,0.015793999657034874,0.0011020000092685223,-0.008104999549686909
1779997442792798700,0.484798828125,0.01929599978029728,0.00043700000969693065,-0.006833000108599663
1779997442810075100,0.5020751953125,0.020174000412225723,0.0006750000175088644,-0.005623999983072281
1779997442827351300,0.519351318359375,0.020428000018000603,0.0000870000003487803,-0.005156000144779682
1779997442844627700,0.536627685546875,0.016493000090122223,-0.000045000000682193786,-0.004486999940127134
1779997442861904000,0.55390380859375,0.002196999965235591,-0.0007820000173524022,-0.0018119999440386891
1779997442879180300,0.57118017578125,-0.00817899964749813,-0.0009720000089146197,-0.000994000001810491
1779997442896456700,0.588456787109375,-0.011629000306129456,-0.0008900000248104334,-0.000699999975040555
1779997442913732900,0.60573291015625,-0.007965999655425549,-0.0006590000120922923,-0.0009580000187270343
1779997442931009300,0.62300927734375,-0.001269000000320375,-0.0007280000136233866,-0.0014680000022053719
1779997442948285400,0.640285400390625,-0.002816000021994114,-0.0001849999971454963,-0.001820000004954636
1779997442965561900,0.657561767578125,-0.00215999991632998,-0.0008839999791234732,-0.0016749999485909939
1779997442982838000,0.674838134765625,0.004029999952763319,-0.0026459998916834593,-0.00048499999684281647
1779997443000114400,0.692114501953125,0.002732000080868602,-0.0018210000125691295,0.0006719999946653843
1779997443017390800,0.709390869140625,-0.010387999936938286,-0.0005520000122487545,0.002216000109910965
1779997443034667000,0.7266669921875,-0.02089099958539009,0.001943000010214746,0.002478000009432435
1779997443051943400,0.743943359375,-0.010040000081062317,0.0038469999562948942,-0.00016199999663513154
1779997443069219600,0.761219482421875,0.014643000438809395,0.0031640001107007265,-0.0031030001118779182
1779997443086496300,0.778496337890625,0.02712400071322918,0.00011000000085914508,-0.0027260000351816416
1779997443103772700,0.795772705078125,0.01973400078713894,0.0007849999819882214,-0.003212000010535121
1779997443121048800,0.813048828125,0.02185700088739395,-0.0006200000061653554,-0.004428999964147806
1779997443138325200,0.8303251953125,0.025551000609993935,-0.001762000028975308,-0.005028999876230955
1779997443155601700,0.8476015625,0.007482000160962343,-0.00033599999733269215,-0.0026829999405890703
1779997443172877800,0.8648779296875,-0.019394999369978905,-0.0020779999904334545,0.002684999955818057
1779997443190154200,0.882154296875,-0.029757000505924225,-0.001636000000871718,0.0049600000493228436
1779997443207430400,0.899430419921875,-0.022068999707698822,-0.001978999935090542,0.005483999848365784
1779997443224706800,0.916706787109375,-0.008609999902546406,-0.001930000027641654,0.005028000101447105
1779997443241983200,0.933983154296875,-0.0010819999733939767,-0.0001250000059371814,0.0029120000544935465
1779997443259259400,0.95125927734375,0.008572000078856945,-0.0013689999468624592,0.0007660000119358301
1779997443276535800,0.968535888671875,0.01789199933409691,-0.0021520000882446766,-0.0010659999679774046
1779997443293812000,0.98581201171875,0.021800000220537186,-0.004209999926388264,-0.0008099999977275729
1779997443311088600,1.003088623046875,0.005491000134497881,-0.006051000207662582,0.0024419999681413174
1779997443328364500,1.020364501953125,-0.01872899942100048,-0.005646000150591135,0.005224999971687794
1779997443345641200,1.03764111328125,-0.03266200050711632,-0.0010479999473318458,0.004492000211030245
1779997443362917400,1.05491748046875,-0.020340999588370323,-0.0008239999879151583,0.004534000065177679
1779997443380193800,1.07219384765625,-0.01823900081217289,0.0005310000269673765,0.005135000217705965
1779997443397470000,1.089469970703125,-0.01893400028347969,0.0011690000537782907,0.005392000079154968
1779997443414746400,1.106746337890625,-0.00814799964427948,-0.00027200000477023423,0.004228999838232994
1779997443432022800,1.124022705078125,0.014450999908149242,0.000526999996509403,0.00019200000679120421
1779997443449299200,1.14129931640625,0.024984000250697136,-0.0017040000529959798,-0.00661400007084012
1779997443466575400,1.158575439453125,0.020584000274538994,-0.0014860000228509307,-0.009975999593734741
1779997443483851800,1.175851806640625,0.009944000281393528,0.0035149999894201756,-0.007226999849081039
1779997443501128000,1.1931279296875,0.0008510000188834965,-0.0029440000653266907,-0.0018560000462457538
1779997443518404400,1.210404296875,-0.003665999975055456,0.005963999778032303,-0.003203999949619174
1779997443535680800,1.2276806640625,-0.002191999927163124,0.007224000059068203,-0.001769999973475933
1779997443552957000,1.24495703125,-0.005410999990999699,0.0023129999171942472,0.0021720000077039003
1779997443570233300,1.2622333984375,-0.0027099999133497477,0.007809999864548445,0.000024000000848900527
1779997443587509800,1.279509765625,-0.006010000128298998,0.007205999922007322,-0.002369999885559082
1779997443613424000,1.305424072265625,0.00035799999022856355,0.002831999910995364,-0.004155999980866909
1779997443630700500,1.322700439453125,0.011919000186026096,0.0030249999836087227,-0.009933999739587307
1779997443647977000,1.33997705078125,0.01733900047838688,0.0019480000482872128,-0.012624000199139118
1779997443665253000,1.357253173828125,0.011327000334858894,0.001769999973475933,-0.010606000199913979
1779997443682529500,1.374529541015625,0.002807999961078167,0.002102999947965145,-0.008255000226199627
1779997443699805700,1.3918056640625,-0.0020940001122653484,0.004127999767661095,-0.006393999792635441
1779997443717082400,1.409082275390625,-0.003599999938160181,0.006546999793499708,-0.0006709999870508909
1779997443734358500,1.426358642578125,-0.003298999974504113,0.0025690000038594007,0.0012669999850913882
1779997443751635000,1.443635009765625,-0.002862999914214015,0.0027540000155568123,-0.0015620000194758177
1779997443768911400,1.460911376953125,0.0025949999690055847,0.0028860000893473625,-0.0041519999504089355
1779997443786187500,1.4781875,-0.0011840000515803695,-0.005822000093758106,-0.002019000006839633
1779997443803464000,1.4954638671875,-0.0012809999752789736,-0.0011099999537691474,-0.005694999825209379
1779997443820740000,1.512739990234375,0.0017049999441951513,-0.000977999996393919,-0.007102999836206436
1779997443838016500,1.5300166015625,-0.00046300000394694507,-0.00419900007545948,-0.004954000003635883
1779997443855292700,1.547292724609375,-0.0024530000519007444,-0.001142999972216785,-0.004408000037074089
1779997443872569300,1.5645693359375,-0.001686000032350421,-0.0006929999799467623,-0.0022589999716728926
1779997443889845500,1.581845458984375,-0.005034999921917915,-0.00034100000630132854,0.0013989999424666166
1779997443907122000,1.599121826171875,0.0006040000007487833,0.001158999977633357,0.003218000056222081
1779997443924398000,1.616398193359375,0.01671000011265278,0.002157999901100993,0.0018680000212043524
1779997443941674500,1.633674560546875,0.05468599870800972,0.0015849999617785215,-0.0019809999503195286
1779997443958951000,1.650950927734375,0.09874600172042847,0.0002739999908953905,-0.004011999815702438
1779997443976227300,1.668227294921875,0.14856299757957458,-0.0024019998963922262,-0.0032820000778883696
1779997443993503500,1.68550341796875,0.2054480016231537,-0.005429000128060579,-0.00317199993878603
1779997444010780000,1.70277978515625,0.3456999957561493,-0.01256099995225668,-0.008615000173449516
1779997444028056000,1.72005615234375,0.6247509717941284,-0.029479000717401505,-0.009469999931752682
1779997444045332700,1.737332763671875,0.7410489916801453,-0.01885399967432022,-0.0256120003759861
1779997444062609000,1.75460888671875,0.5559120178222656,-0.027432000264525414,-0.008785000070929527
1779997444079885300,1.77188525390625,-0.36663201451301575,-0.001003999961540103,0.06123799830675125
1779997444097161700,1.78916162109375,-1.0926710367202759,-0.0177180003374815,0.19423900544643402
1779997444114438100,1.806438232421875,-1.4245460033416748,-0.01422400027513504,0.25882598757743835
1779997444131714300,1.82371435546875,-1.2578070163726807,0.059147998690605164,0.19566500186920166
1779997444148990700,1.84099072265625,-0.6392149925231934,0.10356699675321579,0.08770500123500824
1779997444166267000,1.858266845703125,1.3638479709625244,-0.08598200231790543,0.03226599842309952
1779997444183543300,1.875543212890625,1.5017069578170776,-0.1449889987707138,0.02641800045967102
1779997444209458000,1.9014580078125,0.3311310112476349,0.022319000214338303,0.0379600003361702
1779997444226734000,1.918734130859375,-0.5748109817504883,-0.0016169999726116657,0.15838700532913208
1779997444244010500,1.936010498046875,-1.2254470586776733,-0.00890900008380413,0.2423509955406189
1779997444261287000,1.953286865234375,-1.4610650539398193,0.016196999698877335,0.24281899631023407
1779997444278563000,1.97056298828125,-1.3724030256271362,0.06909800320863724,0.16352100670337677
1779997444295839500,1.987839599609375,-0.1555909961462021,-0.005969999823719263,0.08778099715709686
1779997444313116000,2.005115966796875,0.4509040117263794,-0.019696999341249466,0.052542999386787415
1779997444330392000,2.02239208984375,1.0208979845046997,0.009305999614298344,0.016462000086903572
1779997444347668500,2.03966845703125,1.6335099935531616,-0.042233001440763474,-0.07364299893379211
1779997444364945000,2.05694482421875,1.153668999671936,-0.009851000271737576,-0.09392999857664108
1779997444382221300,2.07422119140625,0.5103390216827393,-0.04358299821615219,-0.0020349998958408833
1779997444408135700,2.1001357421875,-0.5536739826202393,-0.059944998472929,0.1504729986190796
1779997444425412000,2.117412109375,-2.147233009338379,0.19223399460315704,0.10492999851703644
1779997444442688300,2.134688232421875,-0.7499539852142334,0.0831729993224144,0.06078600138425827
1779997444459964700,2.151964599609375,0.7316319942474365,-0.14626599848270416,0.056501999497413635
1779997444477241000,2.169240966796875,0.9467229843139648,-0.0268389992415905,-0.052368998527526855
1779997444494517500,2.186517578125,0.9340569972991943,0.03434300050139427,-0.10857000201940536
1779997444511794000,2.2037939453125,0.6235759854316711,0.005197000224143267,-0.058841001242399216
1779997444529070300,2.2210703125,0.12907899916172028,-0.02568100020289421,0.04501400142908096
1779997444546346500,2.238346435546875,-0.6336529850959778,-0.013105000369250774,0.11164800077676773
1779997444563623000,2.255622802734375,-1.5210920572280884,0.06264600157737732,0.1029520034790039
1779997444580899300,2.2728994140625,-0.5516449809074402,-0.002964999992400408,0.07497599720954895
1779997444598175700,2.29017578125,-0.026788000017404556,0.003742000088095665,0.0314439982175827
1779997444615452000,2.307451904296875,0.74692702293396,0.015936000272631645,-0.02102000080049038
1779997444632728300,2.324728271484375,0.940267026424408,0.022526999935507774,-0.09254000335931778
1779997444650004700,2.342004638671875,0.6892290115356445,0.015068000182509422,-0.07955499738454819
1779997444667281000,2.359281005859375,0.23545700311660767,-0.04750499874353409,0.013238999992609024
1779997444684557300,2.376557373046875,-0.2941949963569641,-0.08395300060510635,0.10409999638795853
1779997444701833700,2.393833740234375,-1.456936001777649,0.10094700008630753,0.08560100197792053
1779997444719110000,2.41110986328125,-0.7802500128746033,0.09421399980783463,0.040516000241041183
1779997444736386300,2.42838623046875,0.08357799798250198,-0.013926999643445015,0.03899899870157242
1779997444753662500,2.445662353515625,0.8021829724311829,-0.022569000720977783,-0.022859999909996986
1779997444770939000,2.46293896484375,1.1778600215911865,-0.05218200013041496,-0.08168300241231918
1779997444788215300,2.48021533203125,0.7114089727401733,-0.024730000644922256,-0.06456699967384338
1779997444805491700,2.49749169921875,0.12625500559806824,-0.012853999622166157,0.023381000384688377
1779997444822768000,2.51476806640625,-0.6775500178337097,0.021994000300765038,0.08596000075340271
1779997444840044500,2.53204443359375,-1.399459958076477,0.09598299860954285,0.07422100007534027
1779997444857320700,2.54932080078125,-0.7587550282478333,-0.0021379999816417694,0.05256799980998039
1779997444874597000,2.56659716796875,0.09767799824476242,-0.07715000212192535,0.04594599828124046
1779997444891873500,2.58387353515625,0.3567970097064972,0.013604000210762024,-0.022509999573230743
1779997444909150000,2.60114990234375,0.7186470031738281,0.01968199945986271,-0.0582830011844635
1779997444926426000,2.618426025390625,0.9812449812889099,-0.05326800048351288,-0.05601000040769577
1779997444943702500,2.63570263671875,0.4420750141143799,-0.04855100065469742,0.013567999936640263
1779997444960979000,2.65297900390625,-0.1944659948348999,-0.02707800082862377,0.08829399943351746
1779997444978255000,2.670255126953125,-1.48819899559021,0.11242199689149857,0.09614700078964233
1779997444995531500,2.687531494140625,-0.9345939755439758,0.04999899864196777,0.06586000323295593
1779997445012808000,2.704807861328125,0.2549850046634674,-0.09701299667358398,0.0402740016579628
1779997445030084400,2.72208447265625,0.12777599692344666,0.03501899912953377,-0.010697999969124794
1779997445047360800,2.73936083984375,0.5074189901351929,0.05532500147819519,-0.04435500130057335
1779997445073275100,2.765275146484375,0.790378987789154,-0.050248999148607254,-0.03658699989318848
1779997445090551600,2.782551513671875,0.29249700903892517,-0.058692000806331635,0.0353659987449646
1779997445107828000,2.799827880859375,-0.2925429940223694,-0.00981799978762865,0.07890299707651138
1779997445125104000,2.817104248046875,-1.5937349796295166,0.135235995054245,0.07935299724340439
1779997445142380500,2.834380615234375,-0.16465599834918976,-0.017090000212192535,0.06652099639177322
1779997445159657000,2.851656982421875,0.2387010008096695,-0.06522800028324127,0.026889000087976456
1779997445176933400,2.868933349609375,0.19410499930381775,0.04899200052022934,-0.025530999526381493
1779997445194209800,2.886209716796875,0.7154979705810547,-0.0006130000110715628,-0.04642000049352646
1779997445211486000,2.90348583984375,0.4941120147705078,-0.02100300043821335,-0.04115600138902664
1779997445228762400,2.920762451171875,0.15480299293994904,-0.026587000116705894,0.01881200075149536
1779997445246038500,2.93803857421875,-0.24124200642108917,-0.03615900129079819,0.061059001833200455
1779997445263315200,2.955315185546875,-1.284703016281128,0.08920300006866455,0.06603100150823593
1779997445280591400,2.97259130859375,-0.24413299560546875,0.023346999660134315,0.03615900129079819
1779997445297867800,2.98986767578125,0.08234299719333649,-0.03128200024366379,0.02252900041639805
1779997445315144200,3.007144287109375,0.4675459861755371,-0.0000470000013592653,-0.022336000576615334
1779997445332420400,3.02442041015625,0.6349639892578125,-0.0043310001492500305,-0.05260699987411499
1779997445349696800,3.04169677734375,0.4486579895019531,-0.008910000324249268,-0.039423998445272446
1779997445366973200,3.05897314453125,0.12215200066566467,-0.014073999598622322,0.009518999606370926
1779997445384249600,3.07624951171875,-0.29884299635887146,-0.009504999965429306,0.050223998725414276
1779997445401526000,3.093526123046875,-1.0395220518112183,0.055365998297929764,0.0630280002951622
1779997445418802200,3.11080224609375,-0.33106499910354614,-0.007344000041484833,0.05253800004720688
1779997445436078600,3.12807861328125,-0.03717900067567825,-0.017169000580906868,0.021767999976873398
1779997445453354800,3.145354736328125,0.39785298705101013,0.007809999864548445,-0.02311599999666214
1779997445470631400,3.16263134765625,0.5753650069236755,0.0012209999840706587,-0.04861399903893471
1779997445487907600,3.179907470703125,0.4269770085811615,-0.001693999976851046,-0.04104200005531311
1779997445505184000,3.19718408203125,0.17536699771881104,-0.022842999547719955,0.0029959999956190586
1779997445522460400,3.21446044921875,-0.10916300117969513,-0.03654500097036362,0.04962199926376343
1779997445539736600,3.231736572265625,-0.9973430037498474,0.06242299824953079,0.057142000645399094
1779997445557013000,3.249012939453125,-0.3462490141391754,0.003527000080794096,0.04138199985027313
1779997445574289700,3.26628955078125,0.07062800228595734,-0.027489999309182167,0.012140000239014626
1779997445591565800,3.28356591796875,0.16521799564361572,0.04278299957513809,-0.024582000449299812
1779997445608842200,3.30084228515625,0.5848690271377563,0.0007849999819882214,-0.048990000039339066
1779997445626118700,3.31811865234375,0.45964500308036804,-0.017784999683499336,-0.034556999802589417
1779997445643395000,3.33539501953125,0.19506199657917023,-0.01769999973475933,0.0030239999759942293
1779997445660671200,3.352671142578125,-0.3404560089111328,0.0048790001310408115,0.04168900102376938
1779997445677948000,3.369947998046875,-0.7062510251998901,0.04242999851703644,0.03955800086259842
1779997445695224000,3.38722412109375,-0.22808800637722015,-0.006535999942570925,0.029055999591946602
1779997445712500500,3.40450048828125,-0.20434999465942383,0.01633800007402897,0.010670999996364117
1779997445729777000,3.42177685546875,0.3094469904899597,0.011846999637782574,-0.021630000323057175
1779997445747053000,3.439052978515625,0.5858510136604309,-0.023569999262690544,-0.04286399856209755
1779997445764329700,3.456329833984375,0.44752299785614014,-0.014523000456392765,-0.034974999725818634
1779997445781606000,3.47360595703125,-0.006490000057965517,0.017020000144839287,-0.0032530000898987055
1779997445798882300,3.49088232421875,-0.2764109969139099,0.006680999882519245,0.029733000323176384
1779997445816158500,3.508158447265625,-0.5048149824142456,0.009022999554872513,0.04373700171709061
1779997445833435000,3.525434814453125,-0.44266200065612793,0.015460999682545662,0.03253500163555145
1779997445850711300,3.542711181640625,-0.030115000903606415,-0.005762999877333641,0.014275000430643559
1779997445867987500,3.559987548828125,0.25209999084472656,-0.0016210000030696392,-0.011231999844312668
1779997445885264100,3.57726416015625,0.4939909875392914,-0.00891099963337183,-0.03587799891829491
1779997445902540300,3.594540283203125,0.4142960011959076,-0.010577999986708164,-0.03324799984693527
1779997445919816700,3.611816650390625,0.06765200197696686,0.0011289999820291996,-0.0043680001981556416
1779997445937093000,3.629093017578125,-0.2786779999732971,0.004563999827951193,0.02549700066447258
1779997445954369500,3.64636962890625,-0.4694199860095978,0.004184000194072723,0.03780899941921234
1779997445971646000,3.66364599609375,-0.4196529984474182,0.010449999943375587,0.03002999909222126
1779997445988922000,3.680922119140625,-0.059418998658657074,0.000881000014487654,0.012838000431656837
1779997446006198500,3.698198486328125,0.2698200047016144,-0.0017579999985173345,-0.012151000089943409
1779997446023475000,3.715474853515625,0.4657300114631653,-0.0037159998901188374,-0.034219998866319656
1779997446040751000,3.732751220703125,0.3889079988002777,-0.008082999847829342,-0.032186999917030334
1779997446058027800,3.75002783203125,0.08262299746274948,-0.002555999904870987,-0.00571900000795722
1779997446075304200,3.76730419921875,-0.2741129994392395,0.007884000428020954,0.02243800088763237
1779997446092580400,3.784580322265625,-0.4545530080795288,0.006322000175714493,0.031168000772595406
1779997446109856800,3.801856689453125,-0.39962100982666016,0.007644999772310257,0.016398999840021133
1779997446127133200,3.81913330078125,-0.06334199756383896,0.00092299998505041,-0.002968000015243888
1779997446144409600,3.83640966796875,0.28271299600601196,-0.007486999966204166,-0.020723000168800354
1779997446161686000,3.85368603515625,0.4635559916496277,-0.012423000298440456,-0.0370899997651577
1779997446178962400,3.87096240234375,0.38737499713897705,-0.00788700021803379,-0.03649900108575821
1779997446196238600,3.888238525390625,0.08923500031232834,-0.0007849999819882214,-0.005326999817043543
1779997446213515000,3.905514892578125,-0.2736479938030243,0.005673999898135662,0.02789600007236004
1779997446230791400,3.92279150390625,-0.45326000452041626,0.008417000062763691,0.03551600128412247
1779997446248067800,3.94006787109375,-0.4055590033531189,0.008781000040471554,0.025180000811815262
1779997446265344300,3.95734423828125,-0.07416100054979324,0.004548000171780586,0.008751999586820602
1779997446282620400,3.974620361328125,0.2685909867286682,-0.0024999999441206455,-0.01231599971652031
1779997446308535000,4.00053515625,0.4479660093784332,-0.007306000217795372,-0.03356600180268288
1779997446325811500,4.0178115234375,0.255405992269516,-0.0063599999994039536,-0.018163999542593956
1779997446343087900,4.035087890625,-0.09824000298976898,0.00482399994507432,0.015531999990344048
1779997446360364300,4.0523642578125,-0.38302600383758545,0.007133000064641237,0.043198999017477036
1779997446377640700,4.069640625,-0.4608039855957031,0.009809999726712704,0.04347199946641922
1779997446394917000,4.086917236328125,-0.2732830047607422,0.008268999867141247,0.024733999744057655
1779997446412193300,4.104193359375,0.0969960018992424,-0.002032000105828047,0.001025000005029142
1779997446429469700,4.1214697265625,0.36904600262641907,-0.002563999965786934,-0.02311900071799755
1779997446446746000,4.13874609375,0.44320499897003174,-0.008621999993920326,-0.034053999930620193
1779997446464022300,4.156022216796875,0.2659749984741211,-0.006295999977737665,-0.022789999842643738
1779997446481298700,4.173298583984375,-0.07918699830770493,0.0016870000399649143,0.006076000165194273
1779997446498575400,4.190575439453125,-0.36191099882125854,0.005150999873876572,0.030919000506401062
1779997446515851500,4.2078515625,-0.4467810094356537,0.006256999913603067,0.03399199992418289
1779997446533128000,4.2251279296875,-0.2687619924545288,0.002856000093743205,0.018372999504208565
1779997446550404400,4.242404296875,0.09006299823522568,-0.004910000134259462,-0.0055970000103116035
1779997446567680800,4.2596806640625,0.36134201288223267,-0.008565999567508698,-0.02740900032222271
1779997446584957200,4.276957275390625,0.440418004989624,-0.007931999862194061,-0.035982999950647354
1779997446602233600,4.294233642578125,0.2664619982242584,-0.009633000008761883,-0.026334000751376152
1779997446619509800,4.311509765625,-0.06599900126457214,0.00494999997317791,0.0014329999685287476
1779997446636786200,4.3287861328125,-0.34989699721336365,0.005669000092893839,0.030690999701619148
1779997446654062600,4.3460625,-0.4375460147857666,0.008094999939203262,0.03420399874448776
1779997446671339000,4.363339111328125,-0.2718470096588135,0.009073000401258469,0.016287999227643013
1779997446688615400,4.380615478515625,0.07628200203180313,-0.002271000063046813,-0.000754999986384064
1779997446705891800,4.397891845703125,0.3453499972820282,-0.006442999932914972,-0.020111000165343285
1779997446731806200,4.42380615234375,0.3715600073337555,-0.005249000154435635,-0.02982800081372261
1779997446749082600,4.44108251953125,0.11330199986696243,-0.0001429999974789098,-0.0041069998405873775
1779997446766359000,4.458359130859375,-0.22144900262355804,0.006378000136464834,0.025064999237656593
1779997446783635500,4.475635498046875,-0.41357600688934326,0.008217000402510166,0.03309199959039688
1779997446800912000,4.492911865234375,-0.3871929943561554,0.008526000194251537,0.02527499943971634
1779997446818188300,4.510188232421875,-0.10740599781274796,0.002483000047504902,0.012691999785602093
1779997446835464400,4.52746435546875,0.2171189934015274,-0.004790999926626682,-0.00962899997830391
1779997446852740900,4.544740966796875,0.41018998622894287,-0.002939000027254224,-0.030830999836325645
1779997446870017300,4.562017333984375,0.36775898933410645,-0.0061690001748502254,-0.027721000835299492
1779997446887293400,4.57929345703125,0.11730299890041351,-0.003220000071451068,-0.004902999848127365
1779997446904570000,4.596570068359375,-0.210657998919487,0.00431900005787611,0.020625000819563866
1779997446921846300,4.61384619140625,-0.4069629907608032,0.004002000205218792,0.033160001039505005
1779997446939122700,4.631122802734375,-0.3815680146217346,0.007449000142514706,0.027730999514460564
1779997446956399000,4.648399169921875,-0.11374799907207489,0.0025210001040250063,0.010575000196695328
1779997446973675500,4.665675537109375,0.210317000746727,-0.003630999941378832,-0.013906000182032585
1779997446990952000,4.682951904296875,0.4031440019607544,-0.006279999855905771,-0.03407900035381317
1779997447008228400,4.700228271484375,0.3688899874687195,-0.0077840001322329044,-0.03301599994301796
1779997447025504800,4.7175048828125,0.1276489943265915,-0.00304200011305511,-0.009732999838888645
1779997447042781000,4.734781005859375,-0.19766800105571747,0.004279999993741512,0.020609000697731972
1779997447060057300,4.752057373046875,-0.39772701263427734,0.006645000074058771,0.03469400107860565
1779997447077333800,4.769333740234375,-0.38255101442337036,0.008016999810934067,0.02665800042450428
1779997447094610000,4.78660986328125,-0.12327200174331665,0.0017359999474138021,0.009633000008761883
1779997447111886600,4.803886474609375,0.19723999500274658,-0.004579999949783087,-0.011943000368773937
1779997447129162800,4.821162841796875,0.3950690031051636,-0.008483000099658966,-0.03075600042939186
1779997447146439200,4.838439208984375,0.36869800090789795,-0.00698600010946393,-0.03273899853229523
1779997447163715600,4.855715576171875,0.13324299454689026,-0.0027089999057352543,-0.010870999656617641
1779997447180992000,4.872991943359375,-0.18427400290966034,0.0022849999368190765,0.01736699976027012
1779997447198268400,4.890268310546875,-0.38787901401519775,0.005942000076174736,0.029198000207543373
1779997447215544600,4.907544677734375,-0.3774079978466034,0.007298999931663275,0.023868000134825706
1779997447232821000,4.924821044921875,-0.12848000228405,0.000881000014487654,0.011842000298202038
1779997447250097700,4.94209765625,0.18404099345207214,-0.0041959998197853565,-0.008601999841630459
1779997447267373800,4.959373779296875,0.3816570043563843,-0.0065899998880922794,-0.02926900051534176
1779997447284650200,4.976650146484375,0.359809011220932,-0.007319000083953142,-0.0311489999294281
1779997447301926700,4.9939267578125,0.134675994515419,-0.003266999963670969,-0.009903999976813793
1779997447319203000,5.011203125,-0.17341500520706177,0.002068999921903014,0.017218999564647675
1779997447336479500,5.0284794921875,-0.37804698944091797,0.004513999912887812,0.03182300180196762
1779997447353756000,5.045755859375,-0.3722510039806366,0.008210999891161919,0.0279339998960495
1779997447371032000,5.063031982421875,-0.1358499974012375,0.003748999908566475,0.015107999555766582
1779997447388308700,5.080308837890625,0.1715400069952011,-0.00022899999748915434,-0.004406000021845102
1779997447405585200,5.097585205078125,0.3690739870071411,-0.0041149999015033245,-0.02419699914753437
1779997447422861300,5.114861328125,0.3539769947528839,-0.00661499984562397,-0.029052000492811203
1779997447440138000,5.132137939453125,0.13824200630187988,-0.0002519999979995191,-0.01134399976581335
1779997447457414100,5.1494140625,-0.1613679975271225,0.002862999914214015,0.016297999769449234
1779997447474690600,5.166690673828125,-0.36375001072883606,0.003708000062033534,0.030619999393820763
1779997447491967200,5.18396728515625,-0.36301299929618835,0.007745999842882156,0.02532700076699257
1779997447509243400,5.201243408203125,-0.13637100160121918,0.0022640000097453594,0.012354999780654907
1779997447526519800,5.218519775390625,0.1633719950914383,-0.005032999906688929,-0.005938999820500612
1779997447543796200,5.235796142578125,0.3591499924659729,-0.006105000153183937,-0.027679000049829483
1779997447561072600,5.25307275390625,0.35003799200057983,-0.005667999852448702,-0.031982000917196274
1779997447578349000,5.27034912109375,0.14308500289916992,-0.002248999895527959,-0.010425000451505184
1779997447595625500,5.28762548828125,-0.148390993475914,0.004825999960303307,0.016184000298380852
1779997447612901600,5.304901611328125,-0.3526630103588104,0.0066109998151659966,0.02906700037419796
1779997447630178300,5.32217822265625,-0.35787099599838257,0.007511000148952007,0.02546899951994419
1779997447647454500,5.339454345703125,-0.14300699532032013,0.002445999998599291,0.011501000262796879
1779997447664731000,5.35673095703125,0.15091800689697266,-0.002824000082910061,-0.00839999970048666
1779997447682007600,5.374007568359375,0.34925198554992676,-0.0026110000908374786,-0.025973999872803688
1779997447699283700,5.39128369140625,0.3462679982185364,-0.004873999860137701,-0.026412000879645348
1779997447716560100,5.40856005859375,0.14649300277233124,-0.0025450000539422035,-0.008760999888181686
1779997447733836800,5.4258369140625,-0.1409129947423935,0.00395999988541007,0.014301000162959099
1779997447751113000,5.443113037109375,-0.3453400135040283,0.005648000165820122,0.028793999925255775
1779997447768389600,5.4603896484375,-0.3537690043449402,0.007098999805748463,0.02663400024175644
1779997447785666000,5.477666015625,-0.14557799696922302,0.006113000214099884,0.012949000112712383
1779997447802942200,5.494942138671875,0.14333899319171906,0.0002880000101868063,-0.0033259999472647905
1779997447820219000,5.512218994140625,0.3394109904766083,-0.00535399978980422,-0.02094000019133091
1779997447837495300,5.529495361328125,0.3391540050506592,-0.006004000082612038,-0.028269000351428986
1779997447854771500,5.546771484375,0.14601099491119385,-0.0017369999550282955,-0.011788000352680683
1779997447872047900,5.5640478515625,-0.13279999792575836,0.0022060000337660313,0.015464999713003635
1779997447889324500,5.581324462890625,-0.3341729938983917,0.005392999853938818,0.02824999950826168
1779997447906600700,5.5986005859375,-0.3475170135498047,0.006016999948769808,0.023081999272108078
1779997447923877000,5.615877197265625,-0.14624500274658203,0.0017190000507980585,0.01054800022393465
1779997447941153500,5.633153564453125,0.13581499457359314,-0.003722999943420291,-0.006419000215828419
1779997447958430000,5.650429931640625,0.3317889869213104,-0.0057390001602470875,-0.02456600032746792
1779997447975706600,5.66770654296875,0.33639299869537354,-0.006149000022560358,-0.028674999251961708
1779997447992982800,5.684982666015625,0.14883899688720703,-0.0023399998899549246,-0.011397000402212143
1779997448010259200,5.70225927734375,-0.1255279928445816,0.0027260000351816416,0.013621999882161617
1779997448027536000,5.719535888671875,-0.32866400480270386,0.004259000066667795,0.027160000056028366
1779997448044812000,5.73681201171875,-0.3458789885044098,0.00535399978980422,0.02330400049686432
1779997448062088400,5.75408837890625,-0.15185999870300293,0.0013340000296011567,0.010230000130832195
1779997448079365000,5.771365234375,0.12866100668907166,-0.0036510000936686993,-0.008715000003576279
1779997448096641300,5.788641357421875,0.3267650008201599,-0.005859000142663717,-0.028154000639915466
1779997448113918000,5.80591796875,0.3386780023574829,-0.00865000020712614,-0.03337100148200989
1779997448131194400,5.8231943359375,0.1602420061826706,-0.005791000090539455,-0.018014000728726387
1779997448148470800,5.840470703125,-0.11003600060939789,0.00044100001105107367,0.006209999788552523
1779997448165747200,5.857747314453125,-0.3124440014362335,0.003880999982357025,0.02134300023317337
1779997448183023600,5.875023681640625,-0.33680200576782227,0.004333999939262867,0.020563999190926552
1779997448200299800,5.8922998046875,-0.15299199521541595,0.0008210000232793391,0.009216999635100365
1779997448217576400,5.909576416015625,0.11898999661207199,-0.0037239999510347843,-0.006837000139057636
1779997448234852900,5.926852783203125,0.3144739866256714,-0.005049999803304672,-0.02102999947965145
1779997448252129300,5.94412939453125,0.3291400074958801,-0.005758999846875668,-0.02370700053870678
1779997448269405700,5.96140576171875,0.15426799654960632,-0.002128999913111329,-0.00903400033712387
1779997448286682000,5.97868212890625,-0.11096300184726715,0.004776000045239925,0.01462399959564209
1779997448303958500,5.99595849609375,-0.3133060038089752,0.006335999816656113,0.030378999188542366
1779997448321235000,6.01323486328125,-0.3398919999599457,0.006773000117391348,0.027507999911904335
1779997448338511400,6.030511474609375,-0.16191400587558746,0.004437000025063753,0.013226999901235104
1779997448355787800,6.047787841796875,0.10818800330162048,-0.0026730000972747803,-0.0023690001107752323
1779997448373064200,6.065064208984375,0.30517399311065674,-0.005934999790042639,-0.020072000101208687
1779997448390340600,6.082340576171875,0.32464399933815,-0.00571200018748641,-0.0273049995303154
1779997448407617000,6.099616943359375,0.15821699798107147,-0.0041149999015033245,-0.011680999770760536
1779997448424893700,6.116893798828125,-0.10132700204849243,0.0015510000521317124,0.01202400028705597
1779997448442170000,6.134170166015625,-0.3028390109539032,0.006812000181525946,0.02597000077366829
1779997448459446500,6.151446533203125,-0.33365100622177124,0.00790799967944622,0.02572000026702881
1779997448476723000,6.168722900390625,-0.1632930040359497,0.0032099999953061342,0.01363999955356121
1779997448502637300,6.19463720703125,0.21467000246047974,-0.004040000028908253,-0.01666099950671196
1779997448519914000,6.2119140625,0.33627501130104065,-0.006771000102162361,-0.029001999646425247
1779997448537190400,6.2291904296875,0.2661629915237427,-0.006260999944061041,-0.025249000638723373
1779997448554466800,6.246466796875,0.044534001499414444,-0.002386000007390976,-0.006792000029236078
1779997448571743200,6.2637431640625,-0.20027300715446472,0.0020840000361204147,0.013110999949276447
1779997448589019600,6.28101953125,-0.32907798886299133,0.0038350000977516174,0.022863000631332397
1779997448606296000,6.298296142578125,-0.2650020122528076,0.0037559999618679285,0.01892000064253807
1779997448623572500,6.315572509765625,-0.037383999675512314,0.00033599999733269215,0.004412999842315912
1779997448640849000,6.332848876953125,0.20246100425720215,-0.003396000014618039,-0.012029999867081642
1779997448658125300,6.350125244140625,0.32290899753570557,-0.004585000220686197,-0.024021999910473824
1779997448675402000,6.367402099609375,0.25732800364494324,-0.003942999988794327,-0.02115499973297119
1779997448692678400,6.384678466796875,0.04428999871015549,-0.0016299999551847577,-0.0019759999122470617
1779997448709954800,6.401954833984375,-0.19506700336933136,0.0003600000054575503,0.01709900051355362
1779997448727231200,6.419231201171875,-0.32259100675582886,0.004619999788701534,0.024483999237418175
1779997448744508000,6.4365078125,-0.2635830044746399,0.004207999911159277,0.01977900043129921
1779997448761784300,6.453784423828125,-0.04181100055575371,0.0005610000225715339,0.007400000002235174
1779997448779060700,6.471060791015625,0.1927489936351776,-0.0024349999148398638,-0.010002999566495419
1779997448796337200,6.488337158203125,0.3141529858112335,-0.005348000209778547,-0.022864999249577522
1779997448813613300,6.50561328125,0.2539820075035095,-0.003959000110626221,-0.01885800063610077
1779997448830890000,6.522889892578125,0.04752499982714653,-0.0009640000062063336,-0.00002099999983329326
1779997448848166400,6.54016650390625,-0.18633699417114258,0.00457700015977025,0.017596999183297157
1779997448865442800,6.55744287109375,-0.31540998816490173,0.007536000106483698,0.023934999480843544
1779997448882719200,6.57471923828125,-0.25929200649261475,0.007120000198483467,0.02016800083220005
1779997448899995600,6.59199560546875,-0.046135999262332916,0.0021959999576210976,0.007278999779373407
1779997448917272000,6.60927197265625,0.18633100390434265,-0.0023590000346302986,-0.010745000094175339
1779997448934548700,6.626548828125,0.3079279959201813,-0.004610999953001738,-0.02355699986219406
1779997448951825200,6.6438251953125,0.2513760030269623,-0.003664999967440963,-0.020563999190926552
1779997448969101300,6.661101318359375,0.051649000495672226,0.0004990000161342323,-0.0028230000752955675
1779997448986378000,6.6783779296875,-0.18021200597286224,0.0034970000851899385,0.014999999664723873
1779997449003654400,6.695654296875,-0.3070859909057617,0.005646000150591135,0.022260000929236412
1779997449020930800,6.712930908203125,-0.25711700320243835,0.0050039999186992645,0.016875000670552254
1779997449038207200,6.730207275390625,-0.04802300035953522,0.0012240000069141388,0.003398000029847026
1779997449055484000,6.74748388671875,0.18102699518203735,-0.0026740001048892736,-0.012462999671697617
1779997449072760000,6.764760009765625,0.30404800176620483,-0.005144000053405762,-0.02492400072515011
1779997449090036700,6.78203662109375,0.2530040144920349,-0.0035860000643879175,-0.023187000304460526
1779997449107313200,6.799313232421875,0.05759099870920181,-0.0017839999636635184,-0.0042849997989833355
1779997449124589600,6.816589599609375,-0.16982300579547882,0.0009120000177063048,0.01534000039100647
1779997449141866000,6.833865966796875,-0.3008979856967926,0.0040420000441372395,0.021508000791072845
1779997449159142700,6.851142578125,-0.25522398948669434,0.004259000066667795,0.017388999462127686
1779997449176419000,6.868419189453125,-0.05371500179171562,0.00012199999764561653,0.006508999969810247
1779997449193695500,6.885695556640625,0.17167800664901733,-0.004476999863982201,-0.00956599973142147
1779997449210972200,6.90297216796875,0.29600998759269714,-0.006463999859988689,-0.02248300053179264
1779997449228248300,6.920248291015625,0.24900700151920319,-0.004660000093281269,-0.019979000091552734
1779997449245524700,6.937524658203125,0.06086599826812744,-0.0017320000333711505,-0.002461999887600541
1779997449262801400,6.954801513671875,-0.1634649932384491,0.00254100002348423,0.014592999592423439
1779997449280077800,6.972077880859375,-0.29366299510002136,0.004459000192582607,0.02132299914956093
1779997449297354200,6.989354248046875,-0.2521890103816986,0.004282999783754349,0.01779399998486042
1779997449314630700,7.006630615234375,-0.057374000549316406,0.0008520000264979899,0.006424000021070242
1779997449331907000,7.023906982421875,0.16439899802207947,-0.0029120000544935465,-0.010130999609827995
1779997449349183700,7.041183837890625,0.28731799125671387,-0.005565000232309103,-0.0225249994546175
1779997449366460200,7.058460205078125,0.24542200565338135,-0.004683999810367823,-0.020670000463724136
1779997449383736300,7.075736328125,0.06265400350093842,-0.0009180000051856041,-0.00467800023034215
1779997449401013000,7.093012939453125,-0.15664200484752655,0.002271000063046813,0.013570999726653099
1779997449418289700,7.11028955078125,-0.28577500581741333,0.00443900004029274,0.020235000178217888
1779997449435566000,7.127566162109375,-0.24840299785137177,0.004308999981731176,0.01635799929499626
1779997449452842500,7.144842529296875,-0.05807900056242943,0.0017239999724552035,0.005632000043988228
1779997449470119000,7.162118896484375,0.15913499891757965,-0.0019970000721514225,-0.009463000111281872
1779997449487395300,7.179395263671875,0.2825849950313568,-0.005131999962031841,-0.021869000047445297
1779997449504671700,7.196671630859375,0.24310800433158875,-0.004561000037938356,-0.021028000861406326
1779997449521948400,7.213948486328125,0.0649000033736229,-0.001386999967508018,-0.004639000166207552
1779997449539224800,7.231224853515625,-0.15068799257278442,0.0027360001113265753,0.01459100004285574
1779997449556501200,7.248501220703125,-0.28086599707603455,0.005222000181674957,0.023070000112056732
1779997449573777700,7.265777587890625,-0.24739399552345276,0.0052559999749064445,0.018223000690340996
1779997449591054300,7.283054443359375,-0.06381499767303467,0.0015770000172778964,0.0064690001308918
1779997449616968700,7.30896875,0.231222003698349,-0.003515999997034669,-0.015185000374913216
1779997449634245400,7.326245361328125,0.27855101227760315,-0.004482999909669161,-0.021573999896645546
1779997449651521800,7.343521728515625,0.16646699607372284,-0.0025369999930262566,-0.013257999904453754
1779997449668798200,7.360798095703125,-0.04147600010037422,0.0005699999746866524,0.004887999966740608
1779997449686075000,7.378074951171875,-0.22467799484729767,0.004397999960929155,0.017945000901818275
1779997449703351300,7.395351318359375,-0.28115299344062805,0.005289999768137932,0.02041799947619438
1779997449720627700,7.412627685546875,-0.16907599568367004,0.003003000048920512,0.012799999676644802
1779997449737904000,7.429904052734375,0.043060000985860825,0.00008399999933317304,-0.00021800000104121864
1779997449755180800,7.447180908203125,0.22390499711036682,-0.0028170000296086073,-0.014291999861598015
1779997449772457000,7.46445703125,0.27394500374794006,-0.003882999997586012,-0.020938999950885773
1779997449789733600,7.481733642578125,0.1667339950799942,-0.0016680000117048621,-0.013031000271439552
1779997449807010300,7.49901025390625,-0.036455001682043076,0.0007309999782592058,0.003975000232458115
1779997449824286700,7.51628662109375,-0.21720199286937714,0.0034290000330656767,0.0165570005774498
1779997449841563100,7.533563232421875,-0.27534499764442444,0.005053000058978796,0.019274000078439713
1779997449858839600,7.550839599609375,-0.16796299815177917,0.0029529999010264874,0.01321600005030632
1779997449876116200,7.5681162109375,0.038474999368190765,-0.0006750000175088644,0.0008520000264979899
1779997449893392400,7.585392333984375,0.21739700436592102,-0.0031880000606179237,-0.013377999886870384
1779997449910669000,7.6026689453125,0.26812100410461426,-0.003877999959513545,-0.019971000030636787
1779997449927945500,7.619945556640625,0.16491100192070007,-0.002506999997422099,-0.011785999871790409
1779997449945222000,7.637221923828125,-0.03297699987888336,0.000666000007186085,0.005115999840199947
1779997449962498300,7.654498291015625,-0.21163100004196167,0.004089000169187784,0.01705699972808361
1779997449979775000,7.67177490234375,-0.27012398838996887,0.005028999876230955,0.019825000315904617
1779997449997051100,7.689051025390625,-0.16701999306678772,0.002681999932974577,0.012496000155806541
1779997450014327800,7.706327880859375,0.03485599905252457,-0.00043899999582208693,-0.001025000005029142
1779997450031604200,7.723604248046875,0.21160900592803955,-0.004007999785244465,-0.01512799970805645
1779997450048881000,7.740880859375,0.2643660008907318,-0.005065999925136566,-0.021818000823259354
1779997450066157300,7.7581572265625,0.16601499915122986,-0.003930999897420406,-0.014728999696671963
1779997450083433700,7.775433837890625,-0.02747100032866001,-0.0006270000012591481,0.002633000025525689
1779997450100710100,7.792710205078125,-0.2047010064125061,0.0028909998945891857,0.01611899957060814
1779997450117986600,7.809986572265625,-0.26492300629615784,0.003903999924659729,0.01876400038599968
1779997450135263200,7.82726318359375,-0.1670359969139099,0.0030350000597536564,0.011001000180840492
1779997450152539400,7.844539306640625,0.03004699945449829,-0.000826000003144145,-0.0014449999434873462
1779997450169816000,7.861816162109375,0.2053540050983429,-0.004230000078678131,-0.013775999657809734
1779997450187092500,7.879092529296875,0.25943100452423096,-0.003957999870181084,-0.020225999876856804
1779997450204369000,7.896368896484375,0.16445200145244598,-0.0029670000076293945,-0.012676999904215336
1779997450221645600,7.9136455078125,-0.025484999641776085,-0.00017600000137463212,0.0039969999343156815
1779997450238922000,7.930921875,-0.20027799904346466,0.0031159999780356884,0.016519999131560326
1779997450256198400,7.948198486328125,-0.2617329955101013,0.00455900002270937,0.018919000402092934
1779997450273474800,7.965474853515625,-0.16720299422740936,0.0032240001019090414,0.01254200004041195
1779997450290751500,7.98275146484375,0.02628999948501587,-0.00018200000340584666,0.0009180000051856041
1779997450308028000,8.00002783203125,0.19918400049209595,-0.0032689999788999557,-0.012888000346720219
1779997450325304300,8.01730419921875,0.2557010054588318,-0.0040699997916817665,-0.019811000674962997
1779997450342580700,8.034580810546874,0.16508999466896057,-0.002885000081732869,-0.013571999967098236
1779997450359857400,8.051857421875,-0.019231999292969704,0.00005400000009103678,0.002377999946475029
1779997450377133800,8.0691337890625,-0.19263599812984467,0.002369999885559082,0.015432000160217285
1779997450394410200,8.08641015625,-0.25583401322364807,0.003456000005826354,0.017992999404668808
1779997450411687000,8.10368701171875,-0.16658000648021698,0.0029899999499320984,0.01145199965685606
1779997450428963600,8.120963623046874,0.021942999213933945,-0.0012120000319555402,0.00011800000356743112
1779997450446239700,8.13823974609375,0.19400200247764587,-0.004145000129938126,-0.012787999585270882
1779997450463516200,8.15551611328125,0.25120800733566284,-0.004095000214874744,-0.01908300071954727
1779997450480792600,8.17279248046875,0.1647299975156784,-0.002836999949067831,-0.012020999565720558
1779997450498069200,8.1900693359375,-0.017038999125361443,0.0005319999763742089,0.003599999938160181
1779997450515345700,8.207345703125,-0.18866899609565735,0.0037090000696480274,0.01627800054848194
1779997450532622000,8.2246220703125,-0.25311800837516785,0.004505000077188015,0.01908399909734726
1779997450549898500,8.2418984375,-0.1678290069103241,0.0033939999993890524,0.012787999585270882
1779997450567175200,8.259175048828125,0.017173999920487404,0.00013000000035390258,0.0009480000007897615
1779997450584451800,8.276451904296875,0.18668900430202484,-0.002303000073879957,-0.01278000045567751
1779997450601728000,8.29372802734375,0.24698799848556519,-0.0035920001100748777,-0.01954999938607216
1779997450619004400,8.31100439453125,0.16529600322246552,-0.003154000034555793,-0.01396699994802475
1779997450636281000,8.328281005859376,-0.010689999908208847,0.0004440000047907233,-0.00003099999958067201
1779997450653557500,8.3455576171875,-0.17998600006103516,0.002810999983921647,0.0133670000359416
1779997450670834000,8.362833984375,-0.24572299420833588,0.003355999942868948,0.01760300062596798
1779997450688110600,8.380110595703124,-0.16513800621032715,0.0033730000723153353,0.011137999594211578
1779997450705387000,8.397386962890625,0.01368900015950203,-0.00032900000223889947,-0.0006050000083632767
1779997450722663400,8.414663330078126,0.18148399889469147,-0.003911999985575676,-0.013505999930202961
1779997450739940000,8.431940185546875,0.24264900386333466,-0.004608999937772751,-0.020269999280571938
1779997450757216500,8.449216552734375,0.1649799942970276,-0.0028729999903589487,-0.013917000032961369
1779997450774493000,8.466492919921874,-0.007253999821841717,-0.0005750000127591193,0.0011869999580085278
1779997450791769300,8.483769287109375,-0.1747490018606186,0.002937000012025237,0.013751000165939331
1779997450809046000,8.5010458984375,-0.24215500056743622,0.004048999864608049,0.01722400076687336
1779997450826322400,8.518322509765625,-0.16549299657344818,0.0027699999045580626,0.01255400013178587
1779997450843598800,8.535598876953125,0.00903099961578846,-0.0009190000128000975,0.0012710000155493617
1779997450860875500,8.55287548828125,0.1743289977312088,-0.00279600010253489,-0.011181999929249287
1779997450878152000,8.57015185546875,0.2362309992313385,-0.0040480000898242,-0.016728000715374947
1779997450895428400,8.587428466796876,0.16155000030994415,-0.0028460000175982714,-0.010719000361859798
1779997450912704800,8.604704833984375,-0.006527999881654978,0.0010110000148415565,0.002595999976620078
1779997450929981400,8.6219814453125,-0.17129899561405182,0.0034549999982118607,0.014653000049293041
1779997450947257900,8.6392578125,-0.23836299777030945,0.004112000111490488,0.01861800067126751
1779997450964534300,8.6565341796875,-0.16555799543857574,0.004137999843806028,0.013280999846756458
1779997450981811000,8.67381103515625,0.005342999938875437,0.0009629999985918403,0.002500999951735139
1779997450999087400,8.69108740234375,0.16885599493980408,-0.002216000109910965,-0.009500999934971333
1779997451016363800,8.70836376953125,0.23224300146102905,-0.003957999870181084,-0.016685999929904938
1779997451033640200,8.72564013671875,0.1620739996433258,-0.002265000017359853,-0.01205699983984232
1779997451050916600,8.74291650390625,-0.0018159999744966626,0.00006800000119255856,0.0013050000416114926
1779997451076831500,8.76883154296875,-0.21364399790763855,0.003616000059992075,0.015286000445485115
1779997451094108000,8.78610791015625,-0.21546299755573273,0.003232999937608838,0.01418600045144558
1779997451111384300,8.80338427734375,-0.08480600267648697,0.0011119999689981341,0.006029000040143728
1779997451128661000,8.820660888671876,0.09172400087118149,-0.0019420000026002526,-0.007091000210493803
1779997451145937200,8.837937255859375,0.2138659954071045,-0.003845999948680401,-0.018397999927401543
1779997451171852000,8.86385205078125,0.16353699564933777,-0.00443999981507659,-0.015193000435829163
1779997451189128400,8.88112841796875,0.004110000096261501,-0.0014250000240281224,-0.0016580000519752502
1779997451206405000,8.898405029296875,-0.1577640026807785,0.0017800000496208668,0.010793999768793583
1779997451223681500,8.915681640625,-0.2272000014781952,0.0027979998849332333,0.015765000134706497
1779997451240958000,8.9329580078125,-0.16283999383449554,0.0031049998942762613,0.010956999845802784
1779997451258234600,8.950234619140625,-0.0016749999485909939,0.0003659999929368496,0.0010529999854043126
1779997451275510800,8.9675107421875,0.15781599283218384,-0.0027379998937249184,-0.009841999970376492
1779997451292787500,8.984787353515625,0.22328999638557434,-0.0035389999393373728,-0.01650799997150898
1779997451310064000,9.002064208984375,0.16022300720214844,-0.002520000096410513,-0.01180300023406744
1779997451327340500,9.019340576171874,0.004145000129938126,-0.0002730000123847276,0.002322999993339181
1779997451344617000,9.036616943359375,-0.15451200306415558,0.002939000027254224,0.015243999660015106
1779997451361893400,9.053893310546876,-0.22588400542736053,0.004509999882429838,0.01875399984419346
1779997451379169800,9.071169677734375,-0.1646140068769455,0.003639000002294779,0.013264999724924564
1779997451396446200,9.0884462890625,-0.006049999967217445,0.0008099999977275729,0.002529999939724803
1779997451413723000,9.105722900390624,0.15231099724769592,-0.0021860001143068075,-0.009380999952554703
1779997451430999600,9.12299951171875,0.22070999443531036,-0.0037090000696480274,-0.016316000372171402
1779997451448276000,9.14027587890625,0.1605370044708252,-0.002309999894350767,-0.01253500021994114
1779997451465552400,9.157552490234375,0.008608999662101269,0.0010219999821856618,-0.001028000027872622
1779997451482828800,9.174828857421875,-0.14897599816322327,0.0030410001054406166,0.010724999941885471
1779997451500105500,9.19210546875,-0.220210000872612,0.0028899998869746923,0.014903999865055084
1779997451517382000,9.2093818359375,-0.1608549952507019,0.002346999943256378,0.009704000316560268
1779997451534658300,9.226658203125,-0.006581000052392483,-0.0003220000071451068,0.0007479999912902713
1779997451551934700,9.243934814453125,0.14904800057411194,-0.0028989999555051327,-0.009296000003814697
1779997451569211400,9.26121142578125,0.2161339968442917,-0.003616000059992075,-0.0156230004504323
1779997451586487800,9.27848779296875,0.15865600109100342,-0.002059000078588724,-0.012028000317513943
1779997451603764200,9.29576416015625,0.009638000279664993,0.0002770000137388706,-0.000039999998989515007
1779997451621040600,9.31304052734375,-0.14473000168800354,0.002435999922454357,0.011803999543190002
1779997451638317000,9.330317138671875,-0.2156040072441101,0.00380500010214746,0.01642400026321411
1779997451655593700,9.34759375,-0.16034600138664246,0.0022440000902861357,0.012335999868810177
1779997451672870100,9.3648701171875,-0.009878000244498253,0.00026199998683296144,0.00184599997010082
1779997451690146600,9.382146484375,0.14277799427509308,-0.0018860000418499112,-0.009844000451266766
1779997451707423200,9.39942333984375,0.212349995970726,-0.00406600022688508,-0.016944000497460365
1779997451724699400,9.416699462890625,0.15955300629138947,-0.004108000081032515,-0.012885999865829945
1779997451741976000,9.43397607421875,0.015766000375151634,-0.0012120000319555402,-0.001724999980069697
1779997451759252700,9.451252685546875,-0.1369680017232895,0.0019160000374540687,0.01016400009393692
1779997451776529200,9.468529052734375,-0.210317000746727,0.0037529999390244484,0.015362000092864037
1779997451793805600,9.4858056640625,-0.15949000418186188,0.003754999954253435,0.010545999743044376
1779997451811082000,9.50308203125,-0.013911999762058258,0.0008459999808110297,0.0009420000133104622
1779997451828358400,9.5203583984375,0.13728800415992737,-0.001998000079765916,-0.009503999724984169
1779997451845635000,9.537635009765625,0.2071390002965927,-0.003920000046491623,-0.015946999192237854
1779997451862911500,9.554911376953125,0.1577489972114563,-0.0030189999379217625,-0.012796999886631966
1779997451880188000,9.57218798828125,0.017211999744176865,0.00012199999764561653,-0.0008520000264979899
1779997451897464300,9.58946435546875,-0.1330530047416687,0.002171000000089407,0.011118999682366848
1779997451914741000,9.606740966796876,-0.20645800232887268,0.004234999883919954,0.015564000234007835
1779997451932017400,9.624017333984375,-0.15876899659633636,0.0030930000357329845,0.012436999939382076
1779997451949293800,9.6412939453125,-0.016642000526189804,0.0010730000212788582,0.003198999911546707
1779997451966570500,9.658570556640624,0.1316860020160675,-0.0006910000229254365,-0.007701999973505735
1779997451983847000,9.675846923828125,0.2019830048084259,-0.0023819999769330025,-0.013697000220417976
1779997452001123600,9.69312353515625,0.15452300012111664,-0.002136999974027276,-0.010003999806940556
1779997452018399700,9.710399658203125,0.01803399994969368,0.0003800000122282654,0.0011780000058934093
1779997452035676400,9.727676513671875,-0.13076899945735931,0.002604000037536025,0.01222699973732233
1779997452052952800,9.744952880859374,-0.20431900024414062,0.0034280000254511833,0.015776000916957855
1779997452070229200,9.762229248046875,-0.15794600546360016,0.0026400000788271427,0.010900000110268593
1779997452087506000,9.779505859375,-0.017812000587582588,-0.00018600000475998968,0.001462999964132905
1779997452104782300,9.7967822265625,0.13008199632167816,-0.0023139999248087406,-0.009158000349998474
1779997452122058500,9.81405859375,0.20089399814605713,-0.003459000028669834,-0.015585999935865402
1779997452139335200,9.831335205078124,0.15606200695037842,-0.0032730000093579292,-0.012934999540448189
1779997452156611800,9.84861181640625,0.02133999951183796,-0.0010219999821856618,-0.0015780000248923898
1779997452173888000,9.865887939453126,-0.12629100680351257,0.0013229999458417296,0.009850000031292439
1779997452191164700,9.88316455078125,-0.20073799788951874,0.0034630000591278076,0.013845999725162983
1779997452217079600,9.90907958984375,-0.09674499928951263,0.0007489999989047647,0.006889999844133854
1779997452234356000,9.92635595703125,0.056756000965833664,-0.001791000016964972,-0.0037700000684708357
1779997452251632400,9.94363232421875,0.17527900636196136,-0.0035459999926388264,-0.013400999829173088
1779997452268908800,9.96090869140625,0.19152000546455383,-0.003622000105679035,-0.01569800078868866
1779997452286185500,9.978185546875,0.09845200181007385,-0.0029559999238699675,-0.008182999677956104
1779997452303461600,9.995461669921875,-0.050585001707077026,-0.00011800000356743112,0.00343999988399446
1779997452320738300,10.01273828125,-0.1705629974603653,0.0019660000689327717,0.012257999740540981
1779997452338014700,10.0300146484375,-0.1915780007839203,0.0028019999153912067,0.013574999757111073
1779997452355291100,10.047291015625,-0.09827300161123276,0.002087000058963895,0.00709300022572279
1779997452372567800,10.06456787109375,0.05142800137400627,-0.0005009999731555581,-0.003103999886661768
1779997452389844200,10.08184423828125,0.1703370064496994,-0.0022350000217556953,-0.011927999556064606
1779997452407120600,10.09912060546875,0.18854999542236328,-0.0028470000252127647,-0.014666000381112099
1779997452424397300,10.116397216796875,0.0991159975528717,-0.000838999985717237,-0.007612000219523907
1779997452441673700,10.133673828125,-0.048030998557806015,0.0011599999852478504,0.005286000203341246
1779997452458950100,10.1509501953125,-0.16706499457359314,0.002822000067681074,0.014613999985158443
1779997452476226800,10.168226806640625,-0.1909089982509613,0.003898999886587262,0.015363999642431736
1779997452493503200,10.185503173828126,-0.10122600197792053,0.0026360000483691692,0.008747999556362629
1779997452510779600,10.202779541015625,0.04627100005745888,0.000052999999752501026,-0.001943000010214746
1779997452528056000,10.22005615234375,0.1644580066204071,-0.0022499999031424522,-0.011873999610543251
1779997452545332700,10.237332763671875,0.18587100505828857,-0.0028180000372231007,-0.015104000456631184
1779997452562609200,10.254609130859375,0.10096199810504913,-0.0017140000127255917,-0.008224000222980976
1779997452579885600,10.271885498046874,-0.04226600006222725,0.0012890000361949205,0.003976000007241964
1779997452597162200,10.289162353515625,-0.16070899367332458,0.002662000013515353,0.012179999612271786
1779997452614438700,10.306438720703126,-0.18662400543689728,0.0026990000624209642,0.012376000173389912
1779997452631715000,10.323715087890625,-0.10074199736118317,0.001408000010997057,0.006581000052392483
1779997452648991500,10.340991455078125,0.043122999370098114,-0.0016380000161007047,-0.0022070000413805246
1779997452666268200,10.35826806640625,0.16045300662517548,-0.0026940000243484974,-0.010409999638795853
1779997452683544600,10.375544677734375,0.18305300176143646,-0.0031530000269412994,-0.013399999588727951
1779997452700821000,10.392821044921876,0.10102199763059616,-0.002004999900236726,-0.007313000038266182
1779997452718097700,10.41009765625,-0.03943200036883354,0.0007580000092275441,0.003869999898597598
1779997452735374000,10.4273740234375,-0.15670199692249298,0.0031389999203383923,0.012240000069141388
1779997452752650500,10.444650390625,-0.18365000188350677,0.0028899998869746923,0.013167999684810638
1779997452769927000,10.461927001953125,-0.10106000304222107,0.0016319999704137444,0.0075079998932778835
1779997452787203600,10.47920361328125,0.039983998984098434,-0.0007409999961964786,-0.001996000064536929
1779997452804479700,10.496479736328125,0.1564909964799881,-0.0025289999321103096,-0.010886999778449535
1779997452821756400,10.51375634765625,0.1804399937391281,-0.0025369999930262566,-0.01397399976849556
1779997452839033000,10.531033203125,0.10199200361967087,-0.0019809999503195286,-0.008125999942421913
1779997452856309500,10.5483095703125,-0.036208998411893845,0.00017299999308306724,0.0030300000216811895
1779997452873586000,10.5655859375,-0.15255500376224518,0.002739999908953905,0.011651000007987022
1779997452890862300,10.5828623046875,-0.18053899705410004,0.0028250000905245543,0.013466999866068363
1779997452908139000,10.600138916015625,-0.10168600082397461,0.0018970000091940165,0.007828000001609325
1779997452925415200,10.617415283203124,0.035638999193906784,-0.0003929999948013574,-0.002391000045463443
1779997452942691800,10.63469189453125,0.15119600296020508,-0.0024969999212771654,-0.01134399976581335
1779997452959968300,10.65196826171875,0.1778690069913864,-0.002696000039577484,-0.013565000146627426
1779997452977244700,10.66924462890625,0.10242699831724167,-0.0014949999749660492,-0.007571000140160322
1779997452994521300,10.686521240234375,-0.032662998884916306,0.000547999981790781,0.0032579998951405287
1779997453011797800,10.7037978515625,-0.14883199334144592,0.0028260000981390476,0.012001000344753265
1779997453029074200,10.72107421875,-0.17924100160598755,0.0029959999956190586,0.013780999928712845
1779997453046350600,10.7383505859375,-0.10427200049161911,0.00164899998344481,0.008577000349760056
1779997453063627300,10.755627197265625,0.030780000612139702,0.00019999999494757503,-0.0010059999767690897
1779997453080903700,10.772903564453125,0.14601899683475494,-0.0021039999555796385,-0.009755999781191349
1779997453098180000,10.79018017578125,0.17426200211048126,-0.002839999971911311,-0.013989999890327454
1779997453115456800,10.807456787109375,0.1029760017991066,-0.0005920000257901847,-0.008697999641299248
1779997453132733200,10.824733154296876,-0.02798599936068058,0.00039900001138448715,0.0033400000538676977
1779997453150009600,10.842009521484375,-0.14341500401496887,0.0017350000562146306,0.011428000405430794
1779997453167286000,10.8592861328125,-0.17582499980926514,0.002718999981880188,0.011282999999821186
1779997453184562700,10.876562744140625,-0.10355599969625473,0.0014329999685287476,0.007323000114411116
1779997453201839000,10.893839111328125,0.028251999989151955,-0.001366000040434301,0.00009200000204145908
1779997453219115500,10.911115478515624,0.1411599963903427,-0.002355000004172325,-0.009703000076115131
1779997453236392000,10.928391845703125,0.17086100578308105,-0.0026680000592023134,-0.013267000205814838
1779997453253668600,10.945668701171876,0.10321299731731415,-0.002001000102609396,-0.00762300007045269
1779997453270945000,10.962945068359375,-0.02497600018978119,0.00027600000612437725,0.0024590000975877047
1779997453288221400,10.980221435546875,-0.13882100582122803,0.0022559999488294125,0.009805000387132168
1779997453305498000,10.997498046875,-0.1719529926776886,0.00228599994443357,0.011048000305891037
1779997453322774500,11.0147744140625,-0.10322300344705582,0.0004799999878741801,0.006176999770104885
1779997453340051000,11.032051025390626,0.025953000411391258,-0.0018100000452250242,-0.002937000012025237
1779997453357327400,11.049327392578125,0.13910099864006042,-0.0032510000746697187,-0.0101500004529953
1779997453374603800,11.066603759765625,0.17063899338245392,-0.003573999973013997,-0.012799999676644802
1779997453391880400,11.08388037109375,0.10379599779844284,-0.0012019999558106065,-0.008574999868869781
1779997453409156900,11.101156982421875,-0.022585000842809677,0.0024709999561309814,0.0021430000197142363
1779997453426433300,11.118433349609376,-0.1362690031528473,0.004019000101834536,0.012397999875247478
1779997453443710000,11.1357099609375,-0.1714800000190735,0.003783999942243099,0.013677000068128109
1779997453460986400,11.152986328125,-0.10540899634361267,0.0027280000504106283,0.007259999867528677
1779997453478262800,11.1702626953125,0.02261199988424778,-0.0005629999795928597,-0.0013379999436438084
1779997453495539200,11.187539306640625,0.1354829967021942,-0.003461000043898821,-0.01003200002014637
1779997453512815900,11.20481591796875,0.16825899481773376,-0.003823000006377697,-0.014651999808847904
1779997453530092300,11.22209228515625,0.10538899898529053,-0.0023060000967234373,-0.010041000321507454
1779997453547368700,11.23936865234375,-0.018017999827861786,0.00014400000509340316,0.0016639999812468886
1779997453564645400,11.256645263671874,-0.13076800107955933,0.0023250000085681677,0.01078999973833561
1779997453581921800,11.273921875,-0.16835500299930573,0.0038240000139921904,0.012915999628603458
1779997453599198200,11.2911982421875,-0.10661099851131439,0.003135999897494912,0.009134000167250633
1779997453616474600,11.308474609375,0.017376000061631203,0.0003480000013951212,0.0009190000128000975
1779997453633751300,11.325751220703125,0.12859700620174408,-0.0029670000076293945,-0.008076000027358532
1779997453651027700,11.34302783203125,0.16436299681663513,-0.00394099997356534,-0.012378999963402748
1779997453668304100,11.36030419921875,0.10498899966478348,-0.0029299999587237835,-0.008445999585092068
1779997453685580500,11.37758056640625,-0.01430600043386221,-0.0015689999563619494,0.0006300000241026282
1779997453702857000,11.39485693359375,-0.12518799304962158,0.000986000057309866,0.007689999882131815
1779997453720133600,11.412133544921875,-0.1629990041255951,0.0022899999748915434,0.009963000193238258
1779997453737410000,11.42941015625,-0.1041020005941391,0.0013889999827370048,0.007319999858736992
1779997453754686500,11.4466865234375,0.016061000525951385,0.00031400000443682075,-0.00009999999747378752
1779997453771963000,11.463962890625,0.12548300623893738,-0.0011249999515712261,-0.0073379999957978725
1779997453789239600,11.481239501953125,0.16058200597763062,-0.0019069999689236283,-0.009762999601662159
1779997453806516000,11.498515869140626,0.1030540019273758,-0.0008629999938420951,-0.005698999855667353
1779997453823792400,11.51579248046875,-0.014359000138938427,0.001475999946705997,0.0034600000362843275
1779997453841069000,11.533069091796875,-0.12406300008296967,0.002578000072389841,0.011314000003039837
1779997453858345200,11.55034521484375,-0.16232800483703613,0.0031679999083280563,0.01281800027936697
1779997453875622000,11.567621826171875,-0.10553599894046783,0.002193999942392111,0.007833000272512436
1779997453892898600,11.584898681640626,0.013226999901235104,0.000446999998530373,-0.0008570000063627958
1779997453910174700,11.6021748046875,0.12249500304460526,-0.0013210000470280647,-0.00913699995726347
1779997453927451400,11.619451416015625,0.16046999394893646,-0.0031300000846385956,-0.012866999953985214
1779997453944727800,11.636727783203124,0.10558599978685379,-0.0016459999606013298,-0.009050999768078327
1779997453962004200,11.654004150390625,-0.01014699973165989,0.00043899999582208693,0.0015059999423101544
1779997453979281000,11.671281005859376,-0.1197580024600029,0.0018889999482780695,0.010676000267267227
1779997453996557300,11.688557373046875,-0.16076000034809113,0.0034169999416917562,0.012498999945819378
1779997454013833700,11.705833740234375,-0.10748100280761719,0.00304200011305511,0.008623999543488026
1779997454031110400,11.7231103515625,0.008434999734163284,0.00019799999427050352,0.0010270000202581286
1779997454048386800,11.74038671875,0.11765500158071518,-0.0017610000213608146,-0.007867000065743923
1779997454074301700,11.7663017578125,0.14210300147533417,-0.002612000098451972,-0.011516000144183636
1779997454091578000,11.783578125,0.05412700027227402,-0.0010710000060498714,-0.004358000122010708
1779997454108854500,11.8008544921875,-0.06555300205945969,0.000691999972332269,0.0048420000821352005
1779997454126131000,11.818130859375,-0.1467449963092804,0.0021019999403506517,0.010386000387370586
1779997454143407400,11.835407470703124,-0.14213299751281738,0.0026340000331401825,0.009670999832451344
1779997454160683800,11.852683837890625,-0.05305999889969826,0.0011749999830499291,0.003994000144302845
1779997454177960400,11.86996044921875,0.06557200103998184,-0.0012000000569969416,-0.0038109999150037766
1779997454195236900,11.88723681640625,0.14510899782180786,-0.0026310000102967024,-0.010645000264048576
1779997454212513300,11.90451318359375,0.14028300344944,-0.0022319999989122152,-0.010870999656617641
1779997454229790000,11.9217900390625,0.05488700047135353,-0.00031800000579096377,-0.003996000159531832
1779997454247066400,11.93906640625,-0.06252600252628326,0.0013520000502467155,0.004499000031501055
1779997454264342800,11.9563427734375,-0.14299499988555908,0.0017719999887049198,0.008876999840140343
1779997454281619200,11.973619140625,-0.1395920068025589,0.0019890000112354755,0.008488999679684639
1779997454298896000,11.990895751953126,-0.0528389997780323,0.0000470000013592653,0.00381199992261827
1779997454316172300,12.00817236328125,0.06318700313568115,-0.0015640000347048044,-0.004718999844044447
1779997454333448700,12.02544873046875,0.14212900400161743,-0.0023539999965578318,-0.011264000087976456
1779997454350725400,12.042725341796874,0.13851399719715118,-0.0028210000600665808,-0.010998999699950218
1779997454368001500,12.06000146484375,0.0553009994328022,-0.0014730000402778387,-0.0035429999697953463
1779997454385278200,12.0772783203125,-0.059672001749277115,0.001276999944821,0.005286999978125095
1779997454402554600,12.0945546875,-0.1404539942741394,0.0027310000732541084,0.010262000374495983
1779997454419831000,12.1118310546875,-0.13978999853134155,0.002015999983996153,0.009770999662578106
1779997454437107700,12.129107666015624,-0.05623399838805199,0.000893999997060746,0.0037769998889416456
1779997454454384000,12.146384033203125,0.058896999806165695,-0.0005750000127591193,-0.004383999854326248
1779997454471660500,12.16366064453125,0.13932999968528748,-0.0026779999025166035,-0.010960999876260757
1779997454488937000,12.18093701171875,0.1381009966135025,-0.003206999972462654,-0.011583000421524048
1779997454506213600,12.198213623046875,0.05803599953651428,-0.0012740000383928418,-0.004567000083625317
1779997454523490000,12.215489990234374,-0.05626299977302551,0.000881000014487654,0.005549999885261059
1779997454540766500,12.232766357421875,-0.13810500502586365,0.002848000032827258,0.011260000057518482
1779997454558043000,12.25004296875,-0.1401360034942627,0.002830999903380871,0.009847999550402164
1779997454575319600,12.267319580078125,-0.05919799953699112,0.0009689999860711396,0.005421999841928482
1779997454592596200,12.28459619140625,0.055006999522447586,-0.0007830000249668956,-0.0021699999924749136
1779997454609872400,12.301872314453124,0.13592499494552612,-0.0018279999494552612,-0.008981999941170216
1779997454627149000,12.319149169921875,0.1374029964208603,-0.001769999973475933,-0.010495999827980995
1779997454644425500,12.336425537109376,0.05928599834442139,-0.0008900000248104334,-0.003845999948680401
1779997454661702000,12.353701904296875,-0.052987001836299896,0.0005910000181756914,0.006190999876707792
1779997454678978300,12.370978271484375,-0.13492299616336823,0.0025730000343173742,0.011886999942362309
1779997454696255000,12.3882548828125,-0.13858699798583984,0.0029990000184625387,0.011231999844312668
1779997454713531400,12.405531494140625,-0.06079600006341934,0.0009500000160187483,0.005541999824345112
1779997454730807800,12.422807861328126,0.05108899995684624,-0.000526999996509403,-0.0026289999950677156
1779997454748084500,12.44008447265625,0.13281400501728058,-0.0022009999956935644,-0.00912300031632185
1779997454765361000,12.45736083984375,0.1365489959716797,-0.002403999911621213,-0.010406999848783016
1779997454782637300,12.47463720703125,0.06216200068593025,-0.0007980000227689743,-0.005319999996572733
1779997454799913700,12.491913818359375,-0.04788000136613846,-0.00042100000428035855,0.002643000101670623
1779997454817190400,12.5091904296875,-0.1292950063943863,0.0012610000558197498,0.008022000081837177
1779997454834466800,12.526466796875,-0.13474200665950775,0.0018789999885484576,0.00812000036239624
1779997454851743200,12.5437431640625,-0.06007099896669388,-0.000097999996796716,0.0031930000986903906
1779997454869020000,12.56102001953125,0.04879499971866608,-0.0008539999835193157,-0.0045540002174675465
1779997454886296300,12.57829638671875,0.12819699943065643,-0.0024480000138282776,-0.00974200014024973
1779997454903572700,12.59557275390625,0.1331070065498352,-0.002893999917432666,-0.009743999689817429
1779997454920849200,12.61284912109375,0.06036600098013878,-0.0011879999656230211,-0.004461999982595444
1779997454938125600,12.63012548828125,-0.04736899957060814,0.0006810000049881637,0.00408599991351366
1779997454955402200,12.64740234375,-0.12858699262142181,0.001993000041693449,0.010641999542713165
1779997454972678700,12.6646787109375,-0.1350799947977066,0.0030360000673681498,0.010855999775230885
1779997454989955000,12.681955078125,-0.06253399699926376,0.001547000021673739,0.005109999794512987
1779997455007231500,12.6992314453125,0.045037999749183655,-0.00006800000119255856,-0.003186000045388937
1779997455024508200,12.716508056640626,0.12558700144290924,-0.0018939999863505363,-0.009901000186800957
1779997455041784600,12.73378466796875,0.13255900144577026,-0.0026289999950677156,-0.0113129997625947
1779997455059061000,12.75106103515625,0.06375499814748764,-0.0009040000149980187,-0.005224000196903944
1779997455076337400,12.76833740234375,-0.0420989990234375,0.0009270000155083835,0.004019999876618385
1779997455093613800,12.78561376953125,-0.12406200170516968,0.0021879998967051506,0.009451000019907951
1779997455110890500,12.802890380859376,-0.13371700048446655,0.0028299998957663774,0.009877000004053116
1779997455128167000,12.8201669921875,-0.06411299854516983,0.0008030000026337802,0.005683000199496746
1779997455154081500,12.84608154296875,0.08951199799776077,-0.0009410000056959689,-0.006260000169277191
1779997455171358200,12.863358154296876,0.13819999992847443,-0.001917000045068562,-0.01018300000578165
1779997455188634600,12.880634521484374,0.10679999738931656,-0.0019160000374540687,-0.007792999967932701
1779997455205911300,12.897911376953125,0.013881999999284744,0.00013899999612476677,-0.0007890000124461949
1779997455223187500,12.9151875,-0.08674100041389465,0.0016969999996945262,0.006641000043600798
1779997455240464100,12.932464111328125,-0.13724400103092194,0.0021699999924749136,0.010312000289559364
1779997455257740500,12.949740478515626,-0.10756699740886688,0.0019249999895691872,0.008654000237584114
1779997455275017000,12.967016845703125,-0.014895999804139137,0.0001340000017080456,0.002322999993339181
1779997455292293400,12.98429345703125,0.0851759985089302,-0.0007939999923110008,-0.004689999856054783
1779997455309570000,13.001570068359374,0.1338679939508438,-0.0019239999819546938,-0.009433000348508358
1779997455326846500,13.018846435546875,0.10497099906206131,-0.0016270000487565994,-0.007325999904423952
1779997455344123000,13.036122802734376,0.014919999986886978,0.000043000000005122274,-0.0004769999941345304
1779997455361399300,13.0533994140625,-0.08362600207328796,0.0014819999923929572,0.006943000014871359
1779997455378676000,13.070676025390625,-0.13426700234413147,0.0027989998925477266,0.009676000103354454
1779997455395952400,13.087952392578124,-0.10645200312137604,0.001879999996162951,0.007277000229805708
1779997455413228800,13.105228759765625,-0.015969999134540558,-0.0003650000144261867,0.0008410000009462237
1779997455430505200,13.122505126953126,0.08271200209856033,-0.0017140000127255917,-0.0067349998280406
1779997455447781600,13.13978173828125,0.13272400200366974,-0.002756000030785799,-0.010985000059008598
1779997455465058000,13.15705810546875,0.10574600100517273,-0.002133999951183796,-0.009595000185072422
1779997455482334700,13.174334716796874,0.01863200031220913,-0.0011869999580085278,-0.0027970001101493835
1779997455499611100,13.191611083984375,-0.07839299738407135,0.000783999974373728,0.005138999782502651
1779997455516887800,13.2088876953125,-0.12994800508022308,0.0024029999040067196,0.009223000146448612
1779997455542802400,13.234802490234374,-0.066600002348423,0.0010160000529140234,0.005026000086218119
1779997455560078800,13.252078857421875,0.03234099969267845,-0.0006380000268109143,-0.0011220000451430678
1779997455577355500,13.26935546875,0.11128400266170502,-0.001927000004798174,-0.006639000028371811
1779997455594632000,13.2866318359375,0.12438900023698807,-0.0020240000449121,-0.00798800028860569
1779997455611908400,13.303908447265625,0.06582500040531158,-0.0006189999985508621,-0.003567999927327037
1779997455629185000,13.32118505859375,-0.03099999949336052,0.0008539999835193157,0.003918000031262636
1779997455646461400,13.33846142578125,-0.109825000166893,0.0021669999696314335,0.008926999755203724
1779997455663737600,13.355737548828126,-0.12475600093603134,0.002612000098451972,0.008980000391602516
1779997455681014300,13.37301416015625,-0.06641799956560135,0.0011230000527575612,0.004050000105053186
1779997455698291000,13.390291015625,0.03125699982047081,-0.000506000011228025,-0.0031250000465661287
1779997455715567400,13.4075673828125,0.11038599908351898,-0.002007999923080206,-0.009158999659121037
1779997455732843800,13.42484375,0.12559999525547028,-0.002139999996870756,-0.010405000299215317
1779997455750120200,13.4421201171875,0.0686430037021637,-0.0008970000199042261,-0.0053449999541044235
1779997455767396600,13.459396728515625,-0.02781599946320057,-0.00006399999983841553,0.002449000021442771
1779997455784673000,13.476673095703125,-0.10751999914646149,0.0008650000090710819,0.008050999604165554
1779997455801949700,13.49394970703125,-0.12515899538993835,0.0019829999655485153,0.009530000388622284
1779997455819226400,13.511226318359375,-0.06938000023365021,0.0011149999918416142,0.005588000174611807
1779997455836502500,13.52850244140625,0.02665499970316887,0.00015199999324977398,-0.002025000052526593
1779997455853779200,13.545779296875,0.10665000230073929,-0.0014590000500902534,-0.00837900023907423
1779997455871055600,13.5630556640625,0.1235010027885437,-0.002068999921903014,-0.009587000124156475
1779997455888332000,13.58033203125,0.06837199628353119,-0.0011070000473409891,-0.0047439998015761375
1779997455905608700,13.597608642578125,-0.02617800049483776,0.00040099999750964344,0.002781999995931983
1779997455922885000,13.614885009765626,-0.1060749962925911,0.0016469999682158232,0.008799999952316284
1779997455940161500,13.63216162109375,-0.12416999787092209,0.001832999987527728,0.01039199996739626
1779997455957438000,13.64943798828125,-0.07001300156116486,0.0014149999478831887,0.006281000096350908
1779997455974714400,13.66671435546875,0.024361999705433846,-0.00029299999005161226,-0.0007270000060088933
1779997455991991000,13.683990966796875,0.10382899641990662,-0.0020630001090466976,-0.0069610001519322395
1779997456009267500,13.701267333984376,0.1215829998254776,-0.0024689999409019947,-0.008946999907493591
1779997456026543900,13.7185439453125,0.06992699950933456,-0.0013500000350177288,-0.004844999872148037
1779997456043820500,13.735820556640626,-0.02302500046789646,0.0004879999905824661,0.0024109999649226665
1779997456061097000,13.753096923828124,-0.10197799652814865,0.0015119999879971147,0.007681999821215868
1779997456078373400,13.770373291015625,-0.1208449974656105,0.0019499999471008778,0.008042999543249607
1779997456095649800,13.78764990234375,-0.06890600174665451,0.0005970000056549907,0.004803000018000603
1779997456112926200,13.80492626953125,0.023375000804662704,-0.0010339999571442604,-0.0013670000480487943
1779997456130203000,13.822202880859376,0.10169100016355515,-0.0020779999904334545,-0.008276999928057194
1779997456147479300,13.839479248046874,0.12106899917125702,-0.002300000051036477,-0.010975999757647514
1779997456164755700,13.856755615234375,0.07083600014448166,-0.0019570000004023314,-0.006666999775916338
1779997456182032100,13.8740322265625,-0.020184999331831932,0.0004440000047907233,0.0010290000354871154
1779997456199308800,13.891308837890625,-0.0989610031247139,0.0013429999817162752,0.0067460001446306705
1779997456216585000,13.9085849609375,-0.11939900368452072,0.002455000067129731,0.008503000251948833
1779997456233861600,13.925861572265624,-0.07035200297832489,0.0018769999733194709,0.005824999883770943
1779997456251138000,13.943137939453125,0.018964000046253204,-0.00020199999562464654,-0.00026599998818710446
1779997456268414500,13.96041455078125,0.09617599844932556,-0.0006520000169984996,-0.007368000224232674
1779997456285691100,13.977691162109375,0.11617399752140045,-0.0015910000074654818,-0.008723000064492226
1779997456302967600,13.994967529296876,0.06936199963092804,-0.001044000033289194,-0.0046629998832941055
1779997456320244200,14.012244140625,-0.018473999574780464,0.0007220000261440873,0.001749000046402216
1779997456337520400,14.029520263671875,-0.0957610011100769,0.0014319999609142542,0.008074999786913395
1779997456354797000,14.046797119140624,-0.11779700219631195,0.0024610001128166914,0.00914900004863739
1779997456372073500,14.064073486328125,-0.07073400169610977,0.0019829999655485153,0.005179000087082386
1779997456389350100,14.08135009765625,0.016881000250577927,0.000018000000636675395,-0.0014319999609142542
1779997456406626600,14.09862646484375,0.0938350036740303,-0.0017869999865069985,-0.007360999938100576
1779997456423903000,14.115903076171875,0.11600299924612045,-0.0020620001014322042,-0.00977800041437149
1779997456441179100,14.13317919921875,0.07166299968957901,-0.0014860000228509307,-0.006461999844759703
1779997456458455800,14.150455810546875,-0.013824000023305416,0.0008730000117793679,0.0007130000158213079
1779997456475732200,14.167732177734376,-0.09150700271129608,0.0010560000082477927,0.0066200001165270805
1779997456493008600,14.185008544921875,-0.11518900096416473,0.0011480000102892518,0.0076950001530349255
1779997456510285300,14.202285400390625,-0.07121899724006653,0.001028000027872622,0.005142000038176775
1779997456527561700,14.219561767578124,0.014476999640464783,-0.0006169999833218753,0.00039400000241585076
1779997456544838100,14.236838134765625,0.0912109985947609,-0.0010590000310912728,-0.0062939999625086784
1779997456562114600,14.254114501953126,0.11400400102138519,-0.0021069999784231186,-0.008953999727964401
1779997456579391000,14.271390869140625,0.07181300222873688,-0.0021009999327361584,-0.005704999901354313
1779997456596667400,14.28866748046875,-0.012463999912142754,-0.0004769999941345304,0.00002300000051036477
1779997456622582300,14.314582275390626,-0.10925599932670593,0.000881000014487654,0.007973000407218933
1779997456639859000,14.33185888671875,-0.10014600306749344,0.0024139999877661467,0.008713999763131142
1779997456657135400,14.34913525390625,-0.03246799856424332,0.0019660000689327717,0.0059090000577270985
1779997456674411800,14.366411865234374,0.05232200026512146,0.0011940000113099813,0.0008590000215917826
1779997456691688400,14.3836884765625,0.10441800206899643,-0.00012799999967683107,-0.003507999936118722
1779997456708964900,14.40096484375,0.09406200051307678,-0.00022200000239536166,-0.0038399999029934406
1779997456726241300,14.4182412109375,0.027811000123620033,0.0008909999742172658,0.00046400001156143844
1779997456743517700,14.435517578125,-0.05493300035595894,0.0024709999561309814,0.005491000134497881
1779997456760794400,14.45279443359375,-0.1070839986205101,0.0027050001081079245,0.007699999958276749
1779997456778070800,14.47007080078125,-0.09595900028944016,0.0018710000440478325,0.005898000206798315
1779997456795347200,14.48734716796875,-0.029291000217199326,0.0002530000056140125,0.0004180000105407089
1779997456812623600,14.50462353515625,0.05572099983692169,-0.0012789999600499868,-0.005448999814689159
1779997456829900000,14.521900146484375,0.108085997402668,-0.0021460000425577164,-0.008426000364124775
1779997456847176700,14.5391767578125,0.09764699637889862,-0.0021009999327361584,-0.007996000349521637
1779997456864453000,14.556453125,0.03140699863433838,-0.0004889999981969595,-0.002948000095784664
1779997456881729500,14.5737294921875,-0.05250300094485283,0.000004999999873689376,0.00330700003542006
1779997456899006000,14.591005859375,-0.10537800192832947,-0.00011100000119768083,0.005204999819397926
1779997456916282600,14.60828271484375,-0.0953650027513504,-0.0009510000236332417,0.002948000095784664
1779997456933559000,14.62555908203125,-0.02814600057899952,-0.0021780000533908606,-0.0020179999992251396
1779997456950835500,14.64283544921875,0.05636399984359741,-0.0037169998977333307,-0.007915000431239605
1779997456968112000,14.660112060546876,0.10908599942922592,-0.004279999993741512,-0.01142099965363741
1779997456985388300,14.67738818359375,0.09933199733495712,-0.004282999783754349,-0.009862000122666359
1779997457002665000,14.6946650390625,0.03331099823117256,-0.0029959999956190586,-0.0026740001048892736
1779997457019941400,14.71194140625,-0.05171699821949005,-0.0003480000013951212,0.004910999909043312
1779997457037217800,14.7292177734375,-0.10654400289058685,0.0009510000236332417,0.008975000120699406
1779997457054494200,14.746494140625,-0.09951899945735931,0.0011190000222995877,0.008488000370562077
1779997457071771000,14.76377099609375,-0.035475000739097595,0.0005370000144466758,0.003287999890744686
1779997457089047300,14.78104736328125,0.048505999147892,-0.00011500000255182385,-0.003868000116199255
1779997457106323700,14.79832373046875,0.10299800336360931,-0.00017499999376013875,-0.007209999952465296
1779997457123600100,14.81560009765625,0.09776099771261215,-0.0003929999948013574,-0.006388000212609768
1779997457140876500,14.83287646484375,0.03482099995017052,0.0016110000433400273,-0.0021869998890906572
1779997457158153200,14.8501533203125,-0.04805900156497955,0.0023709998931735754,0.005235999822616577
1779997457175429600,14.8674296875,-0.10393600165843964,0.0035459999926388264,0.009425999596714973
1779997457192706300,14.884706298828124,-0.09996800124645233,0.00279300007969141,0.008444000035524368
1779997457209982700,14.901982666015625,-0.037918999791145325,0.0017109999898821115,0.004447000101208687
1779997457227259100,14.919259033203126,0.04468600079417229,0.00032900000223889947,-0.0017089999746531248
1779997457244535600,14.93653564453125,0.10042499750852585,-0.0006309999735094607,-0.006990000139921904
1779997457261812000,14.95381201171875,0.09634300321340561,-0.0005189999938011169,-0.008213000372052193
1779997457279088400,14.97108837890625,0.03769100084900856,-0.0006120000034570694,-0.003481999970972538
1779997457296365000,14.988364990234375,-0.042904000729322433,0.0011899999808520079,0.0030539999715983868
1779997457313641500,15.005641357421876,-0.09800799936056137,0.0017180000431835651,0.007646000012755394
1779997457330918000,15.02291796875,-0.0948610007762909,0.0016609999584034085,0.007191000040620565
1779997457348194300,15.0401943359375,-0.03729100152850151,0.0006929999799467623,0.0030320000369101763
1779997457365470700,15.057470703125,0.0433260016143322,-0.0010740000288933516,-0.002435999922454357
1779997457382747100,15.0747470703125,0.0968869999051094,-0.0016319999704137444,-0.006868000142276287
1779997457400023800,15.09202392578125,0.09469199925661087,-0.0017719999887049198,-0.00698600010946393
1779997457417300500,15.109300537109375,0.03729800134897232,-0.0007890000124461949,-0.002454000059515238
1779997457434577000,15.126576904296876,-0.04167500138282776,0.0005280000041238964,0.004095000214874744
1779997457451853300,15.143853271484375,-0.0961500033736229,0.0017030000453814864,0.007853000424802303
1779997457469129700,15.161129638671875,-0.09462899714708328,0.0024300001095980406,0.006940000224858522
1779997457486406100,15.17840625,-0.037257999181747437,0.0014270000392571092,0.002615999896079302
1779997457503682600,15.1956826171875,0.04106200113892555,-0.0004900000058114529,-0.002650999929755926
1779997457520959200,15.212959228515626,0.09519600123167038,-0.001474000047892332,-0.006711999885737896
1779997457538235600,15.230235595703125,0.09295599907636642,-0.0008800000068731606,-0.007038999814540148
1779997457555512000,15.247511962890625,0.03660999983549118,0.000048999998398358,-0.002870999975129962
1779997457572788700,15.264788818359374,-0.0414390005171299,0.0008609999786131084,0.002641000086441636
1779997457590065200,15.282065185546875,-0.09599699825048447,0.00113800005055964,0.0068709999322891235
1779997457607341600,15.299341552734376,-0.09374000132083893,0.0015059999423101544,0.007000999990850687
1779997457624618000,15.316617919921875,-0.037647999823093414,0.0005300000193528831,0.0031789999920874834
1779997457641894400,15.333894287109375,0.04039299860596657,-0.0015490000369027257,-0.0027890000492334366
1779997457659170800,15.3511708984375,0.09402599930763245,-0.00253499997779727,-0.00710699986666441
1779997457676447500,15.368447509765625,0.09319300204515457,-0.00254100002348423,-0.007356000132858753
1779997457693724200,15.38572412109375,0.03844499960541725,-0.0016899999463930726,-0.0034310000482946634
1779997457711000600,15.40300048828125,-0.03845199942588806,0.0000019999999949504854,0.0026910000015050173
1779997457728277000,15.420277099609375,-0.09289799630641937,0.0010989999864250422,0.006622999906539917
1779997457745553400,15.437553466796874,-0.09326300024986267,0.0008950000046752393,0.006829000078141689
1779997457762830000,15.454830078125,-0.038196999579668045,0.000048999998398358,0.002877000020816922
1779997457780106500,15.4721064453125,0.03866200149059296,-0.0014609999489039183,-0.002816000021994114
1779997457797383000,15.4893828125,0.09290599822998047,-0.0023900000378489494,-0.007455999962985516
1779997457814659600,15.50665966796875,0.09335599839687347,-0.0024349999148398638,-0.007451000157743692
1779997457831936000,15.52393603515625,0.04055200144648552,-0.0010989999864250422,-0.0023950000759214163
1779997457849212400,15.54121240234375,-0.035992998629808426,0.00108299998100847,0.003200999926775694
1779997457866488800,15.55848876953125,-0.09137699753046036,0.0013439999893307686,0.006668000016361475
1779997457883765200,15.57576513671875,-0.09335800260305405,0.00133200001437217,0.006118000019341707
1779997457901042000,15.5930419921875,-0.040619999170303345,0.001158999977633357,0.002715999959036708
1779997457918318300,15.610318359375,0.03561900183558464,-0.00036800000816583633,-0.0018599999602884054
1779997457935594800,15.6275947265625,0.08938899636268616,-0.0006949999951757491,-0.006231000181287527
1779997457952871200,15.64487109375,0.0909779965877533,-0.0008019999950192869,-0.006705999840050936
1779997457970147600,15.662147705078125,0.03951499983668327,-0.0003220000071451068,-0.0033470001071691513
1779997457987424000,15.679424072265626,-0.03480599820613861,0.0002530000056140125,0.002247000113129616
1779997458004700700,15.69670068359375,-0.08851200342178345,0.001462999964132905,0.0065299998968839645
1779997458021977000,15.71397705078125,-0.09102799743413925,0.0022509999107569456,0.006808000151067972
1779997458039253500,15.73125341796875,-0.03970099985599518,0.0013000000035390258,0.0030040000565350056
1779997458056530000,15.748530029296875,0.033934999257326126,0.00004099999932805076,-0.0021989999804645777
1779997458073806600,15.765806640625,0.08718899637460709,-0.0011980000417679548,-0.00621799984946847
1779997458091083000,15.7830830078125,0.08918499946594238,-0.0008430000161752105,-0.007054999936372042
1779997458108359400,15.800359375,0.039645999670028687,-0.0006419999990612268,-0.002345999935641885
1779997458125636000,15.817635986328124,-0.032885998487472534,0.0006990000256337225,0.0037819999270141125
1779997458142912500,15.83491259765625,-0.08720500022172928,0.0014039999805390835,0.00672100018709898
1779997458160189000,15.85218896484375,-0.08978399634361267,0.001230000052601099,0.006637000013142824
1779997458177465300,15.86946533203125,-0.04042299836874008,-0.00018200000340584666,0.002512000035494566
1779997458194741800,15.88674169921875,0.03331900015473366,-0.002056000055745244,-0.0035989999305456877
1779997458212018400,15.904018310546874,0.08743099868297577,-0.0019409999949857593,-0.008198999799787998
1779997458229294800,15.921294921875,0.09111499786376953,-0.0016499999910593033,-0.006868000142276287
1779997458246571300,15.9385712890625,0.04236200079321861,-0.0008140000281855464,-0.002302000066265464
1779997458263848000,15.955847900390625,-0.031734999269247055,-0.00018899999849963933,0.0019199999514967203
1779997458281124400,15.973124267578125,-0.08643099665641785,0.0008870000019669533,0.005822999868541956
1779997458298400800,15.99040087890625,-0.0913430005311966,0.0011159999994561076,0.007656999863684177
1779997458315677200,16.00767724609375,-0.0427360013127327,0.0008800000068731606,0.004964000079780817
1779997458332953600,16.02495361328125,0.029260000213980675,0.0006520000169984996,-0.0011739999754354358
1779997458350230300,16.042230224609376,0.08373700082302094,-0.0006280000088736415,-0.006149000022560358
1779997458367506700,16.059506591796875,0.08873800188302994,-0.00042699999175965786,-0.007546999957412481
1779997458384783000,16.076783203125,0.04220300167798996,0.00007000000186963007,-0.004459999967366457
1779997458402059800,16.094059814453125,-0.027111999690532684,0.0005549999768845737,0.0016370000084862113
1779997458419336000,16.1113359375,-0.0821710005402565,0.0007639999967068434,0.005628999788314104
1779997458436612600,16.128612548828126,-0.08769699931144714,0.0017519999528303742,0.005375999957323074
1779997458453889000,16.145888916015625,-0.042458001524209976,0.0010319999419152737,0.002776999957859516
1779997458471165700,16.163165771484376,0.028366999700665474,-0.001534000039100647,-0.002139999996870756
1779997458488442000,16.180442138671875,0.08185199648141861,-0.002078999998047948,-0.007648000027984381
1779997458505718500,16.197718505859374,0.08787699788808823,-0.0019180000526830554,-0.007588000036776066
1779997458522995000,16.214994873046876,0.04405299946665764,0.0003420000139158219,-0.0025969999842345715
1779997458540271600,16.232271728515624,-0.026096999645233154,0.0018899999558925629,0.0025869999080896378
1779997458557547800,16.2495478515625,-0.08018200099468231,0.002102999947965145,0.005675999913364649
1779997458574824400,16.266824462890625,-0.08767499774694443,0.0010779999429360032,0.006298999767750502
1779997458592100900,16.284100830078124,-0.04276200011372566,-0.00035600000410340726,0.004120999947190285
1779997458609377300,16.301377197265627,0.02570899948477745,-0.0006360000115819275,-0.00046300000394694507
1779997458626654000,16.318654052734374,0.07846499979496002,-0.0010580000234767795,-0.0049669998697936535
1779997458643930600,16.3359306640625,0.08470000326633453,-0.0011230000527575612,-0.005934999790042639
1779997458661206800,16.353206787109375,0.04109000042080879,-0.00016999999934341758,-0.0026370000559836626
1779997458678483200,16.370483154296874,-0.02500700019299984,0.001344999996945262,0.002535999985411763
1779997458695760000,16.387759765625,-0.07798899710178375,0.00215000007301569,0.0069320001639425755
1779997458713036300,16.405036376953124,-0.0850209966301918,0.0015800000401213765,0.0073079997673630714
1779997458730312700,16.422312744140626,-0.04357999935746193,0.0022869999520480633,0.003834000090137124
1779997458747589400,16.43958935546875,0.022772999480366707,0.0006339999963529408,-0.001348000019788742
1779997458764865800,16.45686572265625,0.07573200017213821,-0.0012519999872893095,-0.006273999810218811
1779997458782142200,16.47414208984375,0.08351399749517441,-0.002587999915704131,-0.006949999835342169
1779997458799418600,16.491418701171874,0.04432399943470955,-0.0029319999739527702,-0.00431999983265996
1779997458816695000,16.508695068359376,-0.021570000797510147,0.00039400000241585076,0.0005779999773949385
1779997458833971700,16.5259716796875,-0.07381200045347214,0.001323999953456223,0.0052189999260008335
1779997458851248000,16.543248046875,-0.08264199644327164,0.0005920000257901847,0.005293000023812056
1779997458868524500,16.560524658203125,-0.04330600053071976,-0.00016900000628083944,0.0015109999803826213
1779997458885801000,16.577801025390624,0.022871999070048332,-0.0023539999965578318,-0.0019290000200271606
1779997458903077600,16.59507763671875,0.0751190036535263,-0.002795000094920397,-0.004360999912023544
1779997458920354000,16.61235400390625,0.08366899937391281,-0.0013040000339969993,-0.00520299980416894
1779997458937630500,16.62963037109375,0.04290499910712242,-0.0007450000266544521,-0.0019000000320374966
1779997458954907100,16.6469072265625,-0.022478999570012093,0.00009699999645818025,0.0027650000993162394
1779997458972183600,16.66418359375,-0.0750190019607544,0.0021800000686198473,0.005394000094383955
1779997458989460000,16.6814599609375,-0.08350399881601334,0.0008849999867379665,0.006169999949634075
1779997459006736400,16.698736328125,-0.04212300106883049,0.00023400000645779073,0.004153000190854073
1779997459024013000,16.716012939453126,0.022520000115036964,-0.00038499999209307134,-0.0008510000188834965
1779997459041289700,16.733289794921873,0.07496800273656845,-0.0008459999808110297,-0.005750999785959721
1779997459058566000,16.75056591796875,0.08178599923849106,-0.0005670000100508332,-0.006016000173985958
1779997459084480800,16.776480712890624,0.011335000395774841,0.00005400000009103678,-0.000944000028539449
1779997459101757200,16.793757080078127,-0.05305999889969826,0.002930999966338277,0.0025859999004751444
1779997459119033600,16.81103369140625,-0.08480200171470642,0.002768999896943569,0.006275000050663948
1779997459136310300,16.828310302734376,-0.067610003054142,0.0020910000894218683,0.005764000117778778
1779997459153586700,16.845586669921875,-0.011466000229120255,0.0019759999122470617,0.0010209999745711684
1779997459170863000,16.862863037109374,0.051238998770713806,-0.0005590000073425472,-0.0035570000763982534
1779997459188139500,16.880139404296877,0.08299899846315384,-0.0015569999814033508,-0.0065899998880922794
1779997459205416200,16.897416259765624,0.06673700362443924,-0.0007159999804571271,-0.006424999795854092
1779997459222692600,16.914692626953126,0.011494000442326069,-0.0007259999983943999,-0.0014189999783411622
1779997459239969000,16.931968994140625,-0.04977700114250183,0.00021100000594742596,0.004093999974429607
1779997459257245400,16.949245361328124,-0.08302199840545654,0.0013089999556541443,0.006053000222891569
1779997459274521900,16.96652197265625,-0.06758099794387817,0.0008629999938420951,0.005187999922782183
1779997459291798500,16.983798583984374,-0.01269800029695034,0.0002460000105202198,0.0013680000556632876
1779997459309075000,17.001074951171876,0.048510000109672546,-0.0004290000069886446,-0.0025059999898076057
1779997459326351400,17.018351318359375,0.08152099698781967,-0.001307999948039651,-0.005150999873876572
1779997459343627800,17.035627685546874,0.0658160001039505,-0.001155999954789877,-0.004585999995470047
1779997459360904400,17.052904541015625,0.013036999851465225,-0.0005099999834783375,-0.0004720000142697245
1779997459378180900,17.070180908203124,-0.0480009987950325,0.0001829999964684248,0.004112999886274338
1779997459395457300,17.087457275390626,-0.08050499856472015,0.000653000024612993,0.005350999999791384
1779997459412734000,17.10473388671875,-0.06655800342559814,0.0013370000524446368,0.003003000048920512
1779997459430010400,17.12201025390625,-0.012376000173389912,0.000012999999853491317,-0.00029799999902024865
1779997459447286800,17.139286865234375,0.04868000000715256,-0.0017900000093504786,-0.0042489999905228615
1779997459464563200,17.156563232421874,0.08120899647474289,-0.0018220000201836228,-0.006649999879300594
1779997459481839900,17.17383984375,0.06704500317573547,-0.001319000031799078,-0.004778999835252762
1779997459499116300,17.1911162109375,0.013402000069618225,0.0001500000071246177,0.0002209999947808683
1779997459516392700,17.208392822265626,-0.04796899855136871,0.0012959999730810523,0.004863000009208918
1779997459533669400,17.22566943359375,-0.08132699877023697,0.002219999907538295,0.007042999844998121
1779997459550945800,17.24294580078125,-0.06735199689865112,0.001395000028423965,0.0067529999651014805
1779997459568222200,17.26022216796875,-0.013636999763548374,0.000037999998312443495,0.002420000033453107
1779997459585498600,17.27749853515625,0.04687599837779999,-0.0009830000344663858,-0.0030320000369101763
1779997459602775000,17.294775146484376,0.0805639997124672,-0.0023139999248087406,-0.006291999947279692
1779997459620051500,17.312051513671875,0.0669260025024414,-0.0029869999270886183,-0.006029999814927578
1779997459637328100,17.329328125,0.015765000134706497,-0.0011070000473409891,-0.003080999944359064
1779997459654604500,17.3466044921875,-0.04404599964618683,-0.00026199998683296144,0.0021619999315589666
1779997459671881000,17.363880859375,-0.07706800103187561,-0.0010479999473318458,0.0047530001029372215
1779997459689157600,17.38115771484375,-0.0648299977183342,0.000375000003259629,0.002148000057786703
1779997459706434000,17.39843408203125,-0.01361900009214878,0.00021399999968707561,-0.0008069999748840928
1779997459723710500,17.41571044921875,0.04571500048041344,-0.0010110000148415565,-0.003961999900639057
1779997459740987000,17.43298681640625,0.07802200317382812,-0.00037900000461377203,-0.006364000029861927
1779997459758263600,17.450263671875,0.065591000020504,-0.0005230000242590904,-0.005030000116676092
1779997459775540000,17.4675400390625,0.015420000068843365,0.00017499999376013875,-0.00016900000628083944
1779997459792816400,17.48481640625,-0.04430500045418739,0.001234999974258244,0.0038469999562948942
1779997459810093000,17.502093017578126,-0.07812599837779999,0.002065999899059534,0.005090999882668257
1779997459827369500,17.519369384765625,-0.0670899972319603,0.0017559999832883477,0.004406999796628952
1779997459844646000,17.53664599609375,-0.016724999994039536,0.000805000017862767,0.0010720000136643648
1779997459861922300,17.55392236328125,0.042757000774145126,0.00011899999663000926,-0.002759000053629279
1779997459879199000,17.571198974609374,0.07670299708843231,-0.00010199999815085903,-0.004867000039666891
1779997459896475400,17.588475341796876,0.0654510036110878,-0.0004990000161342323,-0.003587000072002411
1779997459913751800,17.605751708984375,0.015737000852823257,0.000547999981790781,-0.00017699999443721026
1779997459931028500,17.623028564453126,-0.04323500022292137,0.002124000107869506,0.0046339998953044415
1779997459948305000,17.640304931640625,-0.07782500237226486,0.0014100000262260437,0.008185000158846378
1779997459965581300,17.657581298828124,-0.06727900356054306,0.0010939999483525753,0.006169999949634075
1779997459982857700,17.674857666015626,-0.018185000866651535,0.000610999995842576,0.0019320000428706408
1779997460000134400,17.692134521484373,0.04136199876666069,-0.0013439999893307686,-0.001863999990746379
1779997460017410800,17.709410888671876,0.07595200091600418,-0.0018680000212043524,-0.005824999883770943
1779997460034687200,17.726687255859375,0.06601700186729431,-0.0015269999857991934,-0.007224999833852053
1779997460051964000,17.7439638671875,0.01912499964237213,-0.0009899999713525176,-0.002850000048056245
1779997460069240300,17.761240234375,-0.03927899897098541,-0.00007200000254670158,0.0030759999062865973
1779997460086516700,17.778516845703123,-0.07392700016498566,0.0010379999876022339,0.0056059998460114
1779997460103793200,17.795793212890626,-0.0654119998216629,0.0012130000395700336,0.004761999938637018
1779997460121069800,17.81306982421875,-0.018456999212503433,0.00021499999274965376,0.002191999927163124
1779997460138346200,17.83034619140625,0.0391089990735054,-0.0005510000046342611,-0.0016080000204965472
1779997460155622700,17.84762255859375,0.07300200313329697,-0.0010029999539256096,-0.004896000027656555
1779997460172899300,17.8648994140625,0.06448499858379364,-0.0008839999791234732,-0.004435000009834766
1779997460190175700,17.88217578125,0.018259000033140182,-0.0008340000058524311,-0.0010130000300705433
1779997460207452200,17.8994521484375,-0.03803500160574913,0.00046099998871795833,0.00228599994443357
1779997460224728600,17.916728515625,-0.07213599979877472,0.0010479999473318458,0.004908999893814325
1779997460242005200,17.934005126953124,-0.06310000270605087,-0.00003099999958067201,0.003984000068157911
1779997460259281400,17.951281494140623,-0.017145000398159027,-0.0006319999811239541,-0.001151000033132732
1779997460276558000,17.96855810546875,0.03932100161910057,-0.0017320000333711505,-0.005305000115185976
1779997460293834500,17.98583447265625,0.07366199791431427,-0.0021800000686198473,-0.0062790000811219215
1779997460311111000,18.00311083984375,0.06441099941730499,-0.0010890000266954303,-0.005319999996572733
1779997460328387600,18.0203876953125,0.018671000376343727,-0.000007000000096013537,-0.0015930000226944685
1779997460345664000,18.0376640625,-0.03826799988746643,0.0009769999887794256,0.0035490000154823065
1779997460362940400,18.0549404296875,-0.07286199927330017,0.0012760000536218286,0.0061889998614788055
1779997460380216800,18.072216796875,-0.0651869997382164,0.0015689999563619494,0.005198999773710966
1779997460397493500,18.089493408203126,-0.01961600035429001,0.0007360000163316727,0.0016169999726116657
1779997460414770000,18.10677001953125,0.03714099898934364,-0.00010199999815085903,-0.0026910000015050173
1779997460432046300,18.12404638671875,0.07130999863147736,-0.0009079999872483313,-0.005435999948531389
1779997460449322800,18.14132275390625,0.06415600329637527,-0.0009510000236332417,-0.004972000140696764
1779997460466599200,18.15859912109375,0.01942799985408783,0.0002589999930933118,-0.0010629999451339245
1779997460483875800,18.175875732421876,-0.036917999386787415,0.0014929999597370625,0.0033770001027733088
1779997460501152300,18.19315234375,-0.07171399891376495,0.00202700006775558,0.006486999802291393
1779997460518428700,18.2104287109375,-0.0651789978146553,0.001832999987527728,0.006692000199109316
1779997460535705000,18.227705078125,-0.020748000591993332,0.0016580000519752502,0.0036949999630451202
1779997460552981500,18.2449814453125,0.03406799957156181,0.00038499999209307134,0.0002460000105202198
1779997460570258200,18.262258056640626,0.06855200231075287,-0.0005949999904260039,-0.003249000059440732
1779997460587534600,18.27953466796875,0.06212399899959564,-0.0008280000183731318,-0.004631999880075455
1779997460604811300,18.296811279296875,0.019543999806046486,-0.0008490000036545098,-0.001955999992787838
1779997460622087700,18.314087646484374,-0.033907998353242874,-0.00019799999427050352,0.0025760000571608543
1779997460639364000,18.331364013671877,-0.067951999604702,0.00038300000596791506,0.00458399998024106
1779997460656640800,18.348640869140624,-0.06191699951887131,0.0000019999999949504854,0.0035329998936504126
1779997460673917200,18.365917236328126,-0.019195999950170517,-0.0005080000264570117,0.0005890000029467046
1779997460691193600,18.383193603515625,0.03507599979639053,-0.0013210000470280647,-0.0030930000357329845
1779997460708470000,18.400469970703124,0.06865999847650528,-0.0014059999957680702,-0.006089000031352043
1779997460725746400,18.417746337890627,0.0619099996984005,-0.0012450000504031777,-0.006295999977737665
1779997460743022800,18.43502294921875,0.020899999886751175,-0.0007580000092275441,-0.0032130000181496143
1779997460760299500,18.452299560546876,-0.032937999814748764,0.00031800000579096377,0.0005849999724887311
1779997460777576000,18.469575927734375,-0.06611700356006622,0.0009689999860711396,0.0028880001045763493
1779997460794852400,18.486852294921874,-0.06037300080060959,0.0004670000053010881,0.0030990000814199448
1779997460812128800,18.504128662109373,-0.01870499923825264,-0.0006189999985508621,-0.0003769999893847853
1779997460829405200,18.5214052734375,0.03417399898171425,-0.0011239999439567327,-0.003776000114157796
1779997460846681900,18.538681884765627,0.06725499778985977,-0.001306000049225986,-0.004982000216841698
1779997460863958300,18.555958251953125,0.06162500008940697,-0.0009889999637380242,-0.004222000017762184
1779997460881235000,18.57323486328125,0.01946599967777729,0.0002209999947808683,-0.0009919999865815043
1779997460898511000,18.590510986328123,-0.03363800048828125,0.00048600000445730984,0.0036909999325871468
1779997460915787800,18.607787841796874,-0.06743399798870087,0.0014979999978095293,0.006521999835968018
1779997460933064400,18.625064453125,-0.06295199692249298,0.0013800000306218863,0.00634399987757206
1779997460950340900,18.6423408203125,-0.02215299941599369,0.0009079999872483313,0.00330700003542006
1779997460967617300,18.6596171875,0.030182000249624252,0.0002880000101868063,-0.000818000000435859
1779997460984893700,18.676893798828125,0.06464800238609314,-0.0007849999819882214,-0.003650000086054206
1779997461002170000,18.694170166015624,0.06030000001192093,-0.0004130000015720725,-0.0032289999071508646
1779997461019446500,18.711446533203127,0.02121100015938282,0.0000670000008540228,-0.00013899999612476677
1779997461036723200,18.72872314453125,-0.031052999198436737,0.00152299995534122,0.0032029999420046806
1779997461053999600,18.74599951171875,-0.06584200263023376,0.0018810000037774444,0.005175999831408262
1779997461071276300,18.7632763671875,-0.061510998755693436,0.0011399999493733048,0.004767000209540129
1779997461088552700,18.780552734375,-0.022484000772237778,0.0004990000161342323,0.0016339999856427312
1779997461105829000,18.7978291015625,0.029920000582933426,-0.0002789999998640269,-0.002309999894350767
1779997461123105500,18.81510546875,0.06419900059700012,-0.0012120000319555402,-0.00507699977606535
1779997461140382000,18.8323818359375,0.06128900125622749,-0.0016049999976530671,-0.005648000165820122
1779997461157658600,18.84965869140625,0.02340099960565567,-0.00120599998626858,-0.0027209999971091747
1779997461174935000,18.86693505859375,-0.02786399982869625,-0.00042699999175965786,0.002506999997422099
1779997461192211500,18.88421142578125,-0.06261599808931351,0.0007600000244565308,0.005164999980479479
1779997461209488100,18.901488037109374,-0.0608379989862442,0.000818000000435859,0.004480000119656324
1779997461226764500,18.9187646484375,-0.022842999547719955,0.0002809999859891832,0.0020119999535381794
1779997461244041000,18.936041015625,0.028541000559926033,-0.0006750000175088644,-0.0015069999499246478
1779997461261317400,18.9533173828125,0.0628570020198822,-0.0014909999445080757,-0.00467800023034215
1779997461278594000,18.970593994140625,0.060329001396894455,-0.0013749999925494194,-0.005111999809741974
1779997461295870200,18.9878701171875,0.02345000021159649,-0.0010969999711960554,-0.00227600010111928
1779997461313147000,19.00514697265625,-0.026750000193715096,0.0004330000083427876,0.0012860000133514404
1779997461330423600,19.022423583984374,-0.06116199865937233,0.0018469999777153134,0.003797000041231513
1779997461347699700,19.03969970703125,-0.05878499895334244,0.001142999972216785,0.003871999913826585
1779997461364976400,19.056976318359375,-0.022690000012516975,0.0004889999981969595,0.0011249999515712261
1779997461382252800,19.074252685546874,0.02708199992775917,-0.0005920000257901847,-0.0026990000624209642
1779997461399529200,19.091529296875,0.06091500073671341,-0.000826000003144145,-0.00545400008559227
1779997461416806000,19.108805908203124,0.05935399979352951,0.00024900000425986946,-0.005698000080883503
1779997461434082300,19.126082275390626,0.024049999192357063,-0.000018000000636675395,-0.0026000000070780516
1779997461451358700,19.143358642578125,-0.024961000308394432,0.00012799999967683107,0.0006960000027902424
1779997461468635100,19.16063525390625,-0.05925099924206734,0.000770999991800636,0.0029849999118596315
1779997461485911800,19.177911865234375,-0.05814899876713753,0.00002099999983329326,0.004602999892085791
1779997461503188200,19.195188232421874,-0.02377600036561489,0.0006000000284984708,0.003967000171542168
1779997461520464600,19.212464599609376,0.023414000868797302,-0.00002300000051036477,0.000994000001810491
1779997461537741300,19.2297412109375,0.05618099868297577,-0.00014200000441633165,-0.0017750000115484
1779997461555017700,19.247017822265626,0.055264998227357864,-0.000830999983008951,-0.0019529999699443579
1779997461572294100,19.264294189453125,0.02230199985206127,-0.0016929999692365527,0.0002809999859891832
1779997461589570600,19.281570556640624,-0.024498000741004944,-0.001019999966956675,0.0023109999019652605
1779997461606847000,19.298846923828126,-0.057016000151634216,0.00013800000306218863,0.003406000090762973
1779997461624123400,19.316123291015625,-0.0552619993686676,0.0004199999966658652,0.0028299998957663774
1779997461641400000,19.333400146484376,-0.02124200016260147,0.0007280000136233866,0.0006370000191964209
1779997461658676700,19.3506767578125,0.02600499987602234,-0.000770999991800636,-0.002858000108972192
1779997461675953200,19.367953125,0.0577629990875721,-0.0011439999798312783,-0.0053010000847280025
1779997461693229600,19.3852294921875,0.055649999529123306,-0.0003239999932702631,-0.00496200006455183
1779997461710506000,19.402506103515623,0.021717999130487442,0.00044299999717622995,-0.0008529999759048223
1779997461727782400,19.419782470703126,-0.02555900067090988,0.0010870000114664435,0.003166999900713563
1779997461745058800,19.437058837890625,-0.05806500092148781,0.001576000009663403,0.004732000175863504
1779997461762335500,19.45433544921875,-0.057082999497652054,0.0008679999737069011,0.003131000092253089
1779997461779612200,19.471612060546875,-0.02230199985206127,0.0005300000193528831,0.0004079999926034361
1779997461805526500,19.497526611328126,0.04464900121092796,-0.0014509999891743064,-0.004019999876618385
1779997461822803200,19.51480322265625,0.06141100078821182,-0.0009280000231228769,-0.005417999811470509
1779997461840079600,19.53207958984375,0.0416250005364418,0.0007960000075399876,-0.0029949999880045652
1779997461857356000,19.54935595703125,-0.001972000114619732,0.0015300000086426735,0.001693999976851046
1779997461874632700,19.5666328125,-0.04498500004410744,0.0014390000142157078,0.004414999857544899
1779997461891909000,19.5839091796875,-0.06170399859547615,0.00038499999209307134,0.0042420001700520515
1779997461909185500,19.601185546875,-0.042490001767873764,0.0002969999914057553,0.002638000063598156
1779997461926462000,19.6184619140625,0.0006140000186860561,-0.0005109999910928309,0.00016900000628083944
1779997461943738600,19.635738525390625,0.04390000179409981,-0.0011820000363513827,-0.003464000066742301
1779997461961015000,19.65301513671875,0.06063999980688095,-0.0009730000165291131,-0.005905000027269125
1779997461978291500,19.67029150390625,0.043108999729156494,-0.0010689999908208847,-0.00380500010214746
1779997461995568000,19.687568115234374,0.0004970000009052455,0.00015700000221841037,0.0005890000029467046
1779997462012844500,19.704844482421876,-0.04249799996614456,0.0013000000035390258,0.003886000020429492
1779997462030121000,19.722120849609375,-0.060201000422239304,0.0013299999991431832,0.005359000060707331
1779997462047397400,19.7393974609375,-0.044220998883247375,0.000977999996393919,0.0038250000216066837
1779997462064674000,19.756674072265625,-0.0005949999904260039,0.0003319999959785491,0.000686999992467463
1779997462081950500,19.773950439453124,0.04184800013899803,-0.00013099999341648072,-0.0027630000840872526
1779997462099227000,19.791226806640626,0.06047600135207176,-0.0017430000007152557,-0.004920000210404396
1779997462116503600,19.808503662109374,0.044231001287698746,-0.001970000099390745,-0.005113999824970961
1779997462133780000,19.825780029296876,0.002489000093191862,-0.0005460000247694552,-0.001753999968059361
1779997462151056400,19.843056396484375,-0.04006100073456764,0.0010659999679774046,0.0032919999212026596
1779997462168333000,19.8603330078125,-0.05961199849843979,0.0015879999846220016,0.005348000209778547
1779997462185609200,19.877609130859376,-0.04388200119137764,0.0015269999857991934,0.0040480000898242
1779997462202885600,19.8948857421875,-0.0035550000611692667,0.00021100000594742596,0.0014929999597370625
1779997462220162300,19.912162353515626,0.03867800161242485,-0.0008720000041648746,-0.0011370000429451466
1779997462237438700,19.929438720703125,0.05731000006198883,-0.0008769999840296805,-0.003407000098377466
1779997462254715100,19.946715087890624,0.04206300154328346,-0.0006629999843426049,-0.0032530000898987055
1779997462271991800,19.96399169921875,0.003080999944359064,-0.00043700000969693065,-0.0003969999961555004
1779997462289268000,19.98126806640625,-0.03833099827170372,0.00024300000222865492,0.002208000048995018
1779997462306544600,19.998544677734376,-0.05606599897146225,0.0007169999880716205,0.002893999917432666
1779997462323821300,20.0158212890625,-0.04123099893331528,0.0010839999886229634,0.0012390000047162175
1779997462341097700,20.03309765625,-0.0013490000274032354,-0.0005310000269673765,-0.0013249999610707164
1779997462358374100,20.0503740234375,0.03998799994587898,-0.00056900002527982,-0.004217000212520361
1779997462375650600,20.067650634765624,0.057624999433755875,-0.0006830000202171504,-0.0046259998343884945
1779997462392927200,20.08492724609375,0.0433880016207695,-0.001471000025048852,-0.0026539999525994062
1779997462410203400,20.102203369140625,0.0032019999343901873,-0.0007750000222586095,-0.0001539999939268455
1779997462427480000,20.11947998046875,-0.03794600069522858,0.00009000000136438757,0.0034990001004189253
1779997462444756700,20.1367568359375,-0.05714699998497963,0.0008360000210814178,0.005698000080883503
1779997462462033200,20.154033203125,-0.043083999305963516,0.001095999963581562,0.004234000109136105
1779997462479309600,20.1713095703125,-0.0035149999894201756,0.00045900000259280205,0.0002969999914057553
1779997462496586000,20.1885859375,0.03727500140666962,-0.000037000001611886546,-0.0028460000175982714
1779997462513862400,20.2058623046875,0.05726800113916397,-0.000981000019237399,-0.004437999799847603
1779997462531138800,20.223138916015625,0.04326200112700462,-0.00037200000951997936,-0.003886000020429492
1779997462548415500,20.24041552734375,0.005125000141561031,0.0007179999956861138,-0.0013259999686852098
1779997462565692200,20.257692138671874,-0.03570900112390518,0.0008169999928213656,0.0029539999086409807
1779997462582968300,20.27496826171875,-0.05550000071525574,0.0010969999711960554,0.004749000072479248
1779997462600245000,20.292244873046876,-0.04297199845314026,0.0009699999936856329,0.0038300000596791506
1779997462617521400,20.309521484375,-0.006227999925613403,0.0002119999990100041,0.0015069999499246478
1779997462634798000,20.326798095703126,0.03415900096297264,-0.00039900001138448715,-0.0013569999719038606
1779997462652074500,20.344074462890624,0.05307900160551071,-0.0004600000102072954,-0.0028979999478906393
1779997462669351000,20.361350830078123,0.04104100167751312,0.00008800000068731606,-0.002518000081181526
1779997462686627300,20.37862744140625,0.004418000113219023,0.00046400001156143844,-0.00023299999884329736
1779997462703904000,20.395904052734377,-0.03429799899458885,-0.0000470000013592653,0.0027469999622553587
1779997462721180400,20.413180419921876,-0.05334499850869179,0.00011000000085914508,0.0038129999302327633
1779997462738456800,20.430456787109375,-0.04174799844622612,0.00010800000018207356,0.0028609998989850283
1779997462755733500,20.4477333984375,-0.004945999942719936,-0.0010659999679774046,0.0009379999828524888
1779997462773010000,20.465010009765624,0.033716000616550446,-0.0010770000517368317,-0.002104999963194132
1779997462790286300,20.482286376953127,0.05246099829673767,-0.001366000040434301,-0.004040000028908253
1779997462807563000,20.49956298828125,0.04055599868297577,-0.001550000044517219,-0.0021510000806301832
1779997462824839400,20.51683935546875,0.00507699977606535,-0.0003539999888744205,0.00006399999983841553
1779997462842115800,20.53411572265625,-0.033913999795913696,0.0004870000120718032,0.0024790000170469284
1779997462859392300,20.551392333984374,-0.05279399827122688,0.0008609999786131084,0.003512999974191189
1779997462876668700,20.568668701171877,-0.04037199914455414,0.00010399999882793054,0.0020310000982135534
1779997462893945000,20.585945068359376,-0.004602000117301941,-0.0004180000105407089,-0.0004220000118948519
1779997462911221800,20.6032216796875,0.0343330018222332,-0.0006760000251233578,-0.0036770000588148832
1779997462928498200,20.620498291015625,0.05359800159931183,-0.0013510000426322222,-0.005187000147998333
1779997462945774600,20.637774658203124,0.04226600006222725,-0.0017960000550374389,-0.004404000006616116
1779997462963051300,20.65505126953125,0.006630999967455864,0.00009999999747378752,-0.0022189998999238014
1779997462980327700,20.67232763671875,-0.031745001673698425,0.00038300000596791506,0.0014130000490695238
1779997462997604000,20.68960400390625,-0.05085499957203865,0.000577000027988106,0.003558000084012747
1779997463014880500,20.706880615234375,-0.040383998304605484,0.0010580000234767795,0.0023789999540895224
1779997463032157000,20.724156982421874,-0.005553999915719032,-0.000024000000848900527,0.00014400000509340316
1779997463049433600,20.74143359375,0.03221699967980385,-0.0007939999923110008,-0.0018980000168085098
1779997463066710000,20.7587099609375,0.05113299936056137,-0.0004689999914262444,-0.0037539999466389418
1779997463083986700,20.775986572265627,0.03955300152301788,-0.00035099999513477087,-0.0025430000387132168
1779997463101262800,20.793262939453125,0.005123999901115894,0.00033599999733269215,0.0011279999744147062
1779997463118539500,20.81053955078125,-0.033142998814582825,0.0013889999827370048,0.0044999998062849045
1779997463135816000,20.82781591796875,-0.05313099920749664,0.0021899999119341373,0.006095999851822853
1779997463153092600,20.845092529296874,-0.042413000017404556,0.0020910000894218683,0.005061999894678593
1779997463170369000,20.862369140625,-0.008191999979317188,0.0011340000201016665,0.0025760000571608543
