time,seconds_elapsed,z,y,x
1779997442654588200,0.346588134765625,9.646796226501465,-0.09792199730873108,-1.7607170343399048
1779997442671864300,0.3638642578125,9.6472749710083,-0.09887000173330307,-1.7580389976501465
1779997442689140700,0.381140625,9.64769458770752,-0.09788099676370621,-1.7557870149612427
1779997442706417000,0.3984169921875,9.647954940795898,-0.09791400283575058,-1.7543519735336304
1779997442723693600,0.415693603515625,9.647906303405762,-0.09773100167512894,-1.7546279430389404
1779997442740969700,0.4329697265625,9.647808074951172,-0.09713000059127808,-1.7552039623260498
1779997442758246100,0.45024609375,9.647613525390625,-0.09627299755811691,-1.7563179731369019
1779997442775522300,0.467522216796875,9.647383689880371,-0.09601300209760666,-1.757591962814331
1779997442792798700,0.484798828125,9.647168159484863,-0.09643299877643585,-1.7587499618530273
1779997442810075100,0.5020751953125,9.646973609924316,-0.09679699689149857,-1.7597919702529907
1779997442827351300,0.519351318359375,9.646829605102539,-0.09687100350856781,-1.7605899572372437
1779997442844627700,0.536627685546875,9.646742820739746,-0.09712699800729752,-1.76105797290802
1779997442861904000,0.55390380859375,9.646729469299316,-0.09782599657773972,-1.7610889673233032
1779997442879180300,0.57118017578125,9.64675521850586,-0.09863000363111496,-1.7608979940414429
1779997442896456700,0.588456787109375,9.646764755249023,-0.09892600029706955,-1.7608319520950317
1779997442913732900,0.60573291015625,9.646750450134277,-0.09879700094461441,-1.7609070539474487
1779997442931009300,0.62300927734375,9.64676284790039,-0.09909400343894958,-1.7608309984207153
1779997442948285400,0.640285400390625,9.646771430969238,-0.09990700334310532,-1.7607369422912598
1779997442965561900,0.657561767578125,9.646712303161621,-0.10068099945783615,-1.7610160112380981
1779997442982838000,0.674838134765625,9.646577835083008,-0.10121899843215942,-1.7617230415344238
1779997443000114400,0.692114501953125,9.646408081054688,-0.10175599902868271,-1.7626169919967651
1779997443017390800,0.709390869140625,9.646181106567383,-0.10199499875307083,-1.7638460397720337
1779997443034667000,0.7266669921875,9.645730018615723,-0.10055699944496155,-1.7663719654083252
1779997443051943400,0.743943359375,9.644947052001953,-0.09708400070667267,-1.7707769870758057
1779997443069219600,0.761219482421875,9.644012451171875,-0.09368500113487244,-1.7760189771652222
1779997443086496300,0.778496337890625,9.643267631530762,-0.09309200197458267,-1.78010094165802
1779997443103772700,0.795772705078125,9.642836570739746,-0.09443099796772003,-1.7823619842529297
1779997443121048800,0.813048828125,9.642696380615234,-0.09521900117397308,-1.7830829620361328
1779997443138325200,0.8303251953125,9.642932891845703,-0.09630099684000015,-1.7817200422286987
1779997443155601700,0.8476015625,9.643721580505371,-0.09985999763011932,-1.7771769762039185
1779997443172877800,0.8648779296875,9.645074844360352,-0.10610400140285492,-1.7694109678268433
1779997443190154200,0.882154296875,9.646712303161621,-0.11293499916791916,-1.7600769996643066
1779997443207430400,0.899430419921875,9.648191452026367,-0.11726699769496918,-1.7517399787902832
1779997443224706800,0.916706787109375,9.649242401123047,-0.11847999691963196,-1.745906949043274
1779997443241983200,0.933983154296875,9.64990234375,-0.11896400153636932,-1.7422560453414917
1779997443259259400,0.95125927734375,9.650217056274414,-0.12006600201129913,-1.7404650449752808
1779997443276535800,0.968535888671875,9.650136947631836,-0.12020900100469589,-1.7408859729766846
1779997443293812000,0.98581201171875,9.649691581726074,-0.11845500022172928,-1.7434699535369873
1779997443311088600,1.003088623046875,9.649049758911133,-0.11571499705314636,-1.74720299243927
1779997443328364500,1.020364501953125,9.648443222045898,-0.11348500102758408,-1.7507020235061646
1779997443345641200,1.03764111328125,9.647963523864746,-0.11217000335454941,-1.7534430027008057
1779997443362917400,1.05491748046875,9.647594451904297,-0.11110199987888336,-1.7555420398712158
1779997443380193800,1.07219384765625,9.647289276123047,-0.10991799831390381,-1.7572920322418213
1779997443397470000,1.089469970703125,9.64699935913086,-0.10864199697971344,-1.7589670419692993
1779997443414746400,1.106746337890625,9.646692276000977,-0.10743699967861176,-1.7607289552688599
1779997443432022800,1.124022705078125,9.646353721618652,-0.10627199709415436,-1.7626399993896484
1779997443449299200,1.14129931640625,9.645978927612305,-0.10518000274896622,-1.7647579908370972
1779997443466575400,1.158575439453125,9.645528793334961,-0.10405100136995316,-1.76727294921875
1779997443483851800,1.175851806640625,9.645034790039062,-0.10288000106811523,-1.770048975944519
1779997443501128000,1.1931279296875,9.644490242004395,-0.1018960028886795,-1.773056983947754
1779997443518404400,1.210404296875,9.643857955932617,-0.10043500363826752,-1.7765790224075317
1779997443535680800,1.2276806640625,9.643174171447754,-0.09816999733448029,-1.7804069519042969
1779997443552957000,1.24495703125,9.642533302307129,-0.09646199643611908,-1.7839659452438354
1779997443570233300,1.2622333984375,9.64191722869873,-0.09544599801301956,-1.787348985671997
1779997443587509800,1.279509765625,9.641263008117676,-0.0939359962940216,-1.7909510135650635
1779997443613424000,1.305424072265625,9.640135765075684,-0.08981899917125702,-1.7972149848937988
1779997443630700500,1.322700439453125,9.63935375213623,-0.08646299690008163,-1.8015730381011963
1779997443647977000,1.33997705078125,9.63875961303711,-0.08440300077199936,-1.8048549890518188
1779997443665253000,1.357253173828125,9.638423919677734,-0.08452100306749344,-1.8066480159759521
1779997443682529500,1.374529541015625,9.638238906860352,-0.0849509984254837,-1.8076139688491821
1779997443699805700,1.3918056640625,9.638154983520508,-0.08492899686098099,-1.808068037033081
1779997443717082400,1.409082275390625,9.638216018676758,-0.08531200140714645,-1.80771803855896
1779997443734358500,1.426358642578125,9.638470649719238,-0.08677700161933899,-1.8062889575958252
1779997443751635000,1.443635009765625,9.63886547088623,-0.08924800157546997,-1.8040579557418823
1779997443768911400,1.460911376953125,9.639266967773438,-0.09173399955034256,-1.8017950057983398
1779997443786187500,1.4781875,9.639517784118652,-0.09288500249385834,-1.8003989458084106
1779997443803464000,1.4954638671875,9.639575958251953,-0.09245199710130692,-1.800112009048462
1779997443820740000,1.512739990234375,9.639530181884766,-0.09183699637651443,-1.8003829717636108
1779997443838016500,1.5300166015625,9.639426231384277,-0.09161199629306793,-1.8009519577026367
1779997443855292700,1.547292724609375,9.639196395874023,-0.0908219963312149,-1.802219033241272
1779997443872569300,1.5645693359375,9.638826370239258,-0.08875200152397156,-1.8042919635772705
1779997443889845500,1.581845458984375,9.638409614562988,-0.08605299890041351,-1.8066530227661133
1779997443907122000,1.599121826171875,9.638081550598145,-0.08344200253486633,-1.8085190057754517
1779997443924398000,1.616398193359375,9.638019561767578,-0.08146899938583374,-1.8089410066604614
1779997443941674500,1.633674560546875,9.638480186462402,-0.08035600185394287,-1.8065179586410522
1779997443958951000,1.650950927734375,9.639913558959961,-0.0800739973783493,-1.7987409830093384
1779997443976227300,1.668227294921875,9.643088340759277,-0.08241800218820572,-1.7809779644012451
1779997443993503500,1.68550341796875,9.648883819580078,-0.09078100323677063,-1.747122049331665
1779997444010780000,1.70277978515625,9.658158302307129,-0.10638699680566788,-1.6895710229873657
1779997444028056000,1.72005615234375,9.672117233276367,-0.12014800310134888,-1.5954749584197998
1779997444045332700,1.737332763671875,9.691228866577148,-0.1318880021572113,-1.4439020156860352
1779997444062609000,1.75460888671875,9.712939262390137,-0.14664599299430847,-1.2214889526367188
1779997444079885300,1.77188525390625,9.733729362487793,-0.15205100178718567,-0.9465069770812988
1779997444097161700,1.78916162109375,9.75265884399414,-0.14265400171279907,-0.6603410243988037
1779997444114438100,1.806438232421875,9.770110130310059,-0.099993996322155,-0.41649600863456726
1779997444131714300,1.82371435546875,9.783867835998535,-0.028641000390052795,-0.2527430057525635
1779997444148990700,1.84099072265625,9.79175853729248,0.0165219996124506,-0.17331500351428986
1779997444166267000,1.858266845703125,9.79226303100586,-0.008798999711871147,-0.161081001162529
1779997444183543300,1.875543212890625,9.790888786315918,0.01500600017607212,-0.19168099761009216
1779997444200819700,1.89281982421875,9.790474891662598,0.061475999653339386,-0.23856200277805328
1779997444218096000,1.91009619140625,9.791290283203125,0.08186200261116028,-0.2667419910430908
1779997444235372500,1.92737255859375,9.79133129119873,0.06458199769258499,-0.26609399914741516
1779997444252648700,1.944648681640625,9.791733741760254,0.02080800011754036,-0.23568299412727356
1779997444269925000,1.961925048828125,9.793760299682617,-0.01296599954366684,-0.19675500690937042
1779997444287201300,1.979201171875,9.795278549194336,-0.003208999987691641,-0.17878000438213348
1779997444304477700,1.996477783203125,9.794684410095215,0.009854000061750412,-0.19047200679779053
1779997444321754000,2.013754150390625,9.792860984802246,-0.011087999679148197,-0.2242940068244934
1779997444339030300,2.0310302734375,9.79224967956543,-0.05562099814414978,-0.26053598523139954
1779997444356306700,2.048306640625,9.792683601379395,-0.06820099800825119,-0.2836189866065979
1779997444373583000,2.0655830078125,9.792744636535645,-0.04713299870491028,-0.28734299540519714
1779997444390859300,2.082859375,9.791733741760254,-0.0038040000945329666,-0.27056801319122314
1779997444408135700,2.1001357421875,9.79098892211914,0.06005600094795227,-0.2395790070295334
1779997444425412000,2.117412109375,9.792664527893066,0.12370000034570694,-0.2088650017976761
1779997444442688300,2.134688232421875,9.79299259185791,0.09233299642801285,-0.19783200323581696
1779997444459964700,2.151964599609375,9.791670799255371,0.0946979969739914,-0.21918900310993195
1779997444477241000,2.169240966796875,9.790369987487793,0.1546960026025772,-0.2656269967556
1779997444494517500,2.186517578125,9.790567398071289,0.1801930069923401,-0.3016580045223236
1779997444511794000,2.2037939453125,9.791036605834961,0.1483130007982254,-0.30531999468803406
1779997444529070300,2.2210703125,9.792223930358887,0.07242400199174881,-0.2776769995689392
1779997444546346500,2.238346435546875,9.794637680053711,-0.000014000000192027073,-0.23873700201511383
1779997444563623000,2.255622802734375,9.795968055725098,-0.010670999996364117,-0.21879400312900543
1779997444580899300,2.2728994140625,9.796271324157715,0.01949400082230568,-0.22281700372695923
1779997444598175700,2.29017578125,9.794973373413086,-0.011017000302672386,-0.24569199979305267
1779997444615452000,2.307451904296875,9.794567108154297,-0.05792500078678131,-0.27228501439094543
1779997444632728300,2.324728271484375,9.794717788696289,-0.08006100356578827,-0.2924819886684418
1779997444650004700,2.342004638671875,9.79482364654541,-0.07881800085306168,-0.2963170111179352
1779997444667281000,2.359281005859375,9.794713020324707,-0.06357300281524658,-0.28176799416542053
1779997444684557300,2.376557373046875,9.795272827148438,-0.03901499882340431,-0.25425198674201965
1779997444701833700,2.393833740234375,9.796854972839355,-0.02546199969947338,-0.2277580052614212
1779997444719110000,2.41110986328125,9.797284126281738,-0.039730001240968704,-0.22007699310779572
1779997444736386300,2.42838623046875,9.796143531799316,-0.025915000587701797,-0.23823699355125427
1779997444753662500,2.445662353515625,9.795146942138672,-0.02788499929010868,-0.26914000511169434
1779997444770939000,2.46293896484375,9.795170783996582,-0.03416699916124344,-0.2948479950428009
1779997444788215300,2.48021533203125,9.795331001281738,-0.021733000874519348,-0.30349698662757874
1779997444805491700,2.49749169921875,9.79488754272461,0.00039000000106170774,-0.2930139899253845
1779997444822768000,2.51476806640625,9.794622421264648,0.035009000450372696,-0.2675980031490326
1779997444840044500,2.53204443359375,9.795784950256348,0.08275800198316574,-0.2405650019645691
1779997444857320700,2.54932080078125,9.796616554260254,0.06976400315761566,-0.22643299400806427
1779997444874597000,2.56659716796875,9.795811653137207,0.06246199831366539,-0.2378229945898056
1779997444891873500,2.58387353515625,9.794506072998047,0.10735099762678146,-0.2733980119228363
1779997444909150000,2.60114990234375,9.794374465942383,0.10544800013303757,-0.3056110143661499
1779997444926426000,2.618426025390625,9.794529914855957,0.0647289976477623,-0.3179149925708771
1779997444943702500,2.63570263671875,9.7951078414917,0.0324690006673336,-0.30800798535346985
1779997444960979000,2.65297900390625,9.79572582244873,0.026677999645471573,-0.28685900568962097
1779997444978255000,2.670255126953125,9.796209335327148,0.060896001756191254,-0.26690998673439026
1779997444995531500,2.687531494140625,9.797280311584473,0.0808589980006218,-0.25408199429512024
1779997445012808000,2.704807861328125,9.79693603515625,0.04958700016140938,-0.25905001163482666
1779997445030084400,2.72208447265625,9.795879364013672,0.0602170005440712,-0.2821969985961914
1779997445047360800,2.73936083984375,9.795734405517578,0.08936700224876404,-0.30801400542259216
1779997445073275100,2.765275146484375,9.79578971862793,0.06332500278949738,-0.319362998008728
1779997445090551600,2.782551513671875,9.796435356140137,0.03700999915599823,-0.30297601222991943
1779997445107828000,2.799827880859375,9.797456741333008,0.027512000873684883,-0.28065401315689087
1779997445125104000,2.817104248046875,9.798402786254883,0.04508500173687935,-0.2647770047187805
1779997445142380500,2.834380615234375,9.798572540283203,0.04016200080513954,-0.2622169852256775
1779997445159657000,2.851656982421875,9.798117637634277,0.028502000495791435,-0.27359500527381897
1779997445176933400,2.868933349609375,9.797584533691406,0.023398999124765396,-0.29426100850105286
1779997445194209800,2.886209716796875,9.797586441040039,0.02741900086402893,-0.3114440143108368
1779997445211486000,2.90348583984375,9.797607421875,0.0348920002579689,-0.315544992685318
1779997445228762400,2.920762451171875,9.797662734985352,0.03700299933552742,-0.3037790060043335
1779997445246038500,2.93803857421875,9.79821491241455,0.042468998581171036,-0.28263500332832336
1779997445263315200,2.955315185546875,9.799251556396484,0.056168001145124435,-0.26381999254226685
1779997445280591400,2.97259130859375,9.799506187438965,0.04768799990415573,-0.2592200040817261
1779997445297867800,2.98986767578125,9.798922538757324,0.047846000641584396,-0.27044999599456787
1779997445315144200,3.007144287109375,9.798341751098633,0.054023001343011856,-0.29141899943351746
1779997445332420400,3.02442041015625,9.798215866088867,0.053220998495817184,-0.3096260130405426
1779997445349696800,3.04169677734375,9.798258781433105,0.050926998257637024,-0.31412801146507263
1779997445366973200,3.05897314453125,9.798480033874512,0.04542199894785881,-0.30258798599243164
1779997445384249600,3.07624951171875,9.79904842376709,0.04602000117301941,-0.2817800045013428
1779997445401526000,3.093526123046875,9.799991607666016,0.05575999990105629,-0.26357200741767883
1779997445418802200,3.11080224609375,9.80033016204834,0.05293300002813339,-0.25805899500846863
1779997445436078600,3.12807861328125,9.799850463867188,0.05197000131011009,-0.2675969898700714
1779997445453354800,3.145354736328125,9.799298286437988,0.057335998862981796,-0.2864300012588501
1779997445470631400,3.16263134765625,9.799124717712402,0.05877700075507164,-0.30253300070762634
1779997445487907600,3.179907470703125,9.79928207397461,0.046525001525878906,-0.3044559955596924
1779997445505184000,3.19718408203125,9.799616813659668,0.02274399995803833,-0.29069700837135315
1779997445522460400,3.21446044921875,9.800097465515137,0.011770999990403652,-0.2711769938468933
1779997445539736600,3.231736572265625,9.800864219665527,0.025475999340415,-0.25455600023269653
1779997445557013000,3.249012939453125,9.801250457763672,0.014805999584496021,-0.24862299859523773
1779997445574289700,3.26628955078125,9.800841331481934,0.020416000857949257,-0.25685200095176697
1779997445591565800,3.28356591796875,9.800350189208984,0.02408199943602085,-0.2720339894294739
1779997445608842200,3.30084228515625,9.800251960754395,0.011607999913394451,-0.2835400104522705
1779997445626118700,3.31811865234375,9.800272941589355,0.0065460000187158585,-0.2860499918460846
1779997445643395000,3.33539501953125,9.800294876098633,0.010227999649941921,-0.2764360010623932
1779997445660671200,3.352671142578125,9.80064868927002,0.010456999763846397,-0.2585740089416504
1779997445677948000,3.369947998046875,9.801355361938477,0.009487000294029713,-0.24161000549793243
1779997445695224000,3.38722412109375,9.801729202270508,0.011965000070631504,-0.2347099930047989
1779997445712500500,3.40450048828125,9.80145263671875,0.010414999909698963,-0.24034899473190308
1779997445729777000,3.42177685546875,9.801019668579102,0.01360899955034256,-0.25366300344467163
1779997445747053000,3.439052978515625,9.800884246826172,0.01311499997973442,-0.26542699337005615
1779997445764329700,3.456329833984375,9.800890922546387,0.011319000273942947,-0.2690410017967224
1779997445781606000,3.47360595703125,9.800902366638184,0.011900000274181366,-0.2612920105457306
1779997445798882300,3.49088232421875,9.801188468933105,0.012227999977767467,-0.24554499983787537
1779997445816158500,3.508158447265625,9.801782608032227,0.011125000193715096,-0.23041699826717377
1779997445833435000,3.525434814453125,9.802092552185059,0.011783000081777573,-0.22444100677967072
1779997445850711300,3.542711181640625,9.801803588867188,0.011258999817073345,-0.23047499358654022
1779997445867987500,3.559987548828125,9.801377296447754,0.01221999991685152,-0.2439649999141693
1779997445885264100,3.57726416015625,9.801241874694824,0.012261000461876392,-0.25620800256729126
1779997445902540300,3.594540283203125,9.801247596740723,0.01143999956548214,-0.26026099920272827
1779997445919816700,3.611816650390625,9.801257133483887,0.011049999855458736,-0.25324898958206177
1779997445937093000,3.629093017578125,9.80151081085205,0.010747999884188175,-0.23863500356674194
1779997445954369500,3.64636962890625,9.802037239074707,0.00953300017863512,-0.22477799654006958
1779997445971646000,3.66364599609375,9.802290916442871,0.009208000265061855,-0.21979400515556335
1779997445988922000,3.680922119140625,9.801973342895508,0.00861200038343668,-0.2264920026063919
1779997446006198500,3.698198486328125,9.801538467407227,0.008551999926567078,-0.24044300615787506
1779997446023475000,3.715474853515625,9.80139446258545,0.008191999979317188,-0.2532239854335785
1779997446040751000,3.732751220703125,9.801400184631348,0.007331000175327063,-0.2577719986438751
1779997446058027800,3.75002783203125,9.801409721374512,0.00674000009894371,-0.2514350116252899
1779997446075304200,3.76730419921875,9.801648139953613,0.006471999920904636,-0.2374899983406067
1779997446092580400,3.784580322265625,9.802145004272461,0.005289999768137932,-0.2241480052471161
1779997446109856800,3.801856689453125,9.802379608154297,0.004947999957948923,-0.2194959968328476
1779997446127133200,3.81913330078125,9.80204963684082,0.0046190000139176846,-0.22645799815654755
1779997446144409600,3.83640966796875,9.801607131958008,0.00483699981123209,-0.24052000045776367
1779997446161686000,3.85368603515625,9.801461219787598,0.004908000119030476,-0.25307899713516235
1779997446178962400,3.87096240234375,9.801462173461914,0.004532999824732542,-0.25702300667762756
1779997446196238600,3.888238525390625,9.801469802856445,0.004503999836742878,-0.24978399276733398
1779997446213515000,3.905514892578125,9.801716804504395,0.004873000085353851,-0.23468799889087677
1779997446230791400,3.92279150390625,9.80224895477295,0.004509999882429838,-0.219992995262146
1779997446248067800,3.94006787109375,9.802555084228516,0.004970000125467777,-0.2137259989976883
1779997446265344300,3.95734423828125,9.802311897277832,0.005270000081509352,-0.218982994556427
1779997446282620400,3.974620361328125,9.80191421508789,0.00597700010985136,-0.23167499899864197
1779997446299896800,3.991896728515625,9.801774978637695,0.006467999890446663,-0.2436469942331314
1779997446317173200,4.00917333984375,9.801777839660645,0.0062939999625086784,-0.2477159947156906
1779997446334449700,4.02644970703125,9.801782608032227,0.006085999775677919,-0.2412949949502945
1779997446351726000,4.04372607421875,9.801997184753418,0.006176999770104885,-0.2273229956626892
1779997446369002500,4.06100244140625,9.802475929260254,0.005299000069499016,-0.21354299783706665
1779997446386279000,4.07827880859375,9.802746772766113,0.00508200004696846,-0.20788100361824036
1779997446403555300,4.095555419921875,9.802485466003418,0.004705999977886677,-0.2135699987411499
1779997446429469700,4.1214697265625,9.80196475982666,0.004705000203102827,-0.233801007270813
1779997446446746000,4.13874609375,9.801924705505371,0.004215999972075224,-0.24336500465869904
1779997446464022300,4.156022216796875,9.801924705505371,0.003478999948129058,-0.24315999448299408
1779997446481298700,4.173298583984375,9.801989555358887,0.0030700000934302807,-0.2330790013074875
1779997446498575400,4.190575439453125,9.802337646484375,0.0024759999942034483,-0.2188130021095276
1779997446515851500,4.2078515625,9.80276107788086,0.0017600000137463212,-0.20867100358009338
1779997446533128000,4.2251279296875,9.802762985229492,0.0016049999976530671,-0.20863699913024902
1779997446550404400,4.242404296875,9.802372932434082,0.0013650000328198075,-0.21855199337005615
1779997446567680800,4.2596806640625,9.802082061767578,0.00152299995534122,-0.23208199441432953
1779997446584957200,4.276957275390625,9.802037239074707,0.0011970000341534615,-0.24132299423217773
1779997446602233600,4.294233642578125,9.802037239074707,0.0006210000137798488,-0.24114899337291718
1779997446619509800,4.311509765625,9.802098274230957,0.00041599999531172216,-0.23142999410629272
1779997446636786200,4.3287861328125,9.802435874938965,0.00003899999865097925,-0.21728500723838806
1779997446654062600,4.3460625,9.802861213684082,-0.00060299999313429,-0.20687399804592133
1779997446671339000,4.363339111328125,9.80289077758789,-0.0006300000241026282,-0.2063090056180954
1779997446688615400,4.380615478515625,9.802526473999023,-0.0007580000092275441,-0.21562999486923218
1779997446705891800,4.397891845703125,9.802244186401367,-0.0004090000002179295,-0.22871799767017365
1779997446731806200,4.42380615234375,9.802200317382812,-0.0006890000076964498,-0.2390349954366684
1779997446749082600,4.44108251953125,9.802203178405762,-0.0009420000133104622,-0.23371000587940216
1779997446766359000,4.458359130859375,9.802382469177246,-0.0010509999701753259,-0.2208009958267212
1779997446783635500,4.475635498046875,9.802802085876465,-0.0017059999518096447,-0.207737997174263
1779997446800912000,4.492911865234375,9.803056716918945,-0.002041999949142337,-0.2020760029554367
1779997446818188300,4.510188232421875,9.802836418151855,-0.002256999956443906,-0.20706099271774292
1779997446835464400,4.52746435546875,9.802453994750977,-0.0022869999520480633,-0.21940700709819794
1779997446852740900,4.544740966796875,9.802291870117188,-0.0024850000627338886,-0.23189100623130798
1779997446870017300,4.562017333984375,9.802288055419922,-0.0031030001118779182,-0.23751200735569
1779997446887293400,4.57929345703125,9.802292823791504,-0.003794000018388033,-0.23330199718475342
1779997446904570000,4.596570068359375,9.802451133728027,-0.004308000206947327,-0.22152400016784668
1779997446921846300,4.61384619140625,9.80284309387207,-0.005286999978125095,-0.2091120034456253
1779997446939122700,4.631122802734375,9.803083419799805,-0.005979999899864197,-0.2037300020456314
1779997446956399000,4.648399169921875,9.802858352661133,-0.006531999912112951,-0.20881299674510956
1779997446973675500,4.665675537109375,9.80246353149414,-0.006862000096589327,-0.221328005194664
1779997446990952000,4.682951904296875,9.802288055419922,-0.007155000232160091,-0.23408600687980652
1779997447008228400,4.700228271484375,9.802279472351074,-0.007860000245273113,-0.2400989979505539
1779997447025504800,4.7175048828125,9.80228328704834,-0.008550000376999378,-0.23629499971866608
1779997447042781200,4.73478125,9.802438735961914,-0.00903099961578846,-0.2247440069913864
1779997447060057300,4.752057373046875,9.80282974243164,-0.0097850002348423,-0.21215400099754333
1779997447077333800,4.769333740234375,9.803091049194336,-0.010257000103592873,-0.20625300705432892
1779997447094610000,4.78660986328125,9.802895545959473,-0.01054999977350235,-0.21066300570964813
1779997447111886600,4.803886474609375,9.802515029907227,-0.010610000230371952,-0.2225950062274933
1779997447129162800,4.821162841796875,9.802331924438477,-0.010761000216007233,-0.23500999808311462
1779997447146439200,4.838439208984375,9.802316665649414,-0.011284999549388885,-0.24106599390506744
1779997447163715600,4.855715576171875,9.802322387695312,-0.011872000060975552,-0.23758399486541748
1779997447180992000,4.872991943359375,9.802469253540039,-0.012431999668478966,-0.22651100158691406
1779997447198268400,4.890268310546875,9.802840232849121,-0.013220000080764294,-0.21440699696540833
1779997447215544600,4.907544677734375,9.803091049194336,-0.013747000135481358,-0.20861899852752686
1779997447232821000,4.924821044921875,9.802911758422852,-0.014042000286281109,-0.21271100640296936
1779997447250097700,4.94209765625,9.802544593811035,-0.014059999957680702,-0.22407400608062744
1779997447267373800,4.959373779296875,9.802359580993652,-0.014069000259041786,-0.23593400418758392
1779997447284650200,4.976650146484375,9.802343368530273,-0.014349999837577343,-0.24160799384117126
1779997447301926700,4.9939267578125,9.802350997924805,-0.01459100004285574,-0.23792199790477753
1779997447319203000,5.011203125,9.802499771118164,-0.014728999696671963,-0.2266629934310913
1779997447336479500,5.0284794921875,9.802876472473145,-0.015262999571859837,-0.21408399939537048
1779997447353756000,5.045755859375,9.803154945373535,-0.015630999580025673,-0.20761699974536896
1779997447371032000,5.063031982421875,9.803004264831543,-0.015856999903917313,-0.21102699637413025
1779997447388308700,5.080308837890625,9.802647590637207,-0.01593800075352192,-0.22197499871253967
1779997447405585200,5.097585205078125,9.802459716796875,-0.01606700010597706,-0.23376399278640747
1779997447422861300,5.114861328125,9.802438735961914,-0.016635999083518982,-0.23977899551391602
1779997447440138000,5.132137939453125,9.802445411682129,-0.017263000831007957,-0.2368369996547699
1779997447457414100,5.1494140625,9.80257797241211,-0.01779399998486042,-0.2265930026769638
1779997447474690600,5.166690673828125,9.802919387817383,-0.01858299970626831,-0.21497799456119537
1779997447491967200,5.18396728515625,9.803171157836914,-0.019235000014305115,-0.20900000631809235
1779997447509243400,5.201243408203125,9.803028106689453,-0.01961899921298027,-0.21229000389575958
1779997447526519800,5.218519775390625,9.802685737609863,-0.019795000553131104,-0.2227489948272705
1779997447543796200,5.235796142578125,9.802499771118164,-0.01992099918425083,-0.23416300117969513
1779997447561072600,5.25307275390625,9.802474021911621,-0.020228000357747078,-0.24001100659370422
1779997447578349000,5.27034912109375,9.802481651306152,-0.020602000877261162,-0.23688100278377533
1779997447595625500,5.28762548828125,9.802617073059082,-0.020868999883532524,-0.22630099952220917
1779997447612901600,5.304901611328125,9.80296802520752,-0.021252000704407692,-0.21418799459934235
1779997447630178300,5.32217822265625,9.803240776062012,-0.021550999954342842,-0.2076379954814911
1779997447647454500,5.339454345703125,9.803118705749512,-0.02161799930036068,-0.21048900485038757
1779997447664731000,5.35673095703125,9.802781105041504,-0.021547000855207443,-0.2207919955253601
1779997447682007600,5.374007568359375,9.80258846282959,-0.021531999111175537,-0.23231099545955658
1779997447699283700,5.39128369140625,9.802559852600098,-0.021824000403285027,-0.23857299983501434
1779997447716560100,5.40856005859375,9.802566528320312,-0.02225399948656559,-0.2361609935760498
1779997447733836800,5.4258369140625,9.802687644958496,-0.022662999108433723,-0.22652700543403625
1779997447751113000,5.443113037109375,9.803006172180176,-0.02327900007367134,-0.2152940034866333
1779997447768389600,5.4603896484375,9.803255081176758,-0.023806000128388405,-0.20922300219535828
1779997447785666000,5.477666015625,9.803133010864258,-0.024098999798297882,-0.2120719999074936
1779997447802942200,5.494942138671875,9.80280590057373,-0.024184999987483025,-0.22203299403190613
1779997447820219000,5.512218994140625,9.802614212036133,-0.02438100054860115,-0.2330400049686432
1779997447837495300,5.529495361328125,9.802583694458008,-0.024833999574184418,-0.2389570027589798
1779997447854771500,5.546771484375,9.802591323852539,-0.025345999747514725,-0.23646199703216553
1779997447872047900,5.5640478515625,9.80271053314209,-0.025882000103592873,-0.22685499489307404
1779997447889324500,5.581324462890625,9.803027153015137,-0.026568999513983727,-0.21557100117206573
1779997447906600700,5.5986005859375,9.803274154663086,-0.02722799964249134,-0.2094630002975464
1779997447923877000,5.615877197265625,9.80315113067627,-0.02774200029671192,-0.212349995970726
1779997447941153500,5.633153564453125,9.802809715270996,-0.028060000389814377,-0.22258399426937103
1779997447958430000,5.650429931640625,9.802602767944336,-0.028328999876976013,-0.23419900238513947
1779997447975706600,5.66770654296875,9.802562713623047,-0.028876999393105507,-0.2408680021762848
1779997447992982800,5.684982666015625,9.802568435668945,-0.029539000242948532,-0.23912400007247925
1779997448010259200,5.70225927734375,9.802680015563965,-0.03018300049006939,-0.23023100197315216
1779997448027536000,5.719535888671875,9.802980422973633,-0.030990999191999435,-0.21940700709819794
1779997448044812000,5.73681201171875,9.80322265625,-0.03176400065422058,-0.2133360058069229
1779997448062088400,5.75408837890625,9.803109169006348,-0.03232099860906601,-0.2159299999475479
1779997448079365000,5.771365234375,9.802778244018555,-0.032770998775959015,-0.22577999532222748
1779997448096641300,5.788641357421875,9.802563667297363,-0.033160001039505005,-0.2372259944677353
1779997448113918000,5.80591796875,9.802515983581543,-0.03376000002026558,-0.24413500726222992
1779997448131194400,5.8231943359375,9.802518844604492,-0.03443099930882454,-0.24289199709892273
1779997448148470800,5.840470703125,9.802627563476562,-0.03504500165581703,-0.23450499773025513
1779997448165747200,5.857747314453125,9.802916526794434,-0.03566199913620949,-0.2240460067987442
1779997448183023600,5.875023681640625,9.8031587600708,-0.036152999848127365,-0.2179650068283081
1779997448200299800,5.8922998046875,9.803068161010742,-0.03631199896335602,-0.22009900212287903
1779997448217576400,5.909576416015625,9.80276107788086,-0.03621099889278412,-0.2291630059480667
1779997448234852900,5.926852783203125,9.802563667297363,-0.0360339991748333,-0.23946000635623932
1779997448252129300,5.94412939453125,9.802522659301758,-0.036006998270750046,-0.24499599635601044
1779997448269405700,5.96140576171875,9.802535057067871,-0.03604099899530411,-0.24240000545978546
1779997448286682000,5.97868212890625,9.802658081054688,-0.03612599894404411,-0.2327820062637329
1779997448303958500,5.99595849609375,9.802974700927734,-0.03635000064969063,-0.2211499959230423
1779997448321235000,6.01323486328125,9.803253173828125,-0.03661999851465225,-0.21406899392604828
1779997448338511400,6.030511474609375,9.803192138671875,-0.03680099919438362,-0.21553899347782135
1779997448355787800,6.047787841796875,9.802888870239258,-0.036963000893592834,-0.2244659960269928
1779997448373064200,6.065064208984375,9.802672386169434,-0.037195999175310135,-0.2354539930820465
1779997448390340600,6.082340576171875,9.802618026733398,-0.037723999470472336,-0.24236799776554108
1779997448407617000,6.099616943359375,9.802620887756348,-0.038391999900341034,-0.24149900674819946
1779997448424893700,6.116893798828125,9.802718162536621,-0.039066001772880554,-0.23359300196170807
1779997448442170000,6.134170166015625,9.802988052368164,-0.039781998842954636,-0.2234250009059906
1779997448459446500,6.151446533203125,9.803229331970215,-0.04039600118994713,-0.217166006565094
1779997448476723000,6.168722900390625,9.803163528442383,-0.04074300080537796,-0.21872000396251678
1779997448502637300,6.19463720703125,9.80274772644043,-0.04086099937558174,-0.23247699439525604
1779997448519914000,6.2119140625,9.802626609802246,-0.040998999029397964,-0.24140100181102753
1779997448537190400,6.2291904296875,9.802610397338867,-0.0412370003759861,-0.24405400454998016
1779997448554466800,6.246466796875,9.802651405334473,-0.04150699824094772,-0.23887500166893005
1779997448571743200,6.2637431640625,9.80284595489502,-0.041818998754024506,-0.22872500121593475
1779997448589019600,6.28101953125,9.80315113067627,-0.04227599874138832,-0.21949300169944763
1779997448606296000,6.298296142578125,9.803271293640137,-0.04256400093436241,-0.21660900115966797
1779997448623572500,6.315572509765625,9.803067207336426,-0.04268300160765648,-0.22179299592971802
1779997448640849000,6.332848876953125,9.802791595458984,-0.04267200082540512,-0.23177200555801392
1779997448658125300,6.350125244140625,9.802664756774902,-0.04278299957513809,-0.2407979965209961
1779997448675402000,6.367402099609375,9.80264663696289,-0.0430309996008873,-0.24381700158119202
1779997448692678400,6.384678466796875,9.802682876586914,-0.04329700022935867,-0.23917900025844574
1779997448709954800,6.401954833984375,9.80286693572998,-0.04355800151824951,-0.22953400015830994
1779997448727231200,6.419231201171875,9.803160667419434,-0.043891001492738724,-0.22052399814128876
1779997448744508000,6.4365078125,9.8032865524292,-0.04401399940252304,-0.21744999289512634
1779997448761784300,6.453784423828125,9.803106307983398,-0.04396999999880791,-0.22210000455379486
1779997448779060700,6.471060791015625,9.802850723266602,-0.043747998774051666,-0.2314170002937317
1779997448796337200,6.488337158203125,9.802730560302734,-0.04374000057578087,-0.2398429960012436
1779997448813613300,6.50561328125,9.802712440490723,-0.04384100064635277,-0.24244999885559082
1779997448830890000,6.522889892578125,9.802750587463379,-0.04407300055027008,-0.2375909984111786
1779997448848166400,6.54016650390625,9.802932739257812,-0.04437499865889549,-0.2278670072555542
1779997448865442800,6.55744287109375,9.803221702575684,-0.044821999967098236,-0.21887099742889404
1779997448882719200,6.57471923828125,9.8033447265625,-0.045152001082897186,-0.21585099399089813
1779997448899995600,6.59199560546875,9.803159713745117,-0.045354001224040985,-0.22061100602149963
1779997448917272000,6.60927197265625,9.80289077758789,-0.04546400159597397,-0.23017099499702454
1779997448934548700,6.626548828125,9.802760124206543,-0.04573500156402588,-0.23906899988651276
1779997448951825200,6.6438251953125,9.802736282348633,-0.04620400071144104,-0.24236400425434113
1779997448969101300,6.661101318359375,9.80276870727539,-0.04669699817895889,-0.23834100365638733
1779997448986378000,6.6783779296875,9.802934646606445,-0.047214001417160034,-0.22936999797821045
1779997449003654700,6.695654541015625,9.803203582763672,-0.04788599908351898,-0.22088399529457092
1779997449020930800,6.712930908203125,9.803314208984375,-0.04843299835920334,-0.21806299686431885
1779997449038207200,6.730207275390625,9.803129196166992,-0.04881500080227852,-0.222788006067276
1779997449055484000,6.74748388671875,9.80285930633545,-0.049031998962163925,-0.23226700723171234
1779997449072760000,6.764760009765625,9.802722930908203,-0.049327000975608826,-0.24108000099658966
1779997449090036700,6.78203662109375,9.80270004272461,-0.049734000116586685,-0.24435900151729584
1779997449107313200,6.799313232421875,9.802732467651367,-0.05020900070667267,-0.24037499725818634
1779997449124589600,6.816589599609375,9.802897453308105,-0.050707001239061356,-0.2314620018005371
1779997449141866000,6.833865966796875,9.803167343139648,-0.051224999129772186,-0.2228589951992035
1779997449159142700,6.851142578125,9.803290367126465,-0.051621999591588974,-0.21976999938488007
1779997449176419000,6.868419189453125,9.803123474121094,-0.051840998232364655,-0.22407400608062744
1779997449193695500,6.885695556640625,9.802865028381348,-0.05194900184869766,-0.23312899470329285
1779997449210972200,6.90297216796875,9.802724838256836,-0.0521869994699955,-0.2417909950017929
1779997449228248300,6.920248291015625,9.802698135375977,-0.05255400016903877,-0.24519699811935425
1779997449245524700,6.937524658203125,9.802729606628418,-0.052995000034570694,-0.24149399995803833
1779997449262801400,6.954801513671875,9.802887916564941,-0.05345600098371506,-0.2328689992427826
1779997449280077800,6.972077880859375,9.803150177001953,-0.054037999361753464,-0.2244029939174652
1779997449297354200,6.989354248046875,9.80327320098877,-0.0544780008494854,-0.22125999629497528
1779997449314630700,7.006630615234375,9.80311393737793,-0.05474799871444702,-0.22537000477313995
1779997449331907000,7.023906982421875,9.80285930633545,-0.05487100034952164,-0.23418599367141724
1779997449349183700,7.041183837890625,9.802720069885254,-0.05505499988794327,-0.24262799322605133
1779997449366460200,7.058460205078125,9.802691459655762,-0.05539799854159355,-0.245961993932724
1779997449383736300,7.075736328125,9.802721977233887,-0.055778998881578445,-0.2423969954252243
1779997449401013000,7.093012939453125,9.802876472473145,-0.05616899952292442,-0.2340109944343567
1779997449418289700,7.11028955078125,9.803133010864258,-0.05659700185060501,-0.22572700679302216
1779997449435566000,7.127566162109375,9.803255081176758,-0.05694999918341637,-0.22258099913597107
1779997449452842500,7.144842529296875,9.803101539611816,-0.057089999318122864,-0.2265630066394806
1779997449470119000,7.162118896484375,9.802850723266602,-0.05709800124168396,-0.23521800339221954
1779997449487395300,7.179395263671875,9.802712440490723,-0.05720100179314613,-0.24356600642204285
1779997449504671700,7.196671630859375,9.802680015563965,-0.05741799995303154,-0.24690300226211548
1779997449521948400,7.213948486328125,9.802712440490723,-0.05768999829888344,-0.2433760017156601
1779997449539224800,7.231224853515625,9.802867889404297,-0.05797199904918671,-0.23494400084018707
1779997449556501200,7.248501220703125,9.803131103515625,-0.05826399847865105,-0.22639000415802002
1779997449573777700,7.265777587890625,9.803272247314453,-0.05850899964570999,-0.22274599969387054
1779997449599692300,7.2916923828125,9.803019523620605,-0.05862899869680405,-0.2299090027809143
1779997449616968700,7.30896875,9.802817344665527,-0.05862699821591377,-0.2386689931154251
1779997449634245400,7.326245361328125,9.802741050720215,-0.05882599949836731,-0.2447880059480667
1779997449651521800,7.343521728515625,9.802740097045898,-0.05916399881243706,-0.24478299915790558
1779997449668798200,7.360798095703125,9.80281925201416,-0.05956299975514412,-0.23866599798202515
1779997449686075000,7.378074951171875,9.803030967712402,-0.059999000281095505,-0.22992099821567535
1779997449703351300,7.395351318359375,9.803247451782227,-0.060447998344898224,-0.22376200556755066
1779997449720627700,7.412627685546875,9.803241729736328,-0.06072299927473068,-0.22386300563812256
1779997449737904000,7.429904052734375,9.803023338317871,-0.060819000005722046,-0.2301820069551468
1779997449755180800,7.447180908203125,9.802821159362793,-0.060809001326560974,-0.23891699314117432
1779997449772457000,7.46445703125,9.802742958068848,-0.06094999983906746,-0.24506999552249908
1779997449789733600,7.481733642578125,9.802738189697266,-0.061170000582933426,-0.24517099559307098
1779997449807010300,7.49901025390625,9.802817344665527,-0.06145999953150749,-0.23913800716400146
1779997449824286700,7.51628662109375,9.803030014038086,-0.061778001487255096,-0.230320006608963
1779997449841563100,7.533563232421875,9.803255081176758,-0.062118999660015106,-0.22390800714492798
1779997449858839600,7.550839599609375,9.803264617919922,-0.06232300028204918,-0.22363799810409546
1779997449876116200,7.5681162109375,9.803060531616211,-0.06240899860858917,-0.22954100370407104
1779997449893392400,7.585392333984375,9.802862167358398,-0.062410999089479446,-0.23797500133514404
1779997449910669000,7.6026689453125,9.802783012390137,-0.0625699982047081,-0.24407100677490234
1779997449927945500,7.619945556640625,9.802779197692871,-0.06285399943590164,-0.24437299370765686
1779997449945222000,7.637221923828125,9.802852630615234,-0.06320899724960327,-0.238769993185997
1779997449962498300,7.654498291015625,9.80305004119873,-0.06359100341796875,-0.23048999905586243
1779997449979775000,7.67177490234375,9.803255081176758,-0.06404100358486176,-0.22451700270175934
1779997449997051100,7.689051025390625,9.803252220153809,-0.06435800343751907,-0.2245039939880371
1779997450014327800,7.706327880859375,9.8030424118042,-0.06454899907112122,-0.23055100440979004
1779997450031604200,7.723604248046875,9.802841186523438,-0.06466300040483475,-0.23907800018787384
1779997450048881000,7.740880859375,9.802755355834961,-0.06489100307226181,-0.24529699981212616
1779997450066157300,7.7581572265625,9.802750587463379,-0.06520300358533859,-0.24574600160121918
1779997450083433700,7.775433837890625,9.802824020385742,-0.06554699689149857,-0.24020099639892578
1779997450100710100,7.792710205078125,9.803023338317871,-0.0658779963850975,-0.23179499804973602
1779997450117986600,7.809986572265625,9.803237915039062,-0.06624600291252136,-0.22550199925899506
1779997450135263200,7.82726318359375,9.803256034851074,-0.06645599752664566,-0.225040003657341
1779997450152539400,7.844539306640625,9.80306339263916,-0.06653100252151489,-0.2306170016527176
1779997450169816000,7.861816162109375,9.802867889404297,-0.06656099855899811,-0.23873500525951385
1779997450187092500,7.879092529296875,9.80278491973877,-0.06673300266265869,-0.24469700455665588
1779997450204369000,7.896368896484375,9.802778244018555,-0.0670270025730133,-0.24512900412082672
1779997450221645600,7.9136455078125,9.802847862243652,-0.06739400327205658,-0.23978200554847717
1779997450238922000,7.930921875,9.803038597106934,-0.06779299676418304,-0.23171700537204742
1779997450256198400,7.948198486328125,9.803238868713379,-0.06822100281715393,-0.22574999928474426
1779997450273474800,7.965474853515625,9.80324935913086,-0.06851200014352798,-0.22546599805355072
1779997450290751500,7.98275146484375,9.803053855895996,-0.06866999715566635,-0.23110699653625488
1779997450308028000,8.00002783203125,9.802854537963867,-0.06876099854707718,-0.239313006401062
1779997450325304300,8.01730419921875,9.802767753601074,-0.06895700097084045,-0.24542400240898132
1779997450342580700,8.034580810546874,9.802760124206543,-0.06923399865627289,-0.2460400015115738
1779997450359857400,8.051857421875,9.802828788757324,-0.06953299790620804,-0.24085499346256256
1779997450377133800,8.0691337890625,9.803018569946289,-0.06980100274085999,-0.23278400301933289
1779997450394410200,8.08641015625,9.803226470947266,-0.07013200223445892,-0.22656799852848053
1779997450411687000,8.10368701171875,9.803252220153809,-0.07029899954795837,-0.22588799893856049
1779997450428963600,8.120963623046874,9.80307388305664,-0.07032699882984161,-0.2310740053653717
1779997450446239700,8.13823974609375,9.802882194519043,-0.07028300315141678,-0.23890799283981323
1779997450463516200,8.15551611328125,9.802796363830566,-0.07036100327968597,-0.24483700096607208
1779997450480792600,8.17279248046875,9.802789688110352,-0.07055900245904922,-0.2454649955034256
1779997450498069200,8.1900693359375,9.8028564453125,-0.07086099684238434,-0.24044300615787506
1779997450515345700,8.207345703125,9.803037643432617,-0.07116600126028061,-0.23265500366687775
1779997450532622000,8.2246220703125,9.803235054016113,-0.0715159997344017,-0.22669200599193573
1779997450549898500,8.2418984375,9.803254127502441,-0.07175400108098984,-0.22613300383090973
1779997450567175200,8.259175048828125,9.80307388305664,-0.07185599952936172,-0.23136399686336517
1779997450584451800,8.276451904296875,9.802877426147461,-0.07191699743270874,-0.23929999768733978
1779997450601728000,8.29372802734375,9.80278491973877,-0.07210099697113037,-0.24547700583934784
1779997450619004400,8.31100439453125,9.80277156829834,-0.07236500084400177,-0.24650800228118896
1779997450636281000,8.328281005859376,9.802835464477539,-0.07268600165843964,-0.24189099669456482
1779997450653557500,8.3455576171875,9.803008079528809,-0.07302500307559967,-0.23435600101947784
1779997450670834000,8.362833984375,9.803204536437988,-0.0734110027551651,-0.22839799523353577
1779997450688110600,8.380110595703124,9.80323314666748,-0.07366199791431427,-0.22760899364948273
1779997450705387000,8.397386962890625,9.803065299987793,-0.07378300279378891,-0.23245899379253387
1779997450722663400,8.414663330078126,9.802877426147461,-0.07382000237703323,-0.2399519979953766
1779997450739940000,8.431940185546875,9.802789688110352,-0.07396700233221054,-0.2457209974527359
1779997450757216500,8.449216552734375,9.802779197692871,-0.07419700175523758,-0.24644500017166138
1779997450774493000,8.466492919921874,9.802845001220703,-0.07449200004339218,-0.24165500700473785
1779997450791769300,8.483769287109375,9.803019523620605,-0.07474800199270248,-0.23402400314807892
1779997450809046000,8.5010458984375,9.803217887878418,-0.07501500099897385,-0.22796599566936493
1779997450826322400,8.518322509765625,9.803254127502441,-0.07514899969100952,-0.22698800265789032
1779997450843598800,8.535598876953125,9.80309772491455,-0.07513599842786789,-0.23158299922943115
1779997450860875500,8.55287548828125,9.8029146194458,-0.07504600286483765,-0.23888100683689117
1779997450878152000,8.57015185546875,9.802826881408691,-0.07504499703645706,-0.2445790022611618
1779997450895428400,8.587428466796876,9.802816390991211,-0.07514599710702896,-0.245387002825737
1779997450912704800,8.604704833984375,9.802882194519043,-0.07530300319194794,-0.24077199399471283
1779997450929981400,8.6219814453125,9.803051948547363,-0.07551799714565277,-0.23326799273490906
1779997450947257900,8.6392578125,9.803245544433594,-0.07580900192260742,-0.22722500562667847
1779997450964534300,8.6565341796875,9.803284645080566,-0.07599899917840958,-0.2261500060558319
1779997450981811000,8.67381103515625,9.803132057189941,-0.07608100026845932,-0.2306250035762787
1779997450999087400,8.69108740234375,9.802948951721191,-0.07614699751138687,-0.23788699507713318
1779997451016363800,8.70836376953125,9.8028564453125,-0.07638200372457504,-0.2437250018119812
1779997451033640200,8.72564013671875,9.802840232849121,-0.07672999799251556,-0.24487900733947754
1779997451050916600,8.74291650390625,9.80289363861084,-0.07718899846076965,-0.24074900150299072
1779997451068193300,8.760193359375,9.803049087524414,-0.0776360034942627,-0.233815997838974
1779997451085469700,8.7774697265625,9.803224563598633,-0.07813899964094162,-0.22826699912548065
1779997451102746000,8.79474609375,9.803250312805176,-0.07854600250720978,-0.22750499844551086
1779997451120022500,8.8120224609375,9.80309009552002,-0.07879800349473953,-0.23213399946689606
1779997451137299200,8.82929931640625,9.802902221679688,-0.07895399630069733,-0.23949499428272247
1779997451154575400,8.846575439453124,9.80280590057373,-0.07920099794864655,-0.24541999399662018
1779997451171852000,8.86385205078125,9.802786827087402,-0.07951600104570389,-0.24661099910736084
1779997451189128400,8.88112841796875,9.802845001220703,-0.07985299825668335,-0.24244199693202972
1779997451206405000,8.898405029296875,9.803006172180176,-0.08014699816703796,-0.2352290004491806
1779997451223681500,8.915681640625,9.80319881439209,-0.08043800294399261,-0.22915199398994446
1779997451240958000,8.9329580078125,9.803252220153809,-0.0805710032582283,-0.22768999636173248
1779997451258234600,8.950234619140625,9.803120613098145,-0.08056200295686722,-0.23156799376010895
1779997451275510800,8.9675107421875,9.802950859069824,-0.08046100288629532,-0.23820799589157104
1779997451292787500,8.984787353515625,9.802863121032715,-0.08043599873781204,-0.24358199536800385
1779997451310064000,9.002064208984375,9.80285358428955,-0.08051300048828125,-0.24445299804210663
1779997451327340500,9.019340576171874,9.802911758422852,-0.08070699870586395,-0.2402079999446869
1779997451344617000,9.036616943359375,9.803068161010742,-0.08095099776983261,-0.23313799500465393
1779997451361893400,9.053893310546876,9.80324935913086,-0.08131200075149536,-0.22728699445724487
1779997451379169800,9.071169677734375,9.803293228149414,-0.08166900277137756,-0.22603799402713776
1779997451396446200,9.0884462890625,9.803152084350586,-0.0818990021944046,-0.23012599349021912
1779997451413723000,9.105722900390624,9.802971839904785,-0.08206000179052353,-0.23709699511528015
1779997451430999600,9.12299951171875,9.802872657775879,-0.0823649987578392,-0.2429630011320114
1779997451448276000,9.14027587890625,9.802852630615234,-0.08276300132274628,-0.24437899887561798
1779997451465552400,9.157552490234375,9.802903175354004,-0.08320800215005875,-0.24060000479221344
1779997451482828800,9.174828857421875,9.80305004119873,-0.08360400050878525,-0.2338699996471405
1779997451500105500,9.19210546875,9.803226470947266,-0.08396899700164795,-0.22809599339962006
1779997451517382000,9.2093818359375,9.803274154663086,-0.08423099666833878,-0.22670100629329681
1779997451534658300,9.226658203125,9.803147315979004,-0.08434499800205231,-0.23043900728225708
1779997451551934700,9.243934814453125,9.802980422973633,-0.08435600250959396,-0.2369070053100586
1779997451569211400,9.26121142578125,9.802889823913574,-0.08439599722623825,-0.24224700033664703
1779997451586487800,9.27848779296875,9.802876472473145,-0.08455800265073776,-0.24331599473953247
1779997451603764200,9.29576416015625,9.802928924560547,-0.08483300358057022,-0.2394530028104782
1779997451621040600,9.31304052734375,9.803071975708008,-0.08518999814987183,-0.23279500007629395
1779997451638317000,9.330317138671875,9.803242683410645,-0.08557499945163727,-0.22715799510478973
1779997451655593700,9.34759375,9.803285598754883,-0.08592599630355835,-0.22589699923992157
1779997451672870100,9.3648701171875,9.80315113067627,-0.08618099987506866,-0.22980399429798126
1779997451690146600,9.382146484375,9.802972793579102,-0.0863799974322319,-0.23662999272346497
1779997451707423200,9.39942333984375,9.802867889404297,-0.08667799830436707,-0.24257099628448486
1779997451724699400,9.416699462890625,9.80284309387207,-0.08703699707984924,-0.24431200325489044
1779997451741976000,9.43397607421875,9.802886962890625,-0.08742400258779526,-0.24100300669670105
1779997451759252700,9.451252685546875,9.803024291992188,-0.08773499727249146,-0.23463599383831024
1779997451776529200,9.468529052734375,9.803197860717773,-0.0879959985613823,-0.2289319932460785
1779997451793805600,9.4858056640625,9.803256034851074,-0.08812099695205688,-0.22725099325180054
1779997451811082000,9.50308203125,9.803147315979004,-0.08812300115823746,-0.23050199449062347
1779997451828358400,9.5203583984375,9.802990913391113,-0.08799900114536285,-0.23653799295425415
1779997451845635000,9.537635009765625,9.80290412902832,-0.08793099969625473,-0.24165399372577667
1779997451862911500,9.554911376953125,9.802888870239258,-0.0879720002412796,-0.2427690029144287
1779997451880188000,9.57218798828125,9.802939414978027,-0.08812099695205688,-0.23910699784755707
1779997451897464300,9.58946435546875,9.803079605102539,-0.08835200220346451,-0.23262199759483337
1779997451914741000,9.606740966796876,9.803248405456543,-0.0886169970035553,-0.2270050048828125
1779997451932017400,9.624017333984375,9.803298950195312,-0.08882399648427963,-0.2255070060491562
1779997451949293800,9.6412939453125,9.803179740905762,-0.088919997215271,-0.22897200286388397
1779997451966570500,9.658570556640624,9.803017616271973,-0.08894400298595428,-0.23528900742530823
1779997451983847000,9.675846923828125,9.8029203414917,-0.08903200179338455,-0.24078300595283508
1779997452001123600,9.69312353515625,9.802901268005371,-0.08919200301170349,-0.24226200580596924
1779997452018399700,9.710399658203125,9.802947044372559,-0.08939400315284729,-0.2388879954814911
1779997452035676400,9.727676513671875,9.803082466125488,-0.08961000293493271,-0.2325270026922226
1779997452052952800,9.744952880859374,9.803252220153809,-0.0898820012807846,-0.22675800323486328
1779997452070229200,9.762229248046875,9.803312301635742,-0.09008000046014786,-0.2249629944562912
1779997452087506000,9.779505859375,9.803208351135254,-0.09018000215291977,-0.22808299958705902
1779997452104782300,9.7967822265625,9.803050994873047,-0.09020999819040298,-0.2340960055589676
1779997452122058500,9.81405859375,9.802956581115723,-0.09029900282621384,-0.23945599794387817
1779997452139335200,9.831335205078124,9.802933692932129,-0.09048700332641602,-0.24099500477313995
1779997452156611800,9.84861181640625,9.802976608276367,-0.09075500071048737,-0.23783600330352783
1779997452173888000,9.865887939453126,9.803101539611816,-0.09106100350618362,-0.23182499408721924
1779997452191164700,9.88316455078125,9.803257942199707,-0.09139099717140198,-0.22646400332450867
1779997452208441000,9.900441162109376,9.80330753326416,-0.09166000038385391,-0.22496099770069122
1779997452225717800,9.9177177734375,9.80319595336914,-0.09181100130081177,-0.22827699780464172
1779997452242994200,9.934994140625,9.803033828735352,-0.09187000244855881,-0.23448599874973297
1779997452260270600,9.9522705078125,9.802932739257812,-0.09200099855661392,-0.24003300070762634
1779997452277547000,9.969547119140625,9.80290699005127,-0.09220000356435776,-0.24178099632263184
1779997452294823700,9.98682373046875,9.802947998046875,-0.09246200323104858,-0.23876699805259705
1779997452312100000,10.00410009765625,9.803074836730957,-0.09268300235271454,-0.23271700739860535
1779997452329376500,10.02137646484375,9.803238868713379,-0.09289199858903885,-0.22707800567150116
1779997452346653000,10.03865283203125,9.803305625915527,-0.09302599728107452,-0.22512799501419067
1779997452363929600,10.0559296875,9.803211212158203,-0.09307300299406052,-0.22794300317764282
1779997452381206000,10.0732060546875,9.803060531616211,-0.09304700046777725,-0.23367099463939667
1779997452398482400,10.090482421875,9.80296516418457,-0.09307699650526047,-0.23890000581741333
1779997452415759000,10.107759033203125,9.802943229675293,-0.09320200234651566,-0.240556001663208
1779997452433035500,10.125035400390624,9.80298137664795,-0.09343399852514267,-0.23764100670814514
1779997452450312000,10.14231201171875,9.803101539611816,-0.09373799711465836,-0.2317730039358139
1779997452467588400,10.15958837890625,9.80325698852539,-0.0940760001540184,-0.22633099555969238
1779997452484865000,10.176864990234375,9.80331802368164,-0.09436199814081192,-0.22449499368667603
1779997452502141400,10.194141357421875,9.803221702575684,-0.09455499798059464,-0.22736500203609467
1779997452519417900,10.21141796875,9.80306625366211,-0.09466999769210815,-0.23320500552654266
1779997452536694500,10.228694580078125,9.802963256835938,-0.09484799951314926,-0.2386540025472641
1779997452553971000,10.245970947265626,9.802935600280762,-0.09509100019931793,-0.24056200683116913
1779997452571247600,10.26324755859375,9.802971839904785,-0.09535499662160873,-0.23791900277137756
1779997452588523800,10.280523681640625,9.80308723449707,-0.09558600187301636,-0.2322770059108734
1779997452605800400,10.297800537109374,9.803239822387695,-0.09581799805164337,-0.2268739938735962
1779997452623076900,10.315076904296875,9.803305625915527,-0.09596700221300125,-0.22491499781608582
1779997452640353300,10.332353271484376,9.80321979522705,-0.09599500149488449,-0.22752100229263306
1779997452657630000,10.3496298828125,9.803074836730957,-0.09594099968671799,-0.23300400376319885
1779997452674906400,10.36690625,9.802979469299316,-0.0959239974617958,-0.23810400068759918
1779997452692182800,10.384182861328124,9.802956581115723,-0.09599599987268448,-0.23984099924564362
1779997452709459200,10.401459228515625,9.802992820739746,-0.09619099646806717,-0.23715199530124664
1779997452726736000,10.41873583984375,9.803105354309082,-0.09641499817371368,-0.23154999315738678
1779997452744012000,10.436011962890625,9.803256034851074,-0.09664600342512131,-0.22622300684452057
1779997452761288700,10.453288818359376,9.80332088470459,-0.09682200103998184,-0.22428399324417114
1779997452778565400,10.4705654296875,9.803235054016113,-0.0969109982252121,-0.22686800360679626
1779997452795841800,10.487841796875,9.80308723449707,-0.09691700339317322,-0.23240399360656738
1779997452813118200,10.5051181640625,9.802989959716797,-0.09700000286102295,-0.23763099312782288
1779997452830394600,10.52239453125,9.802961349487305,-0.0971129983663559,-0.2395009994506836
1779997452847671000,10.539671142578126,9.802996635437012,-0.09728799760341644,-0.23692399263381958
1779997452864947500,10.556947509765624,9.803109169006348,-0.09749200195074081,-0.23134200274944305
1779997452882224000,10.57422412109375,9.803261756896973,-0.0976869985461235,-0.2259110063314438
1779997452899500500,10.59150048828125,9.803333282470703,-0.0978119969367981,-0.22372299432754517
1779997452916777200,10.608777099609375,9.803261756896973,-0.09783200174570084,-0.22594000399112701
1779997452934053600,10.6260537109375,9.80312442779541,-0.09775400161743164,-0.23111599683761597
1779997452951330000,10.643330078125,9.803028106689453,-0.09772899746894836,-0.23614400625228882
1779997452968606500,10.6606064453125,9.80300235748291,-0.09779299795627594,-0.23804600536823273
1779997452985883000,10.6778828125,9.803034782409668,-0.0979359969496727,-0.2356880009174347
1779997453003159600,10.69515966796875,9.803140640258789,-0.09811899811029434,-0.2303680032491684
1779997453020436000,10.71243603515625,9.803284645080566,-0.09835100173950195,-0.2251179963350296
1779997453037712400,10.72971240234375,9.803353309631348,-0.09853699803352356,-0.22303399443626404
1779997453054989000,10.746989013671875,9.803277015686035,-0.09863899648189545,-0.22534599900245667
1779997453072265500,10.764265380859374,9.803136825561523,-0.09866300225257874,-0.23060299456119537
1779997453089542000,10.7815419921875,9.8030366897583,-0.09872999787330627,-0.23576900362968445
1779997453106818300,10.798818359375,9.803006172180176,-0.09886199980974197,-0.2378620058298111
1779997453124095000,10.816094970703125,9.803034782409668,-0.09905499964952469,-0.23573799431324005
1779997453141371400,10.833371337890625,9.803135871887207,-0.09928400069475174,-0.23060700297355652
1779997453158647800,10.850647705078124,9.803277015686035,-0.09954000264406204,-0.22543300688266754
1779997453175924500,10.867924560546875,9.803345680236816,-0.09973599761724472,-0.22328099608421326
1779997453193201000,10.885200927734376,9.803277969360352,-0.09982699900865555,-0.22536799311637878
1779997453210477300,10.902477294921875,9.803144454956055,-0.09985999763011932,-0.23035399615764618
1779997453227753700,10.919753662109375,9.803048133850098,-0.09992100298404694,-0.23528799414634705
1779997453245030400,10.937030517578124,9.803019523620605,-0.10006999969482422,-0.23722299933433533
1779997453262306800,10.954306884765625,9.803048133850098,-0.1002969965338707,-0.2350659966468811
1779997453279583200,10.971583251953126,9.803147315979004,-0.10053399950265884,-0.23005400598049164
1779997453296859600,10.988859619140625,9.803282737731934,-0.10079900175333023,-0.2250239998102188
1779997453314136000,11.006135986328125,9.803343772888184,-0.10107199847698212,-0.22303399443626404
1779997453331412700,11.023412841796874,9.80327033996582,-0.10125400125980377,-0.22526699304580688
1779997453348689200,11.040689208984375,9.803131103515625,-0.10134399682283401,-0.23042699694633484
1779997453365965600,11.057965576171876,9.803030014038086,-0.10145299881696701,-0.23555000126361847
1779997453383242200,11.0752421875,9.802997589111328,-0.10158000141382217,-0.23761099576950073
1779997453400518700,11.0925185546875,9.803027153015137,-0.1017640009522438,-0.23548799753189087
1779997453417795000,11.109795166015624,9.803128242492676,-0.10191299766302109,-0.23031899333000183
1779997453435071700,11.12707177734375,9.803275108337402,-0.10203699767589569,-0.2248699963092804
1779997453460986400,11.152986328125,9.803350448608398,-0.10210199654102325,-0.22255399823188782
1779997453478262800,11.1702626953125,9.80324935913086,-0.10205599665641785,-0.22593000531196594
1779997453495539200,11.187539306640625,9.803130149841309,-0.10202399641275406,-0.23105299472808838
1779997453512815900,11.20481591796875,9.803064346313477,-0.10212799906730652,-0.23489299416542053
1779997453530092300,11.22209228515625,9.803060531616211,-0.10229600220918655,-0.2351199984550476
1779997453547368700,11.23936865234375,9.803116798400879,-0.10255300253629684,-0.23161399364471436
1779997453564645400,11.256645263671874,9.803236961364746,-0.10284499824047089,-0.22637400031089783
1779997453581921800,11.273921875,9.803348541259766,-0.10309799760580063,-0.22247900068759918
1779997453599198200,11.2911982421875,9.803357124328613,-0.1032710000872612,-0.22220100462436676
1779997453616474600,11.308474609375,9.803253173828125,-0.10332900285720825,-0.22564899921417236
1779997453633751300,11.325751220703125,9.803133010864258,-0.10334199666976929,-0.23072700202465057
1779997453651027700,11.34302783203125,9.803071975708008,-0.1034030020236969,-0.2344059944152832
1779997453668304100,11.36030419921875,9.803069114685059,-0.10351700335741043,-0.2345000058412552
1779997453685580500,11.37758056640625,9.80312728881836,-0.10366799682378769,-0.2309260070323944
1779997453702857000,11.39485693359375,9.80324935913086,-0.10382699966430664,-0.2256219983100891
1779997453720133600,11.412133544921875,9.803365707397461,-0.10396900027990341,-0.22164399921894073
1779997453737410000,11.42941015625,9.803378105163574,-0.1040240004658699,-0.22122900187969208
1779997453754686500,11.4466865234375,9.8032808303833,-0.10396800190210342,-0.22450000047683716
1779997453771963000,11.463962890625,9.803166389465332,-0.10385099798440933,-0.22945499420166016
1779997453789239600,11.481239501953125,9.803105354309082,-0.10378000140190125,-0.23310600221157074
1779997453806516000,11.498515869140626,9.80310344696045,-0.10377799719572067,-0.2332340031862259
1779997453823792400,11.51579248046875,9.80316162109375,-0.1038220003247261,-0.22972099483013153
1779997453841069000,11.533069091796875,9.8032808303833,-0.10390199720859528,-0.22440099716186523
1779997453858345200,11.55034521484375,9.803400039672852,-0.1039540022611618,-0.22034400701522827
1779997453875622000,11.567621826171875,9.80341625213623,-0.10398600250482559,-0.21984800696372986
1779997453892898600,11.584898681640626,9.803318977355957,-0.10395299643278122,-0.22310400009155273
1779997453910174700,11.6021748046875,9.803202629089355,-0.1039080023765564,-0.22814799845218658
1779997453927451400,11.619451416015625,9.80313491821289,-0.10395000129938126,-0.2320449948310852
1779997453944727800,11.636727783203124,9.80312728881836,-0.10403700172901154,-0.23249700665473938
1779997453962004200,11.654004150390625,9.803177833557129,-0.10418199747800827,-0.22928200662136078
1779997453979281000,11.671281005859376,9.80329418182373,-0.1043500006198883,-0.22412699460983276
1779997453996557300,11.688557373046875,9.803410530090332,-0.10449399799108505,-0.21999900043010712
1779997454013833700,11.705833740234375,9.803434371948242,-0.1045600026845932,-0.21925100684165955
1779997454031110400,11.7231103515625,9.803348541259766,-0.10455399751663208,-0.22216199338436127
1779997454048386800,11.74038671875,9.803238868713379,-0.10451599955558777,-0.22687600553035736
1779997454065663200,11.757663330078126,9.80317497253418,-0.10453800112009048,-0.23055399954319
1779997454082940000,11.77493994140625,9.803168296813965,-0.10466200113296509,-0.23097600042819977
1779997454100216000,11.792216064453125,9.803215980529785,-0.10486099869012833,-0.2279209941625595
1779997454117492700,11.80949267578125,9.803319931030273,-0.10508999973535538,-0.22312399744987488
1779997454134769200,11.82676904296875,9.803421974182129,-0.10533499717712402,-0.21943999826908112
1779997454152045600,11.844045654296876,9.80343246459961,-0.10552600026130676,-0.21907399594783783
1779997454169322200,11.861322265625,9.803336143493652,-0.10561800003051758,-0.2222840040922165
1779997454186598700,11.8785986328125,9.803218841552734,-0.10571499913930893,-0.22721700370311737
1779997454203875000,11.895875,9.803150177001953,-0.10586199909448624,-0.23107300698757172
1779997454221151500,11.9131513671875,9.803140640258789,-0.10603799670934677,-0.2316560000181198
1779997454238428200,11.93042822265625,9.803187370300293,-0.10627199709415436,-0.22868800163269043
1779997454255704600,11.94770458984375,9.803292274475098,-0.1065400019288063,-0.22383800148963928
1779997454272981000,11.96498095703125,9.803400039672852,-0.10676400363445282,-0.21997199952602386
1779997454290257700,11.982257568359374,9.803420066833496,-0.10689599812030792,-0.219308003783226
1779997454307534000,11.9995341796875,9.803333282470703,-0.1069369986653328,-0.22216999530792236
1779997454324810500,12.016810546875,9.803221702575684,-0.10691600292921066,-0.22687800228595734
1779997454342087000,12.0340869140625,9.803156852722168,-0.10693000257015228,-0.23065100610256195
1779997454359363300,12.05136328125,9.803145408630371,-0.10702600330114365,-0.23128899931907654
1779997454376640000,12.068639892578124,9.803191184997559,-0.10715500265359879,-0.22846199572086334
1779997454393916400,12.08591650390625,9.803293228149414,-0.10725600272417068,-0.22377300262451172
1779997454411192800,12.10319287109375,9.803399085998535,-0.10735400021076202,-0.21999000012874603
1779997454428469200,12.12046923828125,9.80341911315918,-0.10739599913358688,-0.21937400102615356
1779997454445746000,12.137745849609376,9.803333282470703,-0.10732900351285934,-0.22227400541305542
1779997454463022300,12.155022216796874,9.803221702575684,-0.10725200176239014,-0.22699600458145142
1779997454480298800,12.172298828125,9.803152084350586,-0.10718899965286255,-0.23082199692726135
1779997454497575400,12.189575439453124,9.803144454956055,-0.10716500133275986,-0.23151999711990356
1779997454514851800,12.206851806640625,9.803190231323242,-0.1071930006146431,-0.22868399322032928
1779997454532128300,12.224128173828126,9.803296089172363,-0.10724899917840958,-0.22380399703979492
1779997454549404700,12.24140478515625,9.803412437438965,-0.10726000368595123,-0.21965299546718597
1779997454566681300,12.258681396484375,9.803447723388672,-0.10723800212144852,-0.21856600046157837
1779997454583957800,12.275957763671874,9.803377151489258,-0.10712900012731552,-0.22101299464702606
1779997454601234200,12.293234130859375,9.803274154663086,-0.10699599981307983,-0.22535400092601776
1779997454618510600,12.310510498046876,9.803210258483887,-0.10694699734449387,-0.22892700135707855
1779997454635787300,12.327787353515625,9.803201675415039,-0.10696599632501602,-0.22955100238323212
1779997454653064000,12.34506396484375,9.803243637084961,-0.10706599801778793,-0.22683300077915192
1779997454670340000,12.362340087890624,9.803342819213867,-0.10721799731254578,-0.22220000624656677
1779997454687616800,12.37961669921875,9.803448677062988,-0.10736200213432312,-0.21832600235939026
1779997454704893200,12.39689306640625,9.803476333618164,-0.10747499763965607,-0.21741099655628204
1779997454722169600,12.414169677734375,9.803400993347168,-0.10752200335264206,-0.2199449986219406
1779997454739446300,12.4314462890625,9.803293228149414,-0.10751699656248093,-0.22445200383663177
1779997454756722700,12.44872265625,9.803223609924316,-0.107573002576828,-0.22825199365615845
1779997454773999400,12.465999267578125,9.803210258483887,-0.10768499970436096,-0.22905400395393372
1779997454791275800,12.48327587890625,9.803250312805176,-0.10785400122404099,-0.22651399672031403
1779997454808552200,12.50055224609375,9.803343772888184,-0.10810399800539017,-0.2220350056886673
1779997454825828600,12.51782861328125,9.803445816040039,-0.10830999910831451,-0.21823999285697937
1779997454843105000,12.53510498046875,9.803473472595215,-0.10844100266695023,-0.2173140048980713
1779997454860381400,12.55238134765625,9.8034029006958,-0.10847499966621399,-0.21968400478363037
1779997454877658000,12.569658203125,9.803300857543945,-0.10842599719762802,-0.22391200065612793
1779997454894934500,12.5869345703125,9.80323600769043,-0.10838700085878372,-0.22748200595378876
1779997454912211000,12.6042109375,9.803226470947266,-0.10839899629354477,-0.2281319946050644
1779997454929487600,12.621487548828124,9.803269386291504,-0.10845600068569183,-0.22547699511051178
1779997454946763800,12.638763671875,9.803366661071777,-0.10851900279521942,-0.22082899510860443
1779997454964040400,12.65604052734375,9.80347728729248,-0.10859499871730804,-0.2167849987745285
1779997454981316900,12.67331689453125,9.803511619567871,-0.10863199830055237,-0.2156440019607544
1779997454998593300,12.69059326171875,9.80344295501709,-0.10863099992275238,-0.21793599426746368
1779997455015869700,12.70786962890625,9.803339958190918,-0.1086219996213913,-0.22223499417304993
1779997455033146400,12.725146484375,9.80327033996582,-0.10866600275039673,-0.22609500586986542
1779997455050422800,12.7424228515625,9.803253173828125,-0.10874900221824646,-0.22721099853515625
1779997455067699200,12.75969921875,9.803288459777832,-0.10886599868535995,-0.22500799596309662
1779997455084975900,12.776975830078126,9.803375244140625,-0.10900399833917618,-0.22072799503803253
1779997455102252000,12.794251953125,9.803479194641113,-0.10910999774932861,-0.21686099469661713
1779997455119528700,12.81152880859375,9.803513526916504,-0.10914800316095352,-0.2156520038843155
1779997455136805000,12.82880517578125,9.80345630645752,-0.10907600075006485,-0.21767400205135345
1779997455154081500,12.84608154296875,9.803361892700195,-0.10895399749279022,-0.2216310054063797
1779997455171358200,12.863358154296876,9.803300857543945,-0.10884000360965729,-0.22506800293922424
1779997455188634600,12.880634521484374,9.803289413452148,-0.10880199819803238,-0.22579899430274963
1779997455205911300,12.897911376953125,9.803329467773438,-0.10881999880075455,-0.2233469933271408
1779997455223187500,12.9151875,9.803421020507812,-0.10887400060892105,-0.21891699731349945
1779997455240464100,12.932464111328125,9.8035249710083,-0.10894100368022919,-0.21498699486255646
1779997455257740500,12.949740478515626,9.803559303283691,-0.1089939996600151,-0.21379700303077698
1779997455275017000,12.967016845703125,9.803498268127441,-0.10898999869823456,-0.21591700613498688
1779997455292293400,12.98429345703125,9.803399085998535,-0.10898199677467346,-0.22004400193691254
1779997455309570000,13.001570068359374,9.803327560424805,-0.10901299864053726,-0.22385099530220032
1779997455326846500,13.018846435546875,9.803309440612793,-0.10910599678754807,-0.2250330001115799
1779997455344123000,13.036122802734376,9.803340911865234,-0.10925400257110596,-0.22304700314998627
1779997455361399300,13.0533994140625,9.803421020507812,-0.10943999886512756,-0.21900899708271027
1779997455378676000,13.070676025390625,9.803518295288086,-0.1095609962940216,-0.2152629941701889
1779997455395952400,13.087952392578124,9.80355453491211,-0.1096389964222908,-0.21404099464416504
1779997455413228800,13.105228759765625,9.803497314453125,-0.10965699702501297,-0.2159850001335144
1779997455430505200,13.122505126953126,9.8034029006958,-0.10962799936532974,-0.2198919951915741
1779997455447781600,13.13978173828125,9.803338050842285,-0.1096619963645935,-0.22343899309635162
1779997455465058000,13.15705810546875,9.803319931030273,-0.10972700268030167,-0.22448299825191498
1779997455482334700,13.174334716796874,9.803351402282715,-0.10984800010919571,-0.2224320024251938
1779997455499611100,13.191611083984375,9.803433418273926,-0.10999900102615356,-0.21839499473571777
1779997455516887800,13.2088876953125,9.803529739379883,-0.11011499911546707,-0.21464300155639648
1779997455534164000,13.2261640625,9.803568840026855,-0.11018499732017517,-0.21331900358200073
1779997455551440600,13.243440673828125,9.80351734161377,-0.1101749986410141,-0.21507400274276733
1779997455568717000,13.260717041015624,9.80342960357666,-0.1101130023598671,-0.21879200637340546
1779997455585993700,13.27799365234375,9.803365707397461,-0.1100820004940033,-0.2221979945898056
1779997455603270000,13.295269775390626,9.803350448608398,-0.11010800302028656,-0.22315600514411926
1779997455620546600,13.312546630859375,9.803383827209473,-0.11018200218677521,-0.22109900414943695
1779997455637823200,13.3298232421875,9.80346393585205,-0.11032400280237198,-0.21705299615859985
1779997455655099600,13.347099609375,9.803559303283691,-0.11046499758958817,-0.21331000328063965
1779997455672376000,13.3643759765625,9.803593635559082,-0.11057399958372116,-0.21206699311733246
1779997455689652700,13.38165283203125,9.80354118347168,-0.11062200367450714,-0.2139350026845932
1779997455706929200,13.39892919921875,9.80344295501709,-0.11061500012874603,-0.21787600219249725
1779997455724205600,13.41620556640625,9.803374290466309,-0.11063899844884872,-0.22165599465370178
1779997455741482000,13.43348193359375,9.803353309631348,-0.11068999767303467,-0.22304899990558624
1779997455758758700,13.450758544921875,9.80337905883789,-0.11075200140476227,-0.22134999930858612
1779997455784673000,13.476673095703125,9.803505897521973,-0.11090599745512009,-0.21548199653625488
1779997455801949700,13.49394970703125,9.803583145141602,-0.1109360009431839,-0.21264199912548065
1779997455819226400,13.511226318359375,9.803582191467285,-0.11090099811553955,-0.2126920074224472
1779997455836502500,13.52850244140625,9.803510665893555,-0.11077500134706497,-0.2154339998960495
1779997455853779200,13.545779296875,9.80343246459961,-0.11064500361680984,-0.21916399896144867
1779997455871055600,13.5630556640625,9.80339241027832,-0.11055400222539902,-0.22156700491905212
1779997455888332000,13.58033203125,9.803400039672852,-0.11054400354623795,-0.22112800180912018
1779997455905608700,13.597608642578125,9.803451538085938,-0.11058799922466278,-0.21806800365447998
1779997455922885000,13.614885009765626,9.803543090820312,-0.11068099737167358,-0.2140350043773651
1779997455940161500,13.63216162109375,9.803614616394043,-0.11079999804496765,-0.21138499677181244
1779997455957438000,13.64943798828125,9.803606986999512,-0.11086300015449524,-0.21163499355316162
1779997455974714400,13.66671435546875,9.80352783203125,-0.11087899655103683,-0.2146099954843521
1779997455991991000,13.683990966796875,9.803441047668457,-0.11091800034046173,-0.218626007437706
1779997456009267500,13.701267333984376,9.80339241027832,-0.11102800071239471,-0.22139999270439148
1779997456026543900,13.7185439453125,9.803394317626953,-0.11118099838495255,-0.22124899923801422
1779997456043820500,13.735820556640626,9.803442001342773,-0.1113630011677742,-0.21839700639247894
1779997456061097000,13.753096923828124,9.8035306930542,-0.11152999848127365,-0.21438799798488617
1779997456078373400,13.770373291015625,9.803606033325195,-0.1116660013794899,-0.21157999336719513
1779997456095649800,13.78764990234375,9.803605079650879,-0.11175599694252014,-0.21155300736427307
1779997456112926200,13.80492626953125,9.803535461425781,-0.11176200211048126,-0.21419399976730347
1779997456130203000,13.822202880859376,9.803455352783203,-0.1117589995265007,-0.21789799630641937
1779997456147479300,13.839479248046874,9.803409576416016,-0.11174900084733963,-0.2205059975385666
1779997456164755700,13.856755615234375,9.803410530090332,-0.1117900013923645,-0.22039400041103363
1779997456182032100,13.8740322265625,9.803457260131836,-0.11185900121927261,-0.21767500042915344
1779997456199308800,13.891308837890625,9.803543090820312,-0.11194799840450287,-0.21381999552249908
1779997456216585000,13.9085849609375,9.80361557006836,-0.11201199889183044,-0.21110700070858002
1779997456233861600,13.925861572265624,9.803618431091309,-0.11201100051403046,-0.21106800436973572
1779997456251138000,13.943137939453125,9.803549766540527,-0.11196199804544449,-0.21363599598407745
1779997456268414500,13.96041455078125,9.803471565246582,-0.11189699918031693,-0.2172970026731491
1779997456285691100,13.977691162109375,9.803427696228027,-0.1118990033864975,-0.2198520004749298
1779997456302967600,13.994967529296876,9.803430557250977,-0.11195199936628342,-0.2196429967880249
1779997456320244200,14.012244140625,9.80347728729248,-0.11203499883413315,-0.21686099469661713
1779997456337520400,14.029520263671875,9.80356216430664,-0.11213000118732452,-0.2129410058259964
1779997456354797000,14.046797119140624,9.80363655090332,-0.11222200095653534,-0.2101210057735443
1779997456372073500,14.064073486328125,9.80363941192627,-0.1122720018029213,-0.2099989950656891
1779997456389350100,14.08135009765625,9.803574562072754,-0.11225699633359909,-0.21249200403690338
1779997456406626600,14.09862646484375,9.803496360778809,-0.11227700114250183,-0.21611300110816956
1779997456423903000,14.115903076171875,9.803448677062988,-0.11232399940490723,-0.21885600686073303
1779997456441179100,14.13317919921875,9.803444862365723,-0.11240500211715698,-0.21906399726867676
1779997456458455800,14.150455810546875,9.803483963012695,-0.1125129982829094,-0.21668100357055664
1779997456475732200,14.167732177734376,9.80356216430664,-0.11259999871253967,-0.2130800038576126
1779997456493008600,14.185008544921875,9.803632736206055,-0.11267600208520889,-0.21038800477981567
1779997456510285300,14.202285400390625,9.803638458251953,-0.11269500106573105,-0.210207000374794
1779997456527561700,14.219561767578124,9.80357837677002,-0.11262500286102295,-0.2125370055437088
1779997456544838100,14.236838134765625,9.803505897521973,-0.11250200122594833,-0.21595700085163116
1779997456562114600,14.254114501953126,9.80346393585205,-0.1124270036816597,-0.2183530032634735
1779997456579391000,14.271390869140625,9.803467750549316,-0.1124190017580986,-0.21818800270557404
1779997456596667400,14.28866748046875,9.803512573242188,-0.11246500164270401,-0.21550099551677704
1779997456613944000,14.305944091796874,9.803594589233398,-0.11253199726343155,-0.21166500449180603
1779997456631220700,14.323220703125,9.803670883178711,-0.11252900213003159,-0.20877599716186523
1779997456648497200,14.3404970703125,9.80368423461914,-0.11244399845600128,-0.2083750069141388
1779997456665773600,14.357773681640625,9.803629875183105,-0.11232099682092667,-0.21048299968242645
1779997456683050000,14.375050048828125,9.80356216430664,-0.11219500005245209,-0.21368500590324402
1779997456700326700,14.39232666015625,9.803524017333984,-0.11211699992418289,-0.2160090059041977
1779997456717603000,14.40960302734375,9.8035249710083,-0.11211399734020233,-0.2159779965877533
1779997456734879500,14.42687939453125,9.803564071655273,-0.11218199878931046,-0.21354299783706665
1779997456752156200,14.44415625,9.80363655090332,-0.1123030036687851,-0.21012499928474426
1779997456769432600,14.4614326171875,9.803694725036621,-0.11252500116825104,-0.2078000009059906
1779997456786709000,14.478708984375,9.80368423461914,-0.11276199668645859,-0.2080409973859787
1779997456803985400,14.4959853515625,9.803608894348145,-0.11296399682760239,-0.21084100008010864
1779997456821261800,14.51326171875,9.803521156311035,-0.11319500207901001,-0.21478000283241272
1779997456838538200,14.530538330078125,9.803467750549316,-0.11347799748182297,-0.2177090048789978
1779997456855815000,14.54781494140625,9.803458213806152,-0.11381199955940247,-0.21808800101280212
1779997456873091300,14.56509130859375,9.803492546081543,-0.11416999995708466,-0.21582099795341492
1779997456890367700,14.58236767578125,9.80356502532959,-0.11451700329780579,-0.21225400269031525
1779997456907644400,14.59964453125,9.803631782531738,-0.1147719994187355,-0.20958900451660156
1779997456924920600,14.616920654296875,9.803635597229004,-0.11496099829673767,-0.20938099920749664
1779997456942197200,14.634197265625,9.803574562072754,-0.11505500227212906,-0.21164099872112274
1779997456959473700,14.6514736328125,9.803498268127441,-0.11510500311851501,-0.21507400274276733
1779997456976750000,14.66875,9.803451538085938,-0.11514099687337875,-0.21766099333763123
1779997456994026500,14.686026611328124,9.803450584411621,-0.11520600318908691,-0.21780399978160858
1779997457011303200,14.70330322265625,9.803491592407227,-0.11526399850845337,-0.21533699333667755
1779997457028579600,14.72057958984375,9.803571701049805,-0.1153160035610199,-0.211558997631073
1779997457045856000,14.73785595703125,9.80364990234375,-0.11535300314426422,-0.20853500068187714
1779997457063132700,14.755132568359375,9.803667068481445,-0.11534299701452255,-0.20789499580860138
1779997457080409000,14.7724091796875,9.803621292114258,-0.1152459979057312,-0.20975199341773987
1779997457097685200,14.789685302734375,9.80355453491211,-0.11511100083589554,-0.21282699704170227
1779997457114962000,14.8069619140625,9.803513526916504,-0.11498499661684036,-0.21513600647449493
1779997457132238600,14.824238525390625,9.803515434265137,-0.11488199979066849,-0.21521900594234467
1779997457149515000,14.841514892578125,9.803556442260742,-0.11480499804019928,-0.21280500292778015
1779997457166791400,14.85879150390625,9.803634643554688,-0.1147259995341301,-0.20909200608730316
1779997457184067800,14.87606787109375,9.80371379852295,-0.1146010011434555,-0.2060839980840683
1779997457201344500,14.893344482421876,9.803732872009277,-0.11448399722576141,-0.20541200041770935
1779997457218620700,14.91062060546875,9.80368709564209,-0.11431500315666199,-0.20722800493240356
1779997457235897300,14.9278974609375,9.803622245788574,-0.11419299989938736,-0.21033400297164917
1779997457253173800,14.945173828125,9.803579330444336,-0.11408399790525436,-0.2128320038318634
1779997457270450200,14.9624501953125,9.803573608398438,-0.11405900120735168,-0.2131890058517456
1779997457287726600,14.9797265625,9.803607940673828,-0.11410900205373764,-0.21114400029182434
1779997457305003300,14.997003173828125,9.80367660522461,-0.11417199671268463,-0.20784099400043488
1779997457322279700,15.01427978515625,9.803742408752441,-0.11423700302839279,-0.20516499876976013
1779997457339556000,15.03155615234375,9.803756713867188,-0.11423400044441223,-0.20470499992370605
1779997457356832800,15.048832763671875,9.80370807647705,-0.11417099833488464,-0.20660300552845
1779997457374109200,15.066109130859376,9.803643226623535,-0.11406899988651276,-0.20966200530529022
1779997457391385600,15.083385498046875,9.80360221862793,-0.11399800330400467,-0.21203899383544922
1779997457408662000,15.100662109375,9.80359935760498,-0.11392500251531601,-0.2122800052165985
1779997457425938700,15.117938720703124,9.803635597229004,-0.11386799812316895,-0.21007399260997772
1779997457443215000,15.135215087890625,9.80370807647705,-0.11381100118160248,-0.20660699903964996
1779997457460491500,15.152491455078126,9.803778648376465,-0.11375299841165543,-0.20381100475788116
1779997457477768200,15.169768310546875,9.803793907165527,-0.11366099864244461,-0.2032410055398941
1779997457495044400,15.18704443359375,9.803746223449707,-0.11353400349617004,-0.20516499876976013
1779997457512321000,15.204321044921874,9.803679466247559,-0.11346500366926193,-0.20838700234889984
1779997457529597400,15.221597412109375,9.803632736206055,-0.11345399916172028,-0.21101200580596924
1779997457546873900,15.238873779296876,9.80362319946289,-0.1134990006685257,-0.21156400442123413
1779997457564150300,15.256150390625,9.803651809692383,-0.11359000205993652,-0.2097730040550232
1779997457581427000,15.273427001953126,9.803712844848633,-0.11371300369501114,-0.20671799778938293
1779997457598703400,15.290703369140624,9.80377197265625,-0.1138480007648468,-0.20427300035953522
1779997457615979800,15.307979736328125,9.80378246307373,-0.11391600221395493,-0.203902006149292
1779997457633256400,15.32525634765625,9.803730964660645,-0.11393299698829651,-0.2058510035276413
1779997457650532900,15.342532958984375,9.803661346435547,-0.11393900215625763,-0.20902900397777557
1779997457667809300,15.359809326171876,9.803616523742676,-0.11397299915552139,-0.21162399649620056
1779997457685085700,15.377085693359374,9.803605079650879,-0.11409600079059601,-0.21212400496006012
1779997457702362000,15.394362060546875,9.803635597229004,-0.11426399648189545,-0.21021300554275513
1779997457719638500,15.411638427734376,9.80370044708252,-0.11441200226545334,-0.2069849967956543
1779997457736915200,15.428915283203125,9.803765296936035,-0.11452899873256683,-0.20433300733566284
1779997457754191600,15.446191650390626,9.803776741027832,-0.1146330013871193,-0.2038159966468811
1779997457771468000,15.463468017578125,9.803729057312012,-0.11470399796962738,-0.2056729942560196
1779997457788744700,15.48074462890625,9.80366039276123,-0.11476399749517441,-0.20880499482154846
1779997457806021000,15.498021240234374,9.803610801696777,-0.11486300081014633,-0.211434006690979
1779997457823297800,15.5152978515625,9.803600311279297,-0.11498399823904037,-0.2120790034532547
1779997457840574200,15.53257421875,9.803628921508789,-0.11512300372123718,-0.2103240042924881
1779997457857850600,15.5498505859375,9.803689956665039,-0.11525499820709229,-0.2071949988603592
1779997457875127000,15.567126953125,9.803754806518555,-0.11536499857902527,-0.20451800525188446
1779997457892403500,15.584403564453124,9.803772926330566,-0.11538100242614746,-0.20380799472332
1779997457909680000,15.60168017578125,9.803731918334961,-0.11532499641180038,-0.2054080069065094
1779997457926956500,15.61895654296875,9.803670883178711,-0.11525099724531174,-0.20826199650764465
1779997457944233200,15.636233154296875,9.803628921508789,-0.11519700288772583,-0.21061299741268158
1779997457961509400,15.65350927734375,9.803621292114258,-0.11519300192594528,-0.21106700599193573
1779997457978786000,15.6707861328125,9.803650856018066,-0.11525300145149231,-0.20932899415493011
1779997457996062200,15.688062255859375,9.803709030151367,-0.11534500122070312,-0.20635700225830078
1779997458013339000,15.7053388671875,9.8037691116333,-0.11539900302886963,-0.203902006149292
1779997458030615600,15.722615478515625,9.80378246307373,-0.11542300134897232,-0.2034119963645935
1779997458047891700,15.7398916015625,9.803736686706543,-0.1153699979186058,-0.20520199835300446
1779997458065168100,15.757168212890624,9.803668975830078,-0.1153080016374588,-0.20826099812984467
1779997458082444800,15.77444482421875,9.803622245788574,-0.11529099941253662,-0.21085800230503082
1779997458099721000,15.791720947265626,9.80361270904541,-0.11527799814939499,-0.2115119993686676
1779997458116997600,15.80899755859375,9.803640365600586,-0.11533699929714203,-0.20975400507450104
1779997458134274300,15.8262744140625,9.803705215454102,-0.11541900038719177,-0.20660600066184998
1779997458151550700,15.84355078125,9.803768157958984,-0.11552900075912476,-0.20393100380897522
1779997458168827100,15.8608271484375,9.803784370422363,-0.1155959963798523,-0.20323899388313293
1779997458186103800,15.878103759765626,9.803743362426758,-0.11569800227880478,-0.20483499765396118
1779997458203380200,15.895380126953125,9.803677558898926,-0.1157580018043518,-0.2077849954366684
1779997458220657000,15.912656982421876,9.803629875183105,-0.11581400036811829,-0.21034899353981018
1779997458237933000,15.92993310546875,9.803618431091309,-0.11590799689292908,-0.2110230028629303
1779997458255209700,15.947209716796875,9.803641319274902,-0.11604399979114532,-0.20945799350738525
1779997458272486100,15.964486083984376,9.803698539733887,-0.11621399968862534,-0.2065580040216446
1779997458289762600,15.981762451171875,9.80375862121582,-0.11631699651479721,-0.20399199426174164
1779997458307039000,15.9990390625,9.803778648376465,-0.11636999994516373,-0.20322799682617188
1779997458324315600,16.016315673828124,9.803742408752441,-0.11630000174045563,-0.20467600226402283
1779997458341592000,16.033592041015623,9.803682327270508,-0.11622799932956696,-0.20742200314998627
1779997458358868500,16.050868408203126,9.803638458251953,-0.11617600172758102,-0.2098899930715561
1779997458376145000,16.068144775390625,9.803625106811523,-0.11612799763679504,-0.21067799627780914
1779997458393421300,16.08542138671875,9.80364990234375,-0.11612100154161453,-0.20926499366760254
1779997458410698000,16.102697998046875,9.803705215454102,-0.1161549985408783,-0.20649799704551697
1779997458427974400,16.119974365234373,9.803763389587402,-0.11623899638652802,-0.20407399535179138
1779997458445250800,16.137250732421876,9.803776741027832,-0.11624900251626968,-0.20350000262260437
1779997458462527200,16.15452734375,9.803735733032227,-0.11628200113773346,-0.20512600243091583
1779997458479804000,16.171803955078126,9.803668975830078,-0.11629500240087509,-0.20805899798870087
1779997458497080300,16.189080322265625,9.803621292114258,-0.11632400006055832,-0.210657998919487
1779997458514356700,16.206356689453123,9.803607940673828,-0.11638499796390533,-0.21142199635505676
1779997458531633400,16.22363330078125,9.803634643554688,-0.11635400354862213,-0.2099359929561615
1779997458548909600,16.24090966796875,9.803693771362305,-0.11629600077867508,-0.20705300569534302
1779997458566186200,16.258186279296876,9.803756713867188,-0.11618900299072266,-0.2044440060853958
1779997458583463000,16.275462890625,9.803780555725098,-0.11608599871397018,-0.20355400443077087
1779997458600739000,16.292739013671873,9.803751945495605,-0.11591599881649017,-0.20477500557899475
1779997458618015500,16.310015380859376,9.80369758605957,-0.11575599759817123,-0.20725899934768677
1779997458635292200,16.327292236328127,9.803659439086914,-0.11560100317001343,-0.20952899754047394
1779997458652568600,16.344568603515626,9.803647994995117,-0.11552300304174423,-0.21026599407196045
1779997458669845000,16.361844970703125,9.803668022155762,-0.11560600250959396,-0.20898599922657013
1779997458687121700,16.37912158203125,9.803717613220215,-0.11567600071430206,-0.2064490020275116
1779997458704398000,16.396398193359374,9.80377197265625,-0.11577100306749344,-0.20415200293064117
1779997458721674500,16.413674560546873,9.803786277770996,-0.11583899706602097,-0.20352600514888763
1779997458738951000,16.430950927734376,9.80374813079834,-0.11585599929094315,-0.20502899587154388
1779997458756227600,16.4482275390625,9.80368423461914,-0.11591099947690964,-0.20787900686264038
1779997458773503700,16.465503662109374,9.803635597229004,-0.11601299792528152,-0.21049199998378754
1779997458790780400,16.482780517578124,9.803616523742676,-0.11617500334978104,-0.21146099269390106
1779997458808057000,16.50005712890625,9.803633689880371,-0.11633700132369995,-0.2103399932384491
1779997458825333200,16.517333251953126,9.803683280944824,-0.11646799743175507,-0.20782099664211273
1779997458842610000,16.53460986328125,9.803738594055176,-0.1165890023112297,-0.2054390013217926
1779997458868524500,16.560524658203125,9.803746223449707,-0.11670400202274323,-0.2050579935312271
1779997458885801000,16.577801025390624,9.803696632385254,-0.11671199649572372,-0.20713800191879272
1779997458903077600,16.59507763671875,9.803644180297852,-0.11671499907970428,-0.2097489982843399
1779997458920354000,16.61235400390625,9.803616523742676,-0.11668100208044052,-0.21133799850940704
1779997458937630500,16.62963037109375,9.80362319946289,-0.1166590005159378,-0.21088899672031403
1779997458954907100,16.6469072265625,9.803665161132812,-0.11676699668169022,-0.20859700441360474
1779997458972183600,16.66418359375,9.803725242614746,-0.11681599915027618,-0.20581500232219696
1779997458989460000,16.6814599609375,9.803767204284668,-0.11685500293970108,-0.2041119933128357
1779997459006736400,16.698736328125,9.80375862121582,-0.1168539971113205,-0.20441100001335144
1779997459024013000,16.716012939453126,9.80370807647705,-0.11681599915027618,-0.20653699338436127
1779997459041289700,16.733289794921873,9.8036527633667,-0.11679200083017349,-0.20926299691200256
1779997459058566000,16.75056591796875,9.803622245788574,-0.1168069988489151,-0.21104100346565247
1779997459084480800,16.776480712890624,9.80363941192627,-0.11681299656629562,-0.20998400449752808
1779997459101757200,16.793757080078127,9.803690910339355,-0.11675699800252914,-0.2074110060930252
1779997459119033600,16.81103369140625,9.803750038146973,-0.11667300015687943,-0.20500299334526062
1779997459136310300,16.828310302734376,9.80377197265625,-0.11652500182390213,-0.20415399968624115
1779997459153586700,16.845586669921875,9.803746223449707,-0.11628899723291397,-0.20530900359153748
1779997459170863000,16.862863037109374,9.803695678710938,-0.11607000231742859,-0.20770800113677979
1779997459188139500,16.880139404296877,9.803655624389648,-0.11590100079774857,-0.20991399884223938
1779997459205416200,16.897416259765624,9.803645133972168,-0.11577600240707397,-0.21067699790000916
1779997459222692600,16.914692626953126,9.80366325378418,-0.11577799916267395,-0.20951400697231293
1779997459239969000,16.931968994140625,9.8037109375,-0.11586300283670425,-0.20706500113010406
1779997459257245400,16.949245361328124,9.803763389587402,-0.11593499779701233,-0.204802006483078
1779997459274521900,16.96652197265625,9.80378246307373,-0.11603599786758423,-0.20407900214195251
1779997459291798500,16.983798583984374,9.803747177124023,-0.11609199643135071,-0.20538100600242615
1779997459309075000,17.001074951171876,9.803689956665039,-0.11609099805355072,-0.20795999467372894
1779997459326351400,17.018351318359375,9.803646087646484,-0.11610999703407288,-0.21029800176620483
1779997459343627800,17.035627685546874,9.803632736206055,-0.11614400148391724,-0.21110700070858002
1779997459360904400,17.052904541015625,9.803650856018066,-0.11612699925899506,-0.20997799932956696
1779997459378180900,17.070180908203124,9.80370044708252,-0.11611100286245346,-0.20753000676631927
1779997459395457300,17.087457275390626,9.803753852844238,-0.11612299829721451,-0.20521299540996552
1779997459412734000,17.10473388671875,9.803773880004883,-0.11602800339460373,-0.2044450044631958
1779997459430010400,17.12201025390625,9.803744316101074,-0.1159290000796318,-0.20565199851989746
1779997459447286800,17.139286865234375,9.803689956665039,-0.11585000157356262,-0.20815099775791168
1779997459464563200,17.156563232421874,9.803646087646484,-0.11576200276613235,-0.21056899428367615
1779997459481839900,17.17383984375,9.803630828857422,-0.11574199795722961,-0.21145500242710114
1779997459499116300,17.1911162109375,9.803650856018066,-0.11578000336885452,-0.21028000116348267
1779997459516392700,17.208392822265626,9.803698539733887,-0.11579900234937668,-0.20779100060462952
1779997459533669400,17.22566943359375,9.803753852844238,-0.11581800132989883,-0.20541499555110931
1779997459550945800,17.24294580078125,9.803777694702148,-0.11584900319576263,-0.20451800525188446
1779997459568222200,17.26022216796875,9.803750038146973,-0.11583200097084045,-0.20561599731445312
1779997459585498600,17.27749853515625,9.803695678710938,-0.11582200229167938,-0.20802299678325653
1779997459602775000,17.294775146484376,9.80364990234375,-0.11587800085544586,-0.21034500002861023
1779997459620051500,17.312051513671875,9.803631782531738,-0.11600399762392044,-0.21136100590229034
1779997459637328100,17.329328125,9.803641319274902,-0.11617399752140045,-0.2105949968099594
1779997459654604500,17.3466044921875,9.803680419921875,-0.11636299639940262,-0.20855599641799927
1779997459671881000,17.363880859375,9.80372428894043,-0.11655300110578537,-0.2065880000591278
1779997459689157600,17.38115771484375,9.80373764038086,-0.11667200177907944,-0.20602500438690186
1779997459706434000,17.39843408203125,9.803705215454102,-0.11671700328588486,-0.20732000470161438
1779997459723710500,17.41571044921875,9.803647994995117,-0.11671099811792374,-0.2098039984703064
1779997459740987000,17.43298681640625,9.803604125976562,-0.11662200093269348,-0.21209299564361572
1779997459758263600,17.450263671875,9.803592681884766,-0.11651299893856049,-0.21281400322914124
1779997459775540000,17.4675400390625,9.803616523742676,-0.11641000211238861,-0.21146699786186218
1779997459792816400,17.48481640625,9.803671836853027,-0.1162939965724945,-0.20876500010490417
1779997459810093000,17.502093017578126,9.803735733032227,-0.11615300178527832,-0.20614199340343475
1779997459827369500,17.519369384765625,9.803768157958984,-0.11598200350999832,-0.20496100187301636
1779997459844646000,17.53664599609375,9.803750038146973,-0.1157890036702156,-0.20578999817371368
1779997459861922300,17.55392236328125,9.80370044708252,-0.11561200022697449,-0.2080260068178177
1779997459879199000,17.571198974609374,9.803656578063965,-0.11550699919462204,-0.2103230059146881
1779997459896475400,17.588475341796876,9.80363941192627,-0.11549799889326096,-0.2113790065050125
1779997459913751800,17.605751708984375,9.803650856018066,-0.11554999649524689,-0.21062999963760376
1779997459931028500,17.623028564453126,9.803691864013672,-0.1155880019068718,-0.20855599641799927
1779997459948305000,17.640304931640625,9.803741455078125,-0.11565899848937988,-0.20643599331378937
1779997459965581300,17.657581298828124,9.803759574890137,-0.11573400348424911,-0.20562200248241425
1779997459982857700,17.674857666015626,9.803732872009277,-0.11574500054121017,-0.20667099952697754
1779997460000134400,17.692134521484373,9.803682327270508,-0.11573799699544907,-0.20895999670028687
1779997460017410800,17.709410888671876,9.80363941192627,-0.11573600023984909,-0.21115699410438538
1779997460034687200,17.726687255859375,9.80362319946289,-0.11573600023984909,-0.21205799281597137
1779997460051964000,17.7439638671875,9.80363941192627,-0.11578699946403503,-0.21111799776554108
1779997460069240300,17.761240234375,9.803683280944824,-0.11587899923324585,-0.20882000029087067
1779997460086516700,17.778516845703123,9.80373764038086,-0.1159299984574318,-0.2065189927816391
1779997460103793200,17.795793212890626,9.803760528564453,-0.11595799773931503,-0.20552800595760345
1779997460121069800,17.81306982421875,9.803739547729492,-0.11597300320863724,-0.2063719928264618
1779997460138346200,17.83034619140625,9.803689956665039,-0.11595699936151505,-0.2085690051317215
1779997460155622700,17.84762255859375,9.803645133972168,-0.1159759983420372,-0.21084199845790863
1779997460172899300,17.8648994140625,9.80362606048584,-0.11603499948978424,-0.21184800565242767
1779997460190175700,17.88217578125,9.80363941192627,-0.11613400280475616,-0.21109800040721893
1779997460207452200,17.8994521484375,9.80367660522461,-0.11628200113773346,-0.20912499725818634
1779997460224728600,17.916728515625,9.803720474243164,-0.11641299724578857,-0.2071560025215149
1779997460242005200,17.934005126953124,9.803736686706543,-0.11654199659824371,-0.20646600425243378
1779997460259281400,17.951281494140623,9.803707122802734,-0.11661999672651291,-0.2075829952955246
1779997460276558000,17.96855810546875,9.803651809692383,-0.11668899655342102,-0.20995500683784485
1779997460293834500,17.98583447265625,9.803606986999512,-0.11671499907970428,-0.21227000653743744
1779997460311111000,18.00311083984375,9.8035888671875,-0.11674699932336807,-0.21324500441551208
1779997460328387600,18.0203876953125,9.803606033325195,-0.11676699668169022,-0.2122820019721985
1779997460345664000,18.0376640625,9.8036527633667,-0.1167450025677681,-0.2098979949951172
1779997460362940400,18.0549404296875,9.803711891174316,-0.11668699979782104,-0.20740599930286407
1779997460380216800,18.072216796875,9.803743362426758,-0.1165589988231659,-0.2061460018157959
1779997460397493500,18.089493408203126,9.803731918334961,-0.11637800186872482,-0.20670700073242188
1779997460414770000,18.10677001953125,9.803691864013672,-0.11618299782276154,-0.20864200592041016
1779997460432046300,18.12404638671875,9.803650856018066,-0.11604099720716476,-0.21072900295257568
1779997460449322800,18.14132275390625,9.803634643554688,-0.11597499996423721,-0.21171000599861145
1779997460466599200,18.15859912109375,9.803646087646484,-0.11596500128507614,-0.21101999282836914
1779997460483875800,18.175875732421876,9.80368423461914,-0.11599499732255936,-0.20906899869441986
1779997460501152300,18.19315234375,9.803730964660645,-0.11604099720716476,-0.2070160061120987
1779997460518428700,18.2104287109375,9.803753852844238,-0.1160769984126091,-0.20612700283527374
1779997460535705000,18.227705078125,9.803731918334961,-0.11607199907302856,-0.20695599913597107
1779997460552981500,18.2449814453125,9.803685188293457,-0.11603199690580368,-0.20898300409317017
1779997460570258200,18.262258056640626,9.8036470413208,-0.11600500345230103,-0.2110150009393692
1779997460587534600,18.27953466796875,9.803631782531738,-0.11599099636077881,-0.21189700067043304
1779997460604811300,18.296811279296875,9.803645133972168,-0.1160380020737648,-0.21109500527381897
1779997460622087700,18.314087646484374,9.803683280944824,-0.11613000184297562,-0.20903800427913666
1779997460639364000,18.331364013671877,9.803730964660645,-0.11624100059270859,-0.20695699751377106
1779997460656640800,18.348640869140624,9.803750991821289,-0.11634600162506104,-0.20610199868679047
1779997460673917200,18.365917236328126,9.803726196289062,-0.11645399779081345,-0.20702199637889862
1779997460691193600,18.383193603515625,9.80367374420166,-0.11655999720096588,-0.2092680037021637
1779997460708470000,18.400469970703124,9.803625106811523,-0.1166670024394989,-0.21162199974060059
1779997460725746400,18.417746337890627,9.803601264953613,-0.11680100113153458,-0.2128639966249466
1779997460743022800,18.43502294921875,9.803607940673828,-0.11693499982357025,-0.21242600679397583
1779997460760299500,18.452299560546876,9.80363941192627,-0.11703500151634216,-0.21073399484157562
1779997460777576000,18.469575927734375,9.803680419921875,-0.11711899936199188,-0.20889200270175934
1779997460794852400,18.486852294921874,9.80370044708252,-0.11711400002241135,-0.20808200538158417
1779997460812128800,18.504128662109373,9.803682327270508,-0.11705099791288376,-0.2088329941034317
1779997460829405200,18.5214052734375,9.803640365600586,-0.11693699657917023,-0.2107349932193756
1779997460846681900,18.538681884765627,9.803605079650879,-0.1167910024523735,-0.21262100338935852
1779997460863958300,18.555958251953125,9.803594589233398,-0.11665499955415726,-0.2132990062236786
1779997460881235000,18.57323486328125,9.803614616394043,-0.11653599888086319,-0.21222400665283203
1779997460898511000,18.590510986328123,9.803662300109863,-0.11646100133657455,-0.20983600616455078
1779997460924426000,18.616426025390624,9.803741455078125,-0.11635199934244156,-0.20650500059127808
1779997460941702400,18.633702392578126,9.803752899169922,-0.11626700311899185,-0.2061139941215515
1779997460958979000,18.65097900390625,9.803722381591797,-0.116177998483181,-0.2074120044708252
1779997460976255500,18.66825537109375,9.80367660522461,-0.11612199991941452,-0.2095859944820404
1779997460993532000,18.685531982421875,9.803643226623535,-0.11611700057983398,-0.21137799322605133
1779997461010808600,18.70280859375,9.803635597229004,-0.11614900082349777,-0.21179300546646118
1779997461028085000,18.7200849609375,9.803654670715332,-0.11619900166988373,-0.2106660008430481
1779997461045361400,18.737361328125,9.803695678710938,-0.1162170022726059,-0.20874300599098206
1779997461062637800,18.754637939453126,9.803731918334961,-0.11621599644422531,-0.20722800493240356
1779997461079914500,18.77191455078125,9.803735733032227,-0.11618500202894211,-0.2071020007133484
1779997461097191000,18.78919091796875,9.803702354431152,-0.1160999983549118,-0.20850099623203278
1779997461114467600,18.806467529296874,9.80366039276123,-0.11599099636077881,-0.21058399975299835
1779997461131743700,18.82374365234375,9.803629875183105,-0.11591999977827072,-0.21215300261974335
1779997461149020400,18.8410205078125,9.803627967834473,-0.11590900272130966,-0.21231499314308167
1779997461166296800,18.858296875,9.803651809692383,-0.11597199738025665,-0.21089600026607513
1779997461183573200,18.8755732421875,9.803698539733887,-0.11608699709177017,-0.2086469978094101
1779997461200849700,18.892849609375,9.803739547729492,-0.1161860004067421,-0.20688900351524353
1779997461218126300,18.910126220703123,9.80374526977539,-0.11629600077867508,-0.20657800137996674
1779997461235402500,18.927402587890626,9.803712844848633,-0.11640200018882751,-0.20789900422096252
1779997461252679200,18.94467919921875,9.803664207458496,-0.11650600284337997,-0.21006999909877777
1779997461269955800,18.961955810546876,9.803629875183105,-0.1166049987077713,-0.21186000108718872
1779997461287232300,18.979232177734374,9.803621292114258,-0.11671800166368484,-0.21228300034999847
1779997461304508700,18.9965087890625,9.80363941192627,-0.11681800335645676,-0.21120800077915192
1779997461321785000,19.01378515625,9.803679466247559,-0.1168690025806427,-0.2093539983034134
1779997461339061500,19.0310615234375,9.80371379852295,-0.11686500161886215,-0.20787900686264038
1779997461356338000,19.048337890625,9.803720474243164,-0.1167910024523735,-0.20769299566745758
1779997461373614600,19.065614501953124,9.803690910339355,-0.11665599793195724,-0.2089409977197647
1779997461390891000,19.08289111328125,9.80364990234375,-0.11653400212526321,-0.21092599630355835
1779997461408167400,19.10016748046875,9.803620338439941,-0.1163799986243248,-0.21254199743270874
1779997461425444000,19.117444091796877,9.80361557006836,-0.11624699831008911,-0.21285800635814667
1779997461442720500,19.134720458984376,9.803638458251953,-0.11619800329208374,-0.21165600419044495
1779997461459997000,19.151996826171874,9.803680419921875,-0.11619699746370316,-0.20969100296497345
1779997461477273600,19.169273681640625,9.803717613220215,-0.11620000004768372,-0.20812900364398956
1779997461494550000,19.186550048828124,9.803725242614746,-0.11621099710464478,-0.20784799754619598
1779997461511826400,19.203826416015627,9.803698539733887,-0.11615899950265884,-0.20896999537944794
1779997461529102800,19.221102783203126,9.803659439086914,-0.11609300225973129,-0.21080100536346436
1779997461546379500,19.238379638671876,9.803630828857422,-0.11607900261878967,-0.21224400401115417
1779997461563655700,19.25565576171875,9.803627967834473,-0.11608800292015076,-0.21250200271606445
1779997461580932400,19.272932373046874,9.803647994995117,-0.11617100238800049,-0.21139299869537354
1779997461598208800,19.290208740234377,9.80368423461914,-0.11625699698925018,-0.2095559984445572
1779997461615485400,19.3074853515625,9.803717613220215,-0.11632800102233887,-0.20814000070095062
1779997461632761900,19.324761962890626,9.803720474243164,-0.1163569986820221,-0.20806600153446198
1779997461650038300,19.342038330078125,9.803685188293457,-0.11637300252914429,-0.20941799879074097
1779997461667315000,19.35931494140625,9.803640365600586,-0.11638200283050537,-0.2114890068769455
1779997461684591400,19.37659130859375,9.803609848022461,-0.11633399873971939,-0.2131119966506958
1779997461701867800,19.39386767578125,9.803607940673828,-0.1162709966301918,-0.21330499649047852
1779997461719144400,19.41114453125,9.803635597229004,-0.11615400016307831,-0.21193699538707733
1779997461736420900,19.4284208984375,9.803681373596191,-0.11606399714946747,-0.209757998585701
1779997461753697300,19.445697265625,9.803725242614746,-0.11596400290727615,-0.20795400440692902
1779997461770973700,19.4629736328125,9.80373764038086,-0.1158600002527237,-0.20751799643039703
1779997461788250000,19.48025,9.80371379852295,-0.11572600156068802,-0.2085759937763214
1779997461805526500,19.497526611328126,9.803675651550293,-0.11566700041294098,-0.21039000153541565
1779997461822803200,19.51480322265625,9.803645133972168,-0.11566600203514099,-0.21191099286079407
1779997461840079600,19.53207958984375,9.803638458251953,-0.11566399782896042,-0.21227699518203735
1779997461857356000,19.54935595703125,9.803656578063965,-0.11570099741220474,-0.21124599874019623
1779997461874632700,19.5666328125,9.803694725036621,-0.11573900282382965,-0.20947900414466858
1779997461891909000,19.5839091796875,9.803727149963379,-0.11578399688005447,-0.20809699594974518
1779997461909185500,19.601185546875,9.803729057312012,-0.1158209964632988,-0.2079859972000122
1779997461926462000,19.6184619140625,9.80369758605957,-0.11579599976539612,-0.20928099751472473
1779997461943738600,19.635738525390625,9.803653717041016,-0.11573600023984909,-0.21129199862480164
1779997461961015000,19.65301513671875,9.80362319946289,-0.11567799746990204,-0.21291899681091309
1779997461978291500,19.67029150390625,9.803616523742676,-0.11568800359964371,-0.21327899396419525
1779997461995568000,19.687568115234374,9.803638458251953,-0.11567900329828262,-0.21215100586414337
1779997462012844500,19.704844482421876,9.803680419921875,-0.11566899716854095,-0.21015200018882751
1779997462030121000,19.722120849609375,9.80372142791748,-0.1156269982457161,-0.20841600000858307
1779997462047397400,19.7393974609375,9.80373477935791,-0.11558599770069122,-0.20793400704860687
1779997462064674000,19.756674072265625,9.803709983825684,-0.11557699739933014,-0.2089190036058426
1779997462081950500,19.773950439453124,9.803668975830078,-0.11558900028467178,-0.2107519954442978
1779997462099227000,19.791226806640626,9.803638458251953,-0.11567199975252151,-0.2123579978942871
1779997462116503600,19.808503662109374,9.80362606048584,-0.11580800265073776,-0.21286700665950775
1779997462133780000,19.825780029296876,9.803638458251953,-0.11598800122737885,-0.21209900081157684
1779997462151056400,19.843056396484375,9.803669929504395,-0.11615400016307831,-0.21055400371551514
1779997462168333000,19.8603330078125,9.803698539733887,-0.11630000174045563,-0.2091909945011139
1779997462185609200,19.877609130859376,9.803706169128418,-0.11639299988746643,-0.20889699459075928
1779997462202885600,19.8948857421875,9.803681373596191,-0.11641400307416916,-0.20991000533103943
1779997462220162300,19.912162353515626,9.803644180297852,-0.11641199886798859,-0.2115969955921173
1779997462237438700,19.929438720703125,9.803618431091309,-0.11636800318956375,-0.21298399567604065
1779997462254715100,19.946715087890624,9.803614616394043,-0.11632800102233887,-0.2131810039281845
1779997462271991800,19.96399169921875,9.80363655090332,-0.11634399741888046,-0.21200500428676605
1779997462289268000,19.98126806640625,9.803675651550293,-0.1163880005478859,-0.21011799573898315
1779997462306544600,19.998544677734376,9.803709983825684,-0.11644099652767181,-0.208624005317688
1779997462323821300,20.0158212890625,9.80371379852295,-0.11647400259971619,-0.20839500427246094
1779997462341097700,20.03309765625,9.80368423461914,-0.11650899797677994,-0.2096180021762848
1779997462358374100,20.0503740234375,9.803638458251953,-0.11653800308704376,-0.21167400479316711
1779997462375650600,20.067650634765624,9.803603172302246,-0.11659199744462967,-0.21347400546073914
1779997462392927200,20.08492724609375,9.803589820861816,-0.11668200045824051,-0.2140980064868927
1779997462410203400,20.102203369140625,9.803605079650879,-0.11676599830389023,-0.21329599618911743
1779997462427480000,20.11947998046875,9.803640365600586,-0.11682400107383728,-0.2115669995546341
1779997462444756700,20.1367568359375,9.803679466247559,-0.11681400239467621,-0.20990200340747833
1779997462462033200,20.154033203125,9.803695678710938,-0.11674900352954865,-0.20925499498844147
1779997462479309600,20.1713095703125,9.803680419921875,-0.11665099859237671,-0.20992699265480042
1779997462496586000,20.1885859375,9.80364990234375,-0.11653699725866318,-0.2113949954509735
1779997462513862400,20.2058623046875,9.803624153137207,-0.11643899977207184,-0.21271300315856934
1779997462531138800,20.223138916015625,9.803619384765625,-0.11635500192642212,-0.21299900114536285
1779997462548415500,20.24041552734375,9.803638458251953,-0.11628600209951401,-0.21206599473953247
1779997462565692200,20.257692138671874,9.80367374420166,-0.11624400317668915,-0.2104550004005432
1779997462582968300,20.27496826171875,9.803705215454102,-0.11624599993228912,-0.20910599827766418
1779997462600245000,20.292244873046876,9.803712844848633,-0.11624100059270859,-0.20883700251579285
1779997462617521400,20.309521484375,9.803689956665039,-0.11623399704694748,-0.2098339945077896
1779997462634798000,20.326798095703126,9.80364990234375,-0.11621599644422531,-0.2115830034017563
1779997462652074500,20.344074462890624,9.803619384765625,-0.11622600257396698,-0.2131109982728958
1779997462669351000,20.361350830078123,9.803608894348145,-0.11625300347805023,-0.21358700096607208
1779997462686627300,20.37862744140625,9.803625106811523,-0.11631199717521667,-0.21269400417804718
1779997462703904000,20.395904052734377,9.803662300109863,-0.11638399958610535,-0.21094000339508057
1779997462721180400,20.413180419921876,9.80369758605957,-0.11646100133657455,-0.20932699739933014
1779997462738456800,20.430456787109375,9.8037109375,-0.11646900326013565,-0.20877599716186523
1779997462755733500,20.4477333984375,9.803693771362305,-0.11647500097751617,-0.2095090001821518
1779997462773010000,20.465010009765624,9.803661346435547,-0.11647699773311615,-0.21101999282836914
1779997462790286300,20.482286376953127,9.803632736206055,-0.11649999767541885,-0.21241700649261475
1779997462807563000,20.49956298828125,9.80362319946289,-0.11659900099039078,-0.21284200251102448
1779997462824839400,20.51683935546875,9.803635597229004,-0.11672600358724594,-0.21209199726581573
1779997462842115800,20.53411572265625,9.803664207458496,-0.11684499680995941,-0.21066799759864807
1779997462859392300,20.551392333984374,9.803691864013672,-0.11699099838733673,-0.20945900678634644
1779997462876668700,20.568668701171877,9.803693771362305,-0.11714000254869461,-0.20928099751472473
1779997462893945000,20.585945068359376,9.803666114807129,-0.11724899709224701,-0.21036900579929352
1779997462911221800,20.6032216796875,9.803625106811523,-0.11733599752187729,-0.2121800035238266
1779997462928498200,20.620498291015625,9.80359172821045,-0.11740600317716599,-0.2137719988822937
1779997462945774600,20.637774658203124,9.803579330444336,-0.11750499904155731,-0.2143079936504364
1779997462963051300,20.65505126953125,9.803595542907715,-0.11757899820804596,-0.21348600089550018
1779997462980327700,20.67232763671875,9.803630828857422,-0.11763899773359299,-0.21178899705410004
1779997462997604000,20.68960400390625,9.803667068481445,-0.11764899641275406,-0.21014000475406647
1779997463014880500,20.706880615234375,9.803686141967773,-0.11759299784898758,-0.20943400263786316
1779997463032157000,20.724156982421874,9.80367374420166,-0.11751800030469894,-0.20998699963092804
1779997463049433600,20.74143359375,9.803646087646484,-0.11745399981737137,-0.21130600571632385
1779997463066710000,20.7587099609375,9.803621292114258,-0.11740799993276596,-0.21250100433826447
1779997463083986700,20.775986572265627,9.803618431091309,-0.11735600233078003,-0.2127790004014969
1779997463101262800,20.793262939453125,9.803635597229004,-0.11736299842596054,-0.2118380069732666
1779997463118539500,20.81053955078125,9.803668022155762,-0.1173660010099411,-0.21019099652767181
1779997463135816000,20.82781591796875,9.803702354431152,-0.11739499866962433,-0.20873799920082092
1779997463153092600,20.845092529296874,9.803712844848633,-0.1173970028758049,-0.20827899873256683
1779997463170369000,20.862369140625,9.803694725036621,-0.11737199872732162,-0.20907799899578094
1779997463187645400,20.8796455078125,9.80366039276123,-0.11735700070858002,-0.21067999303340912
1779997463204922000,20.896922119140626,9.803628921508789,-0.11739400029182434,-0.21220199763774872
1779997463222198300,20.9141982421875,9.80361557006836,-0.11748600006103516,-0.21285900473594666
1779997463239475000,20.931474853515624,9.803624153137207,-0.11758200079202652,-0.21233099699020386
1779997463256751400,20.94875146484375,9.803651809692383,-0.11773200333118439,-0.2109380066394806
1779997463274027800,20.96602783203125,9.803680419921875,-0.11788800358772278,-0.20958200097084045
1779997463291304400,20.983304443359376,9.803689002990723,-0.11801300197839737,-0.20916299521923065
1779997463308580900,21.000580810546875,9.803668975830078,-0.11809200048446655,-0.2099660038948059
1779997463325857300,21.017857177734374,9.803633689880371,-0.11810900270938873,-0.21154800057411194
1779997463343134000,21.035134033203125,9.803604125976562,-0.11809899657964706,-0.2129880040884018
1779997463360410400,21.052410400390624,9.803595542907715,-0.11803299933671951,-0.21340900659561157
1779997463377686800,21.069686767578126,9.803614616394043,-0.11798100173473358,-0.21246999502182007
1779997463394963200,21.086963134765625,9.803651809692383,-0.11788900196552277,-0.2106969952583313
1779997463412240000,21.104239990234376,9.803690910339355,-0.1178169995546341,-0.20909899473190308
1779997463429516000,21.12151611328125,9.803704261779785,-0.1177780032157898,-0.2085610032081604
1779997463446792700,21.138792724609374,9.803682327270508,-0.11779499799013138,-0.20941700041294098
1779997463464069000,21.156069091796876,9.80363941192627,-0.11786899715662003,-0.2112780064344406
1779997463481345500,21.173345458984375,9.80359935760498,-0.11801499873399734,-0.21322199702262878
1779997463498622200,21.190622314453126,9.803574562072754,-0.11827400326728821,-0.214370995759964
1779997463515898600,21.207898681640625,9.803572654724121,-0.11847200244665146,-0.21431900560855865
1779997463533175000,21.225175048828124,9.803593635559082,-0.11864999681711197,-0.21319599449634552
1779997463550451500,21.242451416015626,9.803625106811523,-0.11875200271606445,-0.21173399686813354
1779997463567728000,21.25972802734375,9.803647994995117,-0.11869899928569794,-0.2108059972524643
1779997463585004800,21.2770048828125,9.80364990234375,-0.11854500323534012,-0.21081200242042542
1779997463602281000,21.294281005859375,9.803638458251953,-0.11828400194644928,-0.21148400008678436
1779997463619557400,21.311557373046874,9.803628921508789,-0.11800400167703629,-0.21213699877262115
1779997463636834000,21.328833984375,9.803632736206055,-0.11771000176668167,-0.2121029943227768
1779997463654110500,21.3461103515625,9.803653717041016,-0.11751700192689896,-0.21112799644470215
1779997463671387000,21.363386962890626,9.80368709564209,-0.11738800257444382,-0.20955100655555725
1779997463688663300,21.380663330078125,9.803720474243164,-0.11729499697685242,-0.20818500220775604
1779997463705940000,21.39793994140625,9.803729057312012,-0.1172650009393692,-0.2077839970588684
1779997463723216400,21.41521630859375,9.803709983825684,-0.1172339990735054,-0.2086150050163269
1779997463740493000,21.4324931640625,9.80367374420166,-0.11722899973392487,-0.21024900674819946
1779997463757769500,21.44976953125,9.803640365600586,-0.11724899709224701,-0.21184100210666656
1779997463775046000,21.4670458984375,9.803627967834473,-0.11728599667549133,-0.21254600584506989
1779997463792322300,21.484322265625,9.803635597229004,-0.11729399859905243,-0.2120410054922104
1779997463809599000,21.501598876953125,9.803665161132812,-0.11726099997758865,-0.21061399579048157
1779997463826875400,21.51887548828125,9.803701400756836,-0.1172029972076416,-0.20902800559997559
1779997463844151800,21.53615185546875,9.80372428894043,-0.1170940026640892,-0.20811699330806732
1779997463861428200,21.55342822265625,9.803723335266113,-0.11697199940681458,-0.2082740068435669
1779997463878705000,21.570704833984376,9.803702354431152,-0.11690899729728699,-0.2092220038175583
1779997463895981300,21.587981201171875,9.803680419921875,-0.11691199988126755,-0.21033400297164917
1779997463913257700,21.6052578125,9.803667068481445,-0.11700599640607834,-0.21092599630355835
1779997463930534100,21.6225341796875,9.803669929504395,-0.1171950027346611,-0.210657998919487
1779997463947810600,21.639810546875,9.803685188293457,-0.11744300276041031,-0.20976200699806213
1779997463965087200,21.657087158203126,9.803702354431152,-0.11771400272846222,-0.20887599885463715
1779997463982363600,21.67436376953125,9.803706169128418,-0.11797600239515305,-0.2086690068244934
1779997463999640000,21.69164013671875,9.803683280944824,-0.11815900355577469,-0.20945100486278534
1779997464016916700,21.708916748046875,9.80364990234375,-0.1182669997215271,-0.21087299287319183
1779997464034193400,21.726193359375,9.803622245788574,-0.11830099672079086,-0.21217100322246552
1779997464051469600,21.743469482421876,9.80361557006836,-0.11824300140142441,-0.2126380056142807
1779997464068746000,21.76074609375,9.803629875183105,-0.11817199736833572,-0.21195699274539948
1779997464086022700,21.778022705078126,9.803662300109863,-0.118026003241539,-0.21045300364494324
1779997464103299300,21.79529931640625,9.803698539733887,-0.11785399913787842,-0.20889399945735931
