time,seconds_elapsed,z,y,x
1779997442654588200,0.346588134765625,-0.0006874999962747097,-0.011274999938905239,-0.00494999997317791
1779997442671864300,0.3638642578125,-0.0019249999895691872,-0.018562499433755875,-0.002474999986588955
1779997442689140700,0.381140625,-0.0006874999962747097,-0.013749999925494194,0.007287499960511923
1779997442706417000,0.3984169921875,-0.0006874999962747097,-0.008799999952316284,-0.0012374999932944775
1779997442723693600,0.415693603515625,0.0005499999970197678,0.010724999941885471,0.01347499992698431
1779997442740969700,0.4329697265625,0.0030249999836087227,0.025299999862909317,0.02681249938905239
1779997442758246100,0.45024609375,0.0005499999970197678,0.01677500084042549,-0.007287499960511923
1779997442775522300,0.467522216796875,-0.0019249999895691872,-0.0015124999918043613,-0.03904999792575836
1779997442792798700,0.484798828125,0.0005499999970197678,-0.005224999971687794,-0.01223750039935112
1779997442810075100,0.5020751953125,0.0017874999903142452,-0.007562499959021807,0.0147124994546175
1779997442827351300,0.519351318359375,0.0005499999970197678,-0.016224998980760574,0.00494999997317791
1779997442844627700,0.536627685546875,-0.0019249999895691872,-0.016224998980760574,-0.01347499992698431
1779997442861904000,0.55390380859375,0.0005499999970197678,0.0034374999813735485,0.006049999967217445
1779997442879180300,0.57118017578125,0.0017874999903142452,0.021724998950958252,0.025712499395012856
1779997442896456700,0.588456787109375,0.0005499999970197678,0.014437500387430191,0
1779997442913732900,0.60573291015625,-0.0019249999895691872,-0.007562499959021807,-0.032999999821186066
1779997442931009300,0.62300927734375,-0.0019249999895691872,-0.014987500384449959,-0.025712499395012856
1779997442948285400,0.640285400390625,0.0005499999970197678,-0.005224999971687794,0.0037124999798834324
1779997442965561900,0.657561767578125,0.0005499999970197678,0.004537499975413084,0.00494999997317791
1779997442982838000,0.674838134765625,-0.0006874999962747097,0.007012499962002039,-0.0012374999932944775
1779997443000114400,0.692114501953125,0.0005499999970197678,0.021724998950958252,0.01952499896287918
1779997443017390800,0.709390869140625,0.0017874999903142452,0.05953750014305115,0.05623750016093254
1779997443034667000,0.7266669921875,0.005499999970197678,0.08401250094175339,0.07823749631643295
1779997443051943400,0.743943359375,0.0042624999769032,0.06572499871253967,0.028049999848008156
1779997443069219600,0.761219482421875,-0.0019249999895691872,-0.011274999938905239,-0.08923749625682831
1779997443086496300,0.778496337890625,-0.010449999943375587,-0.07975000143051147,-0.12828749418258667
1779997443103772700,0.795772705078125,-0.0042624999769032,-0.07108750194311142,-0.020762499421834946
1779997443121048800,0.813048828125,0.0005499999970197678,-0.060087498277425766,0.04647500067949295
1779997443138325200,0.8303251953125,-0.005499999970197678,-0.0845625028014183,-0.032999999821186066
1779997443155601700,0.8476015625,-0.0056374999694526196,-0.08703749626874924,-0.0635249987244606
1779997443172877800,0.8648779296875,-0.0019249999895691872,-0.04179999977350235,-0.018287500366568565
1779997443190154200,0.882154296875,0.0005499999970197678,0.011962499469518661,0.018287500366568565
1779997443207430400,0.899430419921875,0.0017874999903142452,0.03396249935030937,0.023237500339746475
1779997443224706800,0.916706787109375,0.0017874999903142452,0.03396249935030937,0.00976249948143959
1779997443241983200,0.933983154296875,0.0005499999970197678,0.026537500321865082,0.006049999967217445
1779997443259259400,0.95125927734375,0.0017874999903142452,0.01924999989569187,0.006049999967217445
1779997443276535800,0.968535888671875,0.0030249999836087227,0.018012499436736107,0.02199999988079071
1779997443293812000,0.98581201171875,0.0030249999836087227,0.014437500387430191,0.028049999848008156
1779997443311088600,1.003088623046875,0.0017874999903142452,0.007012499962002039,0.01347499992698431
1779997443328364500,1.020364501953125,-0.0006874999962747097,-0.0002749999985098839,-0.018287500366568565
1779997443345641200,1.03764111328125,-0.0006874999962747097,-0.0002749999985098839,-0.01347499992698431
1779997443362917400,1.05491748046875,0.0005499999970197678,0.008249999955296516,0.0085249999538064
1779997443380193800,1.07219384765625,0.0017874999903142452,0.011962499469518661,0.010999999940395355
1779997443397470000,1.089469970703125,0.0017874999903142452,0.01677500084042549,0.01223750039935112
1779997443414746400,1.106746337890625,0.0017874999903142452,0.02419999986886978,0.025712499395012856
1779997443432022800,1.124022705078125,0.0005499999970197678,0.022962499409914017,0.025712499395012856
1779997443449299200,1.14129931640625,-0.004399999976158142,0.0057749999687075615,-0.0012374999932944775
1779997443466575400,1.158575439453125,-0.0031624999828636646,0.007012499962002039,-0.01952499896287918
1779997443483851800,1.175851806640625,-0.0006874999962747097,0.01924999989569187,-0.0037124999798834324
1779997443501128000,1.1931279296875,-0.0006874999962747097,0.0364375002682209,0.020762499421834946
1779997443518404400,1.210404296875,0.0017874999903142452,0.04001250118017197,0.03904999792575836
1779997443535680800,1.2276806640625,0.0042624999769032,0.026537500321865082,0.028049999848008156
1779997443552957000,1.24495703125,-0.0019249999895691872,0.015537500381469727,-0.0147124994546175
1779997443570233300,1.2622333984375,-0.0006874999962747097,0.01924999989569187,-0.00976249948143959
1779997443587509800,1.279509765625,0.0030249999836087227,0.03148749843239784,0.028049999848008156
1779997443604786200,1.2967861328125,0.0005499999970197678,0.0387750007212162,0.037812501192092896
1779997443622062300,1.314062255859375,-0.0006874999962747097,0.01924999989569187,0.01952499896287918
1779997443639338800,1.3313388671875,-0.0019249999895691872,-0.018562499433755875,-0.023237500339746475
1779997443656615000,1.348614990234375,-0.004124999977648258,-0.03946249932050705,-0.05142499879002571
1779997443673891300,1.365891357421875,-0.0016499999910593033,-0.023512499406933784,-0.012374999932944775
1779997443691167700,1.383167724609375,-0.0004124999977648258,-0.010174999944865704,0.013337500393390656
1779997443708444000,1.40044384765625,-0.0004124999977648258,-0.008937500417232513,-0.002612499985843897
1779997443725720600,1.417720458984375,-0.0004124999977648258,-0.011274999938905239,-0.01966249942779541
1779997443742996700,1.434996826171875,-0.0004124999977648258,-0.0015124999918043613,-0.0147124994546175
1779997443760273200,1.452273193359375,-0.0004124999977648258,0.004537499975413084,-0.0013749999925494194
1779997443777549600,1.469549560546875,0.0008249999955296516,0.011824999935925007,0.014574999921023846
1779997443794825700,1.48682568359375,0.0032999999821186066,0.015537500381469727,0.03904999792575836
1779997443812102100,1.50410205078125,0.0008249999955296516,0.009487500414252281,0.013337500393390656
1779997443829378300,1.52137841796875,-0.0004124999977648258,0.0008249999955296516,-0.018424998968839645
1779997443846654700,1.53865478515625,0.002062499988824129,0.015537500381469727,0.014574999921023846
1779997443863931000,1.555930908203125,0.0032999999821186066,0.030249999836087227,0.04386249929666519
1779997443881207600,1.57320751953125,0.0008249999955296516,0.014299999922513962,0.018287500366568565
1779997443898483700,1.590483642578125,-0.0004124999977648258,-0.014987500384449959,-0.0013749999925494194
1779997443915760000,1.607760009765625,0.0008249999955296516,-0.043037500232458115,0.0010999999940395355
1779997443933036300,1.625036376953125,-0.0016499999910593033,-0.10422500222921371,-0.012374999932944775
1779997443950312700,1.642312744140625,-0.004124999977648258,-0.21779999136924744,-0.037950001657009125
1779997443967589000,1.659589111328125,-0.011412499472498894,-0.41084998846054077,-0.11123749613761902
1779997443984865300,1.676865234375,-0.021175000816583633,-0.6844750046730042,-0.23471249639987946
1779997444002141700,1.6941416015625,-0.03217500075697899,-1.0192874670028687,-0.32628750801086426
1779997444019418000,1.711418212890625,-0.023649999871850014,-1.547012448310852,0.12691250443458557
1779997444036694300,1.7286943359375,-0.113987497985363,-2.5268375873565674,0.20143750309944153
1779997444053970700,1.745970703125,-0.12870000302791595,-3.2660374641418457,-0.2652375102043152
1779997444071247000,1.7632470703125,-0.06270000338554382,-2.576887369155884,0.4324375092983246
1779997444088523500,1.7805234375,0.0057749999687075615,-0.694237470626831,0.5607249736785889
1779997444105800000,1.797800048828125,-0.006462499964982271,1.431512475013733,1.3950749635696411
1779997444123076000,1.815076171875,-0.08951249718666077,2.8327748775482178,1.0737375020980835
1779997444140352500,1.8323525390625,-0.10793749988079071,2.51886248588562,-1.3341624736785889
1779997444157629000,1.84962890625,-0.08373750001192093,0.9123125076293945,-3.8973000049591064
1779997444174905000,1.866905029296875,0.020075000822544098,-1.3784375190734863,2.954050064086914
1779997444192181500,1.884181396484375,0.0873124971985817,-2.4925999641418457,0.9590625166893005
1779997444209458000,1.9014580078125,0.020075000822544098,-2.648937463760376,-0.9101125001907349
1779997444226734000,1.918734130859375,-0.0019249999895691872,-0.9531499743461609,-0.778249979019165
1779997444244010500,1.936010498046875,0.0042624999769032,1.016124963760376,0.2480500042438507
1779997444261287000,1.953286865234375,-0.010449999943375587,2.5238125324249268,0.5961999893188477
1779997444278563000,1.97056298828125,-0.015262499451637268,2.6874375343322754,-0.909012496471405
1779997444295839500,1.987839599609375,0.03231250122189522,1.5377999544143677,-0.6474875211715698
1779997444313116000,2.005115966796875,0.020075000822544098,-0.7943375110626221,1.3609750270843506
1779997444330392000,2.02239208984375,-0.06173750013113022,-2.7356998920440674,-1.5698374509811401
1779997444347668500,2.03966845703125,-0.04592499881982803,-2.702699899673462,0.734250009059906
1779997444364945000,2.05694482421875,0.053075000643730164,-0.8872874975204468,1.1654499769210815
1779997444382221300,2.07422119140625,0.012787500396370888,0.892787516117096,1.5833125114440918
1779997444399497500,2.09149755859375,-0.09844999760389328,2.218287467956543,0.9981124997138977
1779997444425412000,2.117412109375,-0.08621250092983246,1.6392749547958374,-2.7366623878479004
1779997444442688300,2.134688232421875,-0.016499999910593033,0.8390250205993652,-2.4433748722076416
1779997444459964700,2.151964599609375,0.031075000762939453,-1.2854875326156616,3.577199935913086
1779997444477241000,2.169240966796875,0.06531249731779099,-2.4388375282287598,0.40191251039505005
1779997444494517500,2.186517578125,0.023787500336766243,-2.255549907684326,-1.1533499956130981
1779997444511794000,2.2037939453125,-0.011687500402331352,-0.6857125163078308,-0.983537495136261
1779997444529070300,2.2210703125,0.010312499478459358,1.107837438583374,-0.08181250095367432
1779997444546346500,2.238346435546875,0.026262499392032623,2.382050037384033,0.21986250579357147
1779997444563623000,2.255622802734375,0.023787500336766243,2.2647624015808105,-0.15633749961853027
1779997444580899300,2.2728994140625,0.014024999924004078,0.7144500017166138,0.21133749186992645
1779997444598175700,2.29017578125,-0.021449999883770943,-1.3160125017166138,-0.17352500557899475
1779997444615452000,2.307451904296875,-0.03368749842047691,-2.452312469482422,-0.01952499896287918
1779997444632728300,2.324728271484375,-0.027499999850988388,-2.102787494659424,0.035475000739097595
1779997444650004700,2.342004638671875,0.006599999964237213,-0.527999997138977,0.23704999685287476
1779997444667281000,2.359281005859375,0.010312499478459358,1.137125015258789,0.6975374817848206
1779997444684557300,2.376557373046875,-0.022687500342726707,2.2342374324798584,0.25657498836517334
1779997444701833700,2.393833740234375,-0.022687500342726707,1.98618745803833,-1.5455000400543213
1779997444719110000,2.41110986328125,0.03478749841451645,0.8072624802589417,0.3750999867916107
1779997444736386300,2.42838623046875,-0.006737499963492155,-0.9483374953269958,0.64267498254776
1779997444753662500,2.445662353515625,-0.05444999784231186,-2.2763125896453857,-1.4415500164031982
1779997444770939000,2.46293896484375,-0.02502499893307686,-2.104024887084961,1.0971125364303589
1779997444788215300,2.48021533203125,0.03959999978542328,-0.4974749982357025,1.0201125144958496
1779997444805491700,2.49749169921875,0.0005499999970197678,0.9623624682426453,1.0678249597549438
1779997444822768000,2.51476806640625,-0.07026249915361404,1.8653249740600586,0.18933749198913574
1779997444840044500,2.53204443359375,-0.05444999784231186,1.7088500261306763,-1.8313624858856201
1779997444857320700,2.54932080078125,0.0005499999970197678,1.1358875036239624,-2.1221749782562256
1779997444874597000,2.56659716796875,0.031075000762939453,-0.6465250253677368,2.7684249877929688
1779997444891873500,2.58387353515625,0.02983750030398369,-1.9696874618530273,-0.38967499136924744
1779997444909150000,2.60114990234375,-0.055687498301267624,-2.046687602996826,-1.8484125137329102
1779997444926426000,2.618426025390625,-0.015262499451637268,-0.9105250239372253,0.952875018119812
1779997444943702500,2.63570263671875,0.027499999850988388,0.8952624797821045,1.5197875499725342
1779997444960979000,2.65297900390625,-0.031212499365210533,1.7711374759674072,0.8710625171661377
1779997444978255000,2.670255126953125,-0.048262499272823334,1.652750015258789,-1.1178749799728394
1779997444995531500,2.687531494140625,-0.043449997901916504,0.8232125043869019,-2.8392374515533447
1779997445012808000,2.704807861328125,0.02502499893307686,-0.6441875100135803,2.368849992752075
1779997445030084400,2.72208447265625,0.04207500070333481,-1.6007750034332275,0.3359124958515167
1779997445047360800,2.73936083984375,-0.022687500342726707,-2.0369250774383545,-1.5797375440597534
1779997445064637000,2.756636962890625,-0.018975000828504562,-0.8335250020027161,-0.11233749985694885
1779997445081913300,2.773913330078125,0.022549999877810478,0.5031124949455261,1.3719749450683594
1779997445099189800,2.791189697265625,-0.005499999970197678,1.5012249946594238,0.761062502861023
1779997445116466000,2.8084658203125,-0.020212499424815178,1.4926999807357788,-0.9383000135421753
1779997445133742600,2.82574267578125,-0.005499999970197678,0.9587875008583069,-1.7861249446868896
1779997445151018800,2.843018798828125,0.027499999850988388,-0.38513749837875366,2.0256500244140625
1779997445168295200,2.860295166015625,-0.008937500417232513,-1.555537462234497,-0.6219124794006348
1779997445185571300,2.8775712890625,-0.035887498408555984,-1.4786750078201294,-1.0202499628067017
1779997445202847700,2.89484765625,-0.005224999971687794,-0.7981874942779541,1.2704999446868896
1779997445220124200,2.912124267578125,0.008112499490380287,0.4894999861717224,0.9039250016212463
1779997445237400300,2.929400390625,-0.018699999898672104,1.2457499504089355,0.16967499256134033
1779997445254677000,2.946677001953125,-0.03217500075697899,1.2982749938964844,-1.364687442779541
1779997445271953200,2.963953125,0.021587500348687172,1.0784125328063965,-0.8857749700546265
1779997445289229600,2.9812294921875,0.019112499430775642,-0.10051249712705612,1.6956499814987183
1779997445306506000,2.998506103515625,-0.01746249943971634,-1.3466750383377075,-1.219349980354309
1779997445323782100,3.0157822265625,-0.028462499380111694,-1.375962495803833,-0.0037124999798834324
1779997445341058600,3.03305859375,0.002062499988824129,-0.7346624732017517,1.0835000276565552
1779997445358335000,3.0503349609375,-0.0016499999910593033,0.2171124964952469,0.44577500224113464
1779997445375611400,3.067611328125,-0.010174999944865704,0.9904124736785889,-0.26276248693466187
1779997445392887800,3.0848876953125,-0.018699999898672104,1.2262250185012817,-1.4196875095367432
1779997445410164200,3.102164306640625,0.03258749842643738,0.9378874897956848,0.48730000853538513
1779997445427440400,3.1194404296875,-0.0028874999843537807,0.04358749836683273,0.42748749256134033
1779997445444716800,3.136716796875,-0.02969999983906746,-1.021762490272522,-1.0727750062942505
1779997445461993000,3.153992919921875,-0.008937500417232513,-1.3954875469207764,1.0261625051498413
1779997445479269600,3.17126953125,0.002062499988824129,-0.9422875046730042,0.06338749825954437
1779997445496545800,3.1885458984375,-0.006462499964982271,-0.06393750011920929,-0.4068624973297119
1779997445513822200,3.205822265625,0.009349999949336052,0.9660750031471252,-0.3067624866962433
1779997445531098600,3.2230986328125,0.017875000834465027,1.3752750158309937,0.4189625084400177
1779997445548375000,3.240375,0.0057749999687075615,0.9941250085830688,-0.2615250051021576
1779997445565651200,3.257651123046875,0.0032999999821186066,0.01924999989569187,0.15262499451637268
1779997445582927600,3.274927734375,-0.012649999931454659,-0.991100013256073,-0.03189999982714653
1779997445600204000,3.2922041015625,-0.018699999898672104,-1.3576749563217163,-0.15895000100135803
1779997445617480400,3.30948046875,-0.008937500417232513,-0.955762505531311,0.2186249941587448
1779997445634756900,3.3267568359375,0.002062499988824129,-0.02474999986588955,-0.06613750010728836
1779997445652033000,3.344032958984375,0.013062499463558197,0.9220749735832214,-0.10395000129938126
1779997445669309400,3.361309326171875,0.018837500363588333,1.3557499647140503,0.12457499653100967
1779997445686586000,3.378586181640625,0.014024999924004078,1.0185999870300293,-0.025712499395012856
1779997445703862300,3.3958623046875,0.0030249999836087227,0.05224999785423279,0.010999999940395355
1779997445721138700,3.413138671875,-0.012924999929964542,-0.9398124814033508,0
1779997445738414800,3.430414794921875,-0.017737500369548798,-1.3404874801635742,-0.08181250095367432
1779997445755691500,3.44769140625,-0.014162499457597733,-0.9641500115394592,0.054999999701976776
1779997445772967700,3.4649677734375,-0.0031624999828636646,-0.06132499873638153,-0.002474999986588955
1779997445790244000,3.482244140625,0.011549999937415123,0.8647375106811523,-0.01347499992698431
1779997445807520500,3.4995205078125,0.016499999910593033,1.3106499910354614,0.023237500339746475
1779997445824796700,3.516796630859375,0.010312499478459358,1.011312484741211,0.04152499884366989
1779997445842073000,3.534072998046875,-0.0006874999962747097,0.07672499865293503,-0.018287500366568565
1779997445859349200,3.551349365234375,-0.014162499457597733,-0.9006249904632568,-0.0037124999798834324
1779997445876626000,3.5686259765625,-0.021449999883770943,-1.309962511062622,-0.04647500067949295
1779997445893902000,3.585902099609375,-0.014162499457597733,-0.9470999836921692,-0.00494999997317791
1779997445911178500,3.603178466796875,-0.0019249999895691872,-0.06875000149011612,0.02199999988079071
1779997445928455000,3.620454833984375,0.007837500423192978,0.8402624726295471,-0.0037124999798834324
1779997445945731000,3.63773095703125,0.015262499451637268,1.286175012588501,-0.002474999986588955
1779997445963007700,3.6550078125,0.010312499478459358,1.0015499591827393,0.06228749826550484
1779997445980284200,3.6722841796875,-0.0031624999828636646,0.08896250277757645,-0.03671250119805336
1779997445997560300,3.689560302734375,-0.015262499451637268,-0.8652874827384949,0.006049999967217445
1779997446014836700,3.706836669921875,-0.020212499424815178,-1.2769625186920166,-0.04881250113248825
1779997446032113200,3.724113037109375,-0.014162499457597733,-0.9361000061035156,-0.00976249948143959
1779997446049389600,3.7413896484375,-0.0019249999895691872,-0.08084999769926071,0.02928750030696392
1779997446066666000,3.758666015625,0.011549999937415123,0.8109750151634216,-0.007287499960511923
1779997446083942100,3.775942138671875,0.015262499451637268,1.256887435913086,-0.002474999986588955
1779997446101218600,3.793218505859375,0.012787500396370888,0.9941250085830688,0.06228749826550484
1779997446118495000,3.810494873046875,0.0017874999903142452,0.11329999566078186,-0.03423750028014183
1779997446135771400,3.827771484375,-0.007974999956786633,-0.8359999656677246,0.01952499896287918
1779997446153047800,3.8450478515625,-0.016499999910593033,-1.2696750164031982,-0.05004999786615372
1779997446170324200,3.86232421875,-0.012787500396370888,-0.9543874859809875,0
1779997446187600400,3.879600341796875,0.0017874999903142452,-0.11384999752044678,0.03423750028014183
1779997446204876800,3.896876708984375,0.011549999937415123,0.7717875242233276,-0.0085249999538064
1779997446222153200,3.9141533203125,0.015262499451637268,1.2311749458312988,0.007287499960511923
1779997446239429600,3.9314296875,0.014024999924004078,0.9917874932289124,0.05857500061392784
1779997446256706000,3.9487060546875,0.0030249999836087227,0.14024999737739563,-0.030524998903274536
1779997446273982200,3.965982177734375,-0.006737499963492155,-0.8005250096321106,0.0170499999076128
1779997446291258600,3.983258544921875,-0.014024999924004078,-1.2403874397277832,-0.057475000619888306
1779997446308535000,4.00053515625,-0.009212499484419823,-0.9470999836921692,0.0037124999798834324
1779997446325811500,4.0178115234375,0.0005499999970197678,-0.12856249511241913,0.01952499896287918
1779997446343087900,4.035087890625,0.011549999937415123,0.743737518787384,-0.007287499960511923
1779997446360364300,4.0523642578125,0.014024999924004078,1.2056000232696533,0.007287499960511923
1779997446377640700,4.069640625,0.012787500396370888,0.9905499815940857,0.04647500067949295
1779997446394917000,4.086917236328125,0.0017874999903142452,0.1658249944448471,-0.02199999988079071
1779997446412193300,4.104193359375,-0.010449999943375587,-0.7625749707221985,0.002474999986588955
1779997446429469700,4.1214697265625,-0.016499999910593033,-1.2109625339508057,-0.045237500220537186
1779997446446746000,4.13874609375,-0.010449999943375587,-0.943387508392334,-0.0037124999798834324
1779997446464022300,4.156022216796875,-0.0017874999903142452,-0.1518000066280365,0.015949999913573265
1779997446481298700,4.173298583984375,0.007974999956786633,0.7082625031471252,0
1779997446498575400,4.190575439453125,0.014024999924004078,1.1798875331878662,0.006049999967217445
1779997446515851500,4.2078515625,0.011549999937415123,0.9831249713897705,0.045237500220537186
1779997446533128000,4.2251279296875,0.0017874999903142452,0.179299995303154,-0.015949999913573265
1779997446550404400,4.242404296875,-0.009212499484419823,-0.733287513256073,-0.0012374999932944775
1779997446567680800,4.2596806640625,-0.015262499451637268,-1.1853874921798706,-0.037812501192092896
1779997446584957200,4.276957275390625,-0.010449999943375587,-0.9422875046730042,-0.00494999997317791
1779997446602233600,4.294233642578125,-0.0030249999836087227,-0.1676124930381775,0.00976249948143959
1779997446619509800,4.311509765625,0.009074999950826168,0.682687520980835,0.00976249948143959
1779997446636786200,4.3287861328125,0.014024999924004078,1.1505999565124512,0.002474999986588955
1779997446654062600,4.3460625,0.011549999937415123,0.9685499668121338,0.045237500220537186
1779997446671339000,4.363339111328125,0.0030249999836087227,0.19277499616146088,-0.01347499992698431
1779997446688615400,4.380615478515625,-0.007974999956786633,-0.6990500092506409,-0.002474999986588955
1779997446705891800,4.397891845703125,-0.015262499451637268,-1.1584374904632568,-0.030524998903274536
1779997446723168000,4.41516796875,-0.011687500402331352,-0.934862494468689,-0.01223750039935112
1779997446740444400,4.4324443359375,-0.0006874999962747097,-0.18479999899864197,0.0170499999076128
1779997446757720800,4.449720947265625,0.009074999950826168,0.6484500169754028,0.002474999986588955
1779997446774997200,4.466997314453125,0.014024999924004078,1.124887466430664,0.0037124999798834324
1779997446792273400,4.4842734375,0.012787500396370888,0.9673125147819519,0.045237500220537186
1779997446809550000,4.501550048828125,0.0042624999769032,0.21601249277591705,-0.015949999913573265
1779997446826826200,4.518826171875,-0.007974999956786633,-0.668524980545044,0
1779997446844102700,4.5361025390625,-0.014024999924004078,-1.1340999603271484,-0.037812501192092896
1779997446861379000,4.553379150390625,-0.010449999943375587,-0.9275749921798706,-0.007287499960511923
1779997446878655200,4.5706552734375,-0.0006874999962747097,-0.19813749194145203,0.01223750039935112
1779997446895932000,4.587931884765625,0.007837500423192978,0.6204000115394592,0
1779997446913208000,4.6052080078125,0.012787500396370888,1.1016499996185303,0.007287499960511923
1779997446930484500,4.622484375,0.011549999937415123,0.9600250124931335,0.03671250119805336
1779997446947761000,4.639760986328125,0.0030249999836087227,0.23553749918937683,-0.00976249948143959
1779997446965037300,4.657037353515625,-0.007974999956786633,-0.6342874765396118,-0.00494999997317791
1779997446982313700,4.674313720703125,-0.014024999924004078,-1.1046749353408813,-0.0317624993622303
1779997446999590100,4.691590087890625,-0.009212499484419823,-0.9238625168800354,-0.006049999967217445
1779997447016866300,4.7088662109375,-0.0019249999895691872,-0.2213750034570694,0.007287499960511923
1779997447034143000,4.72614306640625,0.007837500423192978,0.5861625075340271,0.00494999997317791
1779997447051419100,4.743419189453125,0.014024999924004078,1.0711250305175781,0.0085249999538064
1779997447068695600,4.760695556640625,0.012787500396370888,0.9526000022888184,0.032999999821186066
1779997447085972000,4.777971923828125,0.0042624999769032,0.25753748416900635,-0.00494999997317791
1779997447103248100,4.795248046875,-0.006737499963492155,-0.5952374935150146,-0.007287499960511923
1779997447120524500,4.812524658203125,-0.011687500402331352,-1.0729124546051025,-0.02928750030696392
1779997447137801000,4.829801025390625,-0.011687500402331352,-0.9178124666213989,-0.0085249999538064
1779997447155077400,4.847077392578125,-0.0019249999895691872,-0.2433750033378601,0.00494999997317791
1779997447172353500,4.864353515625,0.006737499963492155,0.551925003528595,0.0037124999798834324
1779997447189630200,4.881630126953125,0.011549999937415123,1.0443124771118164,0.01223750039935112
1779997447206906600,4.89890673828125,0.011549999937415123,0.9440749883651733,0.0317624993622303
1779997447224182800,4.916182861328125,0.0030249999836087227,0.2708750069141388,0
1779997447241459200,4.933459228515625,-0.007974999956786633,-0.5684249997138977,-0.00494999997317791
1779997447258735600,4.950735595703125,-0.014024999924004078,-1.0546250343322754,-0.02681249938905239
1779997447276012000,4.968011962890625,-0.011687500402331352,-0.9178124666213989,-0.006049999967217445
1779997447293288400,4.985288330078125,-0.0030249999836087227,-0.26179999113082886,0.006049999967217445
1779997447310564900,5.00256494140625,0.005499999970197678,0.5238749980926514,0.007287499960511923
1779997447327841300,5.01984130859375,0.011549999937415123,1.019837498664856,0.00976249948143959
1779997447345117700,5.03711767578125,0.010312499478459358,0.9355499744415283,0.030524998903274536
1779997447362393900,5.054393798828125,0.0030249999836087227,0.2928749918937683,0
1779997447379670500,5.07167041015625,-0.006737499963492155,-0.5317124724388123,-0.010999999940395355
1779997447396947000,5.088947021484375,-0.012924999929964542,-1.0253374576568604,-0.025712499395012856
1779997447414223000,5.10622314453125,-0.011687500402331352,-0.9092875123023987,-0.0147124994546175
1779997447440138000,5.132137939453125,0.0017874999903142452,0.12430000305175781,0.0085249999538064
1779997447457414100,5.1494140625,0.009074999950826168,0.809737503528595,0.0037124999798834324
1779997447474690600,5.166690673828125,0.011549999937415123,1.0357874631881714,0.023237500339746475
1779997447491967200,5.18396728515625,0.006737499963492155,0.6642624735832214,0.01952499896287918
1779997447509243400,5.201243408203125,-0.0006874999962747097,-0.12251249700784683,-0.006049999967217445
1779997447526519800,5.218519775390625,-0.011687500402331352,-0.8310499787330627,-0.01347499992698431
1779997447543796200,5.235796142578125,-0.014024999924004078,-1.031387448310852,-0.023237500339746475
1779997447561072600,5.25307275390625,-0.007974999956786633,-0.6404749751091003,0.002474999986588955
1779997447578349000,5.27034912109375,0.0005499999970197678,0.10353749990463257,0.007287499960511923
1779997447595625500,5.28762548828125,0.007974999956786633,0.779212474822998,0.00494999997317791
1779997447612901600,5.304901611328125,0.011549999937415123,1.016124963760376,0.02199999988079071
1779997447630178300,5.32217822265625,0.009074999950826168,0.6692125201225281,0.0170499999076128
1779997447647454500,5.339454345703125,-0.0019249999895691872,-0.09556250274181366,-0.00494999997317791
1779997447664731000,5.35673095703125,-0.010449999943375587,-0.7968124747276306,-0.0170499999076128
1779997447682007600,5.374007568359375,-0.012924999929964542,-1.0058125257492065,-0.02199999988079071
1779997447699283700,5.39128369140625,-0.006737499963492155,-0.6404749751091003,-0.0012374999932944775
1779997447716560100,5.40856005859375,0.0005499999970197678,0.08277499675750732,0.00494999997317791
1779997447733836800,5.4258369140625,0.009074999950826168,0.7547374963760376,0.006049999967217445
1779997447751113000,5.443113037109375,0.011549999937415123,0.9965999722480774,0.020762499421834946
1779997447768389600,5.4603896484375,0.007837500423192978,0.6654999852180481,0.0170499999076128
1779997447785666000,5.477666015625,-0.0019249999895691872,-0.08098749816417694,-0.0037124999798834324
1779997447802942200,5.494942138671875,-0.009212499484419823,-0.7748125195503235,-0.018287500366568565
1779997447820219000,5.512218994140625,-0.011687500402331352,-0.991100013256073,-0.02199999988079071
1779997447837495300,5.529495361328125,-0.007974999956786633,-0.6380000114440918,-0.002474999986588955
1779997447854771500,5.546771484375,0.0017874999903142452,0.07177499681711197,0.0037124999798834324
1779997447872047900,5.5640478515625,0.007837500423192978,0.7339749932289124,0.002474999986588955
1779997447889324500,5.581324462890625,0.010312499478459358,0.9843624830245972,0.0170499999076128
1779997447906600700,5.5986005859375,0.006737499963492155,0.6729249954223633,0.0147124994546175
1779997447923877000,5.615877197265625,-0.0019249999895691872,-0.05403750017285347,-0.006049999967217445
1779997447941153500,5.633153564453125,-0.010449999943375587,-0.7430499792098999,-0.0170499999076128
1779997447958430000,5.650429931640625,-0.011687500402331352,-0.9715750217437744,-0.023237500339746475
1779997447975706600,5.66770654296875,-0.006737499963492155,-0.641712486743927,-0.00494999997317791
1779997447992982800,5.684982666015625,0.0005499999970197678,0.04853750020265579,0.002474999986588955
1779997448010259200,5.70225927734375,0.007837500423192978,0.7070249915122986,0.0037124999798834324
1779997448027536000,5.719535888671875,0.009074999950826168,0.9648374915122986,0.0147124994546175
1779997448044812300,5.736812255859375,0.005499999970197678,0.6729249954223633,0.015812499448657036
1779997448062088400,5.75408837890625,-0.0031624999828636646,-0.033275000751018524,-0.007287499960511923
1779997448079365000,5.771365234375,-0.010449999943375587,-0.7125250101089478,-0.0170499999076128
1779997448096641300,5.788641357421875,-0.011687500402331352,-0.9483374953269958,-0.020762499421834946
1779997448113918000,5.80591796875,-0.006737499963492155,-0.6380000114440918,-0.006049999967217445
1779997448131194400,5.8231943359375,0.0005499999970197678,0.027775000780820847,0.00494999997317791
1779997448148470800,5.840470703125,0.009074999950826168,0.6752625107765198,0.006049999967217445
1779997448165747200,5.857747314453125,0.012787500396370888,0.9392625093460083,0.0170499999076128
1779997448183023600,5.875023681640625,0.009074999950826168,0.6631624698638916,0.01952499896287918
1779997448200299800,5.8922998046875,0.0005499999970197678,-0.023512499406933784,-0.0012374999932944775
1779997448217576400,5.909576416015625,-0.007974999956786633,-0.6967124938964844,-0.010999999940395355
1779997448234852900,5.926852783203125,-0.010449999943375587,-0.9422875046730042,-0.018287500366568565
1779997448252129300,5.94412939453125,-0.006737499963492155,-0.6489999890327454,-0.0037124999798834324
1779997448269405700,5.96140576171875,0.0005499999970197678,0.007012499962002039,0.00494999997317791
1779997448286682000,5.97868212890625,0.007837500423192978,0.6545000076293945,0.00494999997317791
1779997448303958500,5.99595849609375,0.010312499478459358,0.9294999837875366,0.0147124994546175
1779997448321235000,6.01323486328125,0.007837500423192978,0.6765000224113464,0.0147124994546175
1779997448338511400,6.030511474609375,-0.0006874999962747097,0.010724999941885471,-0.006049999967217445
1779997448355787800,6.047787841796875,-0.009212499484419823,-0.6562874913215637,-0.0170499999076128
1779997448373064200,6.065064208984375,-0.012924999929964542,-0.9153375029563904,-0.02199999988079071
1779997448390340600,6.082340576171875,-0.009212499484419823,-0.6452875137329102,-0.006049999967217445
1779997448407617000,6.099616943359375,-0.0019249999895691872,-0.011274999938905239,0.0037124999798834324
1779997448424893700,6.116893798828125,0.006737499963492155,0.6252124905586243,0.00494999997317791
1779997448442170000,6.134170166015625,0.010312499478459358,0.9050250053405762,0.015949999913573265
1779997448459446500,6.151446533203125,0.009074999950826168,0.6654999852180481,0.015949999913573265
1779997448476723000,6.168722900390625,0.0005499999970197678,0.020487500354647636,-0.0012374999932944775
1779997448493999400,6.185999267578125,-0.009212499484419823,-0.6367624998092651,-0.01347499992698431
1779997448511275800,6.20327587890625,-0.010449999943375587,-0.8982874751091003,-0.018287500366568565
1779997448528552200,6.22055224609375,-0.007974999956786633,-0.6452875137329102,-0.00494999997317791
1779997448545828600,6.23782861328125,0.0005499999970197678,-0.02722499892115593,0.0037124999798834324
1779997448563105000,6.25510498046875,0.006737499963492155,0.6019750237464905,0.006049999967217445
1779997448580381700,6.272381591796875,0.011549999937415123,0.8878374695777893,0.0147124994546175
1779997448597657900,6.289657958984375,0.007837500423192978,0.6654999852180481,0.0147124994546175
1779997448614934300,6.306934326171875,0.0005499999970197678,0.0387750007212162,0
1779997448632211000,6.3242109375,-0.007974999956786633,-0.6111875176429749,-0.0147124994546175
1779997448649487000,6.341487060546875,-0.011687500402331352,-0.8798624873161316,-0.0170499999076128
1779997448666763800,6.358763671875,-0.007699999958276749,-0.641712486743927,-0.006187499966472387
1779997448684040200,6.376040283203125,-0.0004124999977648258,-0.040699999779462814,0.004812499973922968
1779997448701316600,6.393316650390625,0.007012499962002039,0.5787374973297119,0.008387500420212746
1779997448718593000,6.410593017578125,0.009349999949336052,0.8658375144004822,0.015812499448657036
1779997448735869700,6.42786962890625,0.007012499962002039,0.6545000076293945,0.018287500366568565
1779997448753146000,6.44514599609375,-0.0004124999977648258,0.04606249928474426,-0.0013749999925494194
1779997448770422300,6.46242236328125,-0.008937500417232513,-0.5916625261306763,-0.011137500405311584
1779997448787699000,6.479698974609375,-0.012649999931454659,-0.8628125190734863,-0.020899999886751175
1779997448804975400,6.496975341796875,-0.007699999958276749,-0.636900007724762,-0.0037124999798834324
1779997448822251800,6.514251708984375,-0.0016499999910593033,-0.050462499260902405,0.0010999999940395355
1779997448839528200,6.531528076171875,0.004537499975413084,0.5616874694824219,0.004812499973922968
1779997448856804600,6.5488046875,0.009349999949336052,0.8523625135421753,0.013337500393390656
1779997448874081000,6.5660810546875,0.007012499962002039,0.6569749712944031,0.013337500393390656
1779997448891357700,6.583357666015625,-0.0004124999977648258,0.06311249732971191,-0.00013749999925494194
1779997448908633900,6.6006337890625,-0.008937500417232513,-0.5684249997138977,-0.015949999913573265
1779997448925910500,6.61791064453125,-0.012649999931454659,-0.843287467956543,-0.01718750037252903
1779997448943187000,6.63518701171875,-0.008937500417232513,-0.6319500207901001,-0.007424999959766865
1779997448960463000,6.652463134765625,-0.0016499999910593033,-0.06146249920129776,0.0010999999940395355
1779997448977739800,6.66973974609375,0.004537499975413084,0.5396875143051147,0.007287499960511923
1779997448995016400,6.687016357421875,0.008112499490380287,0.8328375220298767,0.013337500393390656
1779997449012292600,6.704292724609375,0.0057749999687075615,0.6495500206947327,0.015812499448657036
1779997449029569000,6.721569091796875,-0.0004124999977648258,0.07301250100135803,-0.0013749999925494194
1779997449046845700,6.738845703125,-0.007699999958276749,-0.5451874732971191,-0.01347499992698431
1779997449064121900,6.756121826171875,-0.010174999944865704,-0.8262374997138977,-0.01718750037252903
1779997449081398500,6.7733984375,-0.007699999958276749,-0.6294749975204468,-0.007424999959766865
1779997449098675000,6.790675048828125,-0.0004124999977648258,-0.07493750005960464,0.002337499987334013
1779997449115951400,6.807951416015625,0.007012499962002039,0.5189250111579895,0.006049999967217445
1779997449133227800,6.825227783203125,0.010587500408291817,0.81454998254776,0.013337500393390656
1779997449150504400,6.84250439453125,0.009349999949336052,0.6434999704360962,0.015812499448657036
1779997449167780900,6.85978076171875,0.0017874999903142452,0.08401250094175339,-0.0012374999932944775
1779997449185057300,6.877057373046875,-0.005499999970197678,-0.5244249701499939,-0.01223750039935112
1779997449202333700,6.894333740234375,-0.009212499484419823,-0.807812511920929,-0.0170499999076128
1779997449219610000,6.911610107421875,-0.006737499963492155,-0.6234250068664551,-0.006049999967217445
1779997449236886500,6.928886474609375,-0.0006874999962747097,-0.08703749626874924,0.0012374999932944775
1779997449254163200,6.9461630859375,0.005499999970197678,0.4969249963760376,0.006049999967217445
1779997449271439600,6.963439697265625,0.007974999956786633,0.7950249910354614,0.010999999940395355
1779997449288716000,6.980716064453125,0.006737499963492155,0.6374499797821045,0.015949999913573265
1779997449305992400,6.997992431640625,-0.0006874999962747097,0.09501250088214874,0
1779997449323268900,7.015268798828125,-0.007974999956786633,-0.5048999786376953,-0.01223750039935112
1779997449340545300,7.032545166015625,-0.010449999943375587,-0.7895249724388123,-0.015812499448657036
1779997449357822000,7.049822021484375,-0.007974999956786633,-0.6184750199317932,-0.007287499960511923
1779997449375098400,7.067098388671875,-0.0017874999903142452,-0.09556250274181366,0.002474999986588955
1779997449392374800,7.084374755859375,0.005499999970197678,0.47987499833106995,0.006049999967217445
1779997449409651200,7.101651123046875,0.010312499478459358,0.7803124785423279,0.01347499992698431
1779997449426927900,7.118927978515625,0.007974999956786633,0.6324999928474426,0.015949999913573265
1779997449444204300,7.136204345703125,0.0017874999903142452,0.1060125008225441,0.002474999986588955
1779997449461480700,7.153480712890625,-0.006737499963492155,-0.48647499084472656,-0.010999999940395355
1779997449478757000,7.170757080078125,-0.009212499484419823,-0.7760499715805054,-0.015812499448657036
1779997449496033500,7.188033447265625,-0.007974999956786633,-0.6172375082969666,-0.00494999997317791
1779997449513310000,7.20531005859375,-0.0017874999903142452,-0.10779999941587448,0.002474999986588955
1779997449530586600,7.222586669921875,0.005499999970197678,0.4591124951839447,0.007287499960511923
1779997449547863000,7.239863037109375,0.009212499484419823,0.762024998664856,0.01347499992698431
1779997449565139500,7.257139404296875,0.006737499963492155,0.6252124905586243,0.01223750039935112
1779997449582416100,7.274416015625,0.0005499999970197678,0.11577499657869339,0.002474999986588955
1779997449599692300,7.2916923828125,-0.005499999970197678,-0.4646124839782715,-0.010999999940395355
1779997449616968700,7.30896875,-0.009212499484419823,-0.7565249800682068,-0.0170499999076128
1779997449634245400,7.326245361328125,-0.007974999956786633,-0.6099500060081482,-0.0085249999538064
1779997449651521800,7.343521728515625,-0.0017874999903142452,-0.11508750170469284,0
1779997449668798200,7.360798095703125,0.004537499975413084,0.44440001249313354,0.008387500420212746
1779997449686075000,7.378074951171875,0.009349999949336052,0.7460749745368958,0.01209999993443489
1779997449703351300,7.395351318359375,0.007012499962002039,0.6202625036239624,0.014574999921023846
1779997449720627700,7.412627685546875,0.002062499988824129,0.12306249886751175,0.0035749999806284904
1779997449737904000,7.429904052734375,-0.005224999971687794,-0.44866248965263367,-0.00989999994635582
1779997449755180800,7.447180908203125,-0.008937500417232513,-0.7431874871253967,-0.0147124994546175
1779997449772457000,7.46445703125,-0.007699999958276749,-0.606374979019165,-0.006187499966472387
1779997449789733600,7.481733642578125,-0.0016499999910593033,-0.1237500011920929,0.0010999999940395355
1779997449807010300,7.49901025390625,0.0057749999687075615,0.42473748326301575,0.007287499960511923
1779997449824286700,7.51628662109375,0.008112499490380287,0.7302625179290771,0.010862499475479126
1779997449841563100,7.533563232421875,0.007012499962002039,0.6142125129699707,0.014574999921023846
1779997449858839600,7.550839599609375,0.0008249999955296516,0.13158750534057617,0.002337499987334013
1779997449876116200,7.5681162109375,-0.005224999971687794,-0.431612491607666,-0.00989999994635582
1779997449893392400,7.585392333984375,-0.008937500417232513,-0.724762499332428,-0.01718750037252903
1779997449910669000,7.6026689453125,-0.007699999958276749,-0.597712516784668,-0.008662499487400055
1779997449927945500,7.619945556640625,-0.0016499999910593033,-0.12856249511241913,0.0010999999940395355
1779997449945222000,7.637221923828125,0.004537499975413084,0.41263750195503235,0.006049999967217445
1779997449962498300,7.654498291015625,0.009349999949336052,0.7155500054359436,0.009624999947845936
1779997449979775000,7.67177490234375,0.008112499490380287,0.6080250144004822,0.013337500393390656
1779997449997051100,7.689051025390625,0.002062499988824129,0.13763749599456787,0.002337499987334013
1779997450014327800,7.706327880859375,-0.005224999971687794,-0.41690000891685486,-0.00989999994635582
1779997450031604200,7.723604248046875,-0.008937500417232513,-0.7114250063896179,-0.01347499992698431
1779997450048881000,7.740880859375,-0.006462499964982271,-0.5928999781608582,-0.007424999959766865
1779997450066157300,7.7581572265625,-0.0016499999910593033,-0.13846249878406525,0.0010999999940395355
1779997450083433700,7.775433837890625,0.004537499975413084,0.3942124843597412,0.007287499960511923
1779997450100710100,7.792710205078125,0.008112499490380287,0.6984999775886536,0.010862499475479126
1779997450117986600,7.809986572265625,0.008112499490380287,0.6007375121116638,0.013337500393390656
1779997450135263200,7.82726318359375,0.002062499988824129,0.14506250619888306,0.002337499987334013
1779997450152539400,7.844539306640625,-0.003987499978393316,-0.3998500108718872,-0.011137500405311584
1779997450169816000,7.861816162109375,-0.009212499484419823,-0.694237470626831,-0.0147124994546175
1779997450187092500,7.879092529296875,-0.006737499963492155,-0.5867124795913696,-0.0085249999538064
1779997450204369000,7.896368896484375,-0.0005499999970197678,-0.14327499270439148,0
1779997450221645600,7.9136455078125,0.0042624999769032,0.38087499141693115,0.006049999967217445
1779997450238922000,7.930921875,0.007974999956786633,0.6862624883651733,0.0085249999538064
1779997450256198400,7.948198486328125,0.006737499963492155,0.595924973487854,0.0147124994546175
1779997450273474800,7.965474853515625,0.0017874999903142452,0.15125000476837158,0.002474999986588955
1779997450290751500,7.98275146484375,-0.005499999970197678,-0.383899986743927,-0.00976249948143959
1779997450308028000,8.00002783203125,-0.009212499484419823,-0.6819999814033508,-0.0147124994546175
1779997450325304300,8.01730419921875,-0.006737499963492155,-0.5830000042915344,-0.007287499960511923
1779997450342580700,8.034580810546874,-0.0017874999903142452,-0.1518000066280365,0
1779997450359857400,8.051857421875,0.005499999970197678,0.3638249933719635,0.0085249999538064
1779997450377133800,8.0691337890625,0.007974999956786633,0.6679750084877014,0.010999999940395355
1779997450394410200,8.08641015625,0.006737499963492155,0.5885000228881836,0.01347499992698431
1779997450411687000,8.10368701171875,0.0017874999903142452,0.15853749215602875,0.0037124999798834324
1779997450428963600,8.120963623046874,-0.005499999970197678,-0.368087500333786,-0.00976249948143959
1779997450446239700,8.13823974609375,-0.009212499484419823,-0.6649500131607056,-0.01347499992698431
1779997450463516200,8.15551611328125,-0.006737499963492155,-0.5757125020027161,-0.0085249999538064
1779997450480792600,8.17279248046875,-0.0030249999836087227,-0.1578499972820282,-0.0012374999932944775
1779997450498069200,8.1900693359375,0.0030249999836087227,0.3503499925136566,0.006049999967217445
1779997450515345700,8.207345703125,0.007974999956786633,0.6557375192642212,0.00976249948143959
1779997450532622300,8.224622314453125,0.006737499963492155,0.5836874842643738,0.01347499992698431
1779997450549898500,8.2418984375,0.0005499999970197678,0.1658249944448471,0.002474999986588955
1779997450567175200,8.259175048828125,-0.0042624999769032,-0.35089999437332153,-0.0085249999538064
1779997450584451800,8.276451904296875,-0.007974999956786633,-0.6489999890327454,-0.0147124994546175
1779997450601728000,8.29372802734375,-0.006737499963492155,-0.5684249997138977,-0.007287499960511923
1779997450619004400,8.31100439453125,-0.0017874999903142452,-0.16403749585151672,0
1779997450636281000,8.328281005859376,0.0042624999769032,0.33316248655319214,0.006049999967217445
1779997450653557500,8.3455576171875,0.007974999956786633,0.6374499797821045,0.00976249948143959
1779997450670834000,8.362833984375,0.007012499962002039,0.57378751039505,0.013337500393390656
1779997450688110600,8.380110595703124,0.002062499988824129,0.16940000653266907,0.002337499987334013
1779997450705387000,8.397386962890625,-0.003987499978393316,-0.3375625014305115,-0.008662499487400055
1779997450722663400,8.414663330078126,-0.007699999958276749,-0.6344249844551086,-0.012374999932944775
1779997450739940000,8.431940185546875,-0.006462499964982271,-0.5636125206947327,-0.007424999959766865
1779997450757216500,8.449216552734375,-0.0016499999910593033,-0.17132499814033508,-0.0013749999925494194
1779997450774493000,8.466492919921874,0.0032999999821186066,0.318450003862381,0.006049999967217445
1779997450791769300,8.483769287109375,0.008112499490380287,0.6239749789237976,0.010862499475479126
1779997450809046000,8.5010458984375,0.008112499490380287,0.5665000081062317,0.01209999993443489
1779997450826322400,8.518322509765625,0.002062499988824129,0.1755875051021576,0.004812499973922968
1779997450843598800,8.535598876953125,-0.003987499978393316,-0.32284998893737793,-0.008662499487400055
1779997450860875500,8.55287548828125,-0.007699999958276749,-0.6197124719619751,-0.012374999932944775
1779997450878152000,8.57015185546875,-0.006462499964982271,-0.5574250221252441,-0.006187499966472387
1779997450895428400,8.587428466796876,-0.002749999985098839,-0.17627499997615814,-0.0013749999925494194
1779997450912704800,8.604704833984375,0.0032999999821186066,0.3051125109195709,0.007287499960511923
1779997450929981400,8.6219814453125,0.007012499962002039,0.6092625260353088,0.008387500420212746
1779997450947257900,8.6392578125,0.0057749999687075615,0.5616874694824219,0.013337500393390656
1779997450964534300,8.6565341796875,0.002062499988824129,0.18287499248981476,0.0035749999806284904
1779997450981811000,8.67381103515625,-0.003987499978393316,-0.3057999908924103,-0.008662499487400055
1779997450999087400,8.69108740234375,-0.007699999958276749,-0.6026625037193298,-0.0147124994546175
1779997451016363800,8.70836376953125,-0.006462499964982271,-0.5476624965667725,-0.00989999994635582
1779997451033640200,8.72564013671875,-0.002749999985098839,-0.17874999344348907,-0.002612499985843897
1779997451050916600,8.74291650390625,0.0032999999821186066,0.29411250352859497,0.0035749999806284904
1779997451068193300,8.760193359375,0.008112499490380287,0.5970249772071838,0.008387500420212746
1779997451085469700,8.7774697265625,0.007012499962002039,0.5542625188827515,0.010862499475479126
1779997451102746000,8.79474609375,0.0032999999821186066,0.18782499432563782,0.0035749999806284904
1779997451120022500,8.8120224609375,-0.003987499978393316,-0.29356250166893005,-0.007424999959766865
1779997451137299200,8.82929931640625,-0.006462499964982271,-0.5916625261306763,-0.01347499992698431
1779997451154575400,8.846575439453124,-0.006462499964982271,-0.5451874732971191,-0.006187499966472387
1779997451171852000,8.86385205078125,-0.002749999985098839,-0.1872749924659729,-0.0013749999925494194
1779997451189128400,8.88112841796875,0.0032999999821186066,0.27568748593330383,0.007287499960511923
1779997451206405000,8.898405029296875,0.007012499962002039,0.5774999856948853,0.009624999947845936
1779997451223681500,8.915681640625,0.007012499962002039,0.5457375049591064,0.01209999993443489
1779997451240958000,8.9329580078125,0.002062499988824129,0.19263750314712524,0.006049999967217445
1779997451258234600,8.950234619140625,-0.002749999985098839,-0.28008750081062317,-0.007424999959766865
1779997451275510800,8.9675107421875,-0.007699999958276749,-0.5769500136375427,-0.012374999932944775
1779997451292787500,8.984787353515625,-0.006462499964982271,-0.5378999710083008,-0.008662499487400055
1779997451310064000,9.002064208984375,-0.002749999985098839,-0.1909874975681305,-0.002474999986588955
1779997451327340500,9.019340576171874,0.0032999999821186066,0.26592499017715454,0.004812499973922968
1779997451344617000,9.036616943359375,0.007012499962002039,0.565262496471405,0.007287499960511923
1779997451361893400,9.053893310546876,0.0057749999687075615,0.5420249700546265,0.009624999947845936
1779997451379169800,9.071169677734375,0.002062499988824129,0.20116250216960907,0.002337499987334013
1779997451396446200,9.0884462890625,-0.003987499978393316,-0.2630375027656555,-0.007424999959766865
1779997451413723000,9.105722900390624,-0.006462499964982271,-0.562375009059906,-0.012374999932944775
1779997451430999600,9.12299951171875,-0.006462499964982271,-0.5318499803543091,-0.007424999959766865
1779997451448276000,9.14027587890625,-0.002749999985098839,-0.19827499985694885,-0.002474999986588955
1779997451465552400,9.157552490234375,0.0032999999821186066,0.24763749539852142,0.006049999967217445
1779997451482828800,9.174828857421875,0.008249999955296516,0.5506874918937683,0.009624999947845936
1779997451500105500,9.19210546875,0.008249999955296516,0.5347374677658081,0.01209999993443489
1779997451517382000,9.2093818359375,0.0032999999821186066,0.20487499237060547,0.004812499973922968
1779997451534658300,9.226658203125,-0.002749999985098839,-0.2532750070095062,-0.006187499966472387
1779997451551934700,9.243934814453125,-0.006462499964982271,-0.5513749718666077,-0.012374999932944775
1779997451569211400,9.26121142578125,-0.005224999971687794,-0.5268999934196472,-0.00989999994635582
1779997451586487800,9.27848779296875,-0.002749999985098839,-0.20074999332427979,-0.002474999986588955
1779997451603764200,9.29576416015625,0.002062499988824129,0.24034999310970306,0.0035749999806284904
1779997451621040600,9.31304052734375,0.0057749999687075615,0.5420249700546265,0.006049999967217445
1779997451638317000,9.330317138671875,0.0057749999687075615,0.5335000157356262,0.010862499475479126
1779997451655593700,9.34759375,0.002062499988824129,0.21216249465942383,0.002337499987334013
1779997451672870100,9.3648701171875,-0.003987499978393316,-0.23732499778270721,-0.00494999997317791
1779997451690146600,9.382146484375,-0.006462499964982271,-0.5378999710083008,-0.012374999932944775
1779997451707423200,9.39942333984375,-0.006462499964982271,-0.5220875144004822,-0.007424999959766865
1779997451724699400,9.416699462890625,-0.0028874999843537807,-0.20803749561309814,-0.002612499985843897
1779997451741976000,9.43397607421875,0.0032999999821186066,0.22316250205039978,0.006049999967217445
1779997451759252700,9.451252685546875,0.007012499962002039,0.5237374901771545,0.010862499475479126
1779997451776529200,9.468529052734375,0.007012499962002039,0.521262526512146,0.01209999993443489
1779997451793805600,9.4858056640625,0.0032999999821186066,0.21216249465942383,0.004812499973922968
1779997451811082000,9.50308203125,-0.0028874999843537807,-0.2287999987602234,-0.00494999997317791
1779997451828358400,9.5203583984375,-0.005224999971687794,-0.5256624817848206,-0.011137500405311584
1779997451845635000,9.537635009765625,-0.006462499964982271,-0.5134249925613403,-0.007424999959766865
1779997451862911500,9.554911376953125,-0.0028874999843537807,-0.20803749561309814,-0.002612499985843897
1779997451880188000,9.57218798828125,0.0032999999821186066,0.2171124964952469,0.0035749999806284904
1779997451897464300,9.58946435546875,0.0057749999687075615,0.5152124762535095,0.007287499960511923
1779997451914741000,9.606740966796876,0.0057749999687075615,0.5189250111579895,0.01209999993443489
1779997451932017400,9.624017333984375,0.0032999999821186066,0.21834999322891235,0.0035749999806284904
1779997451949293800,9.6412939453125,-0.0028874999843537807,-0.21656249463558197,-0.00494999997317791
1779997451966570500,9.658570556640624,-0.006462499964982271,-0.514662504196167,-0.012374999932944775
1779997451983847000,9.675846923828125,-0.006462499964982271,-0.5121874809265137,-0.007424999959766865
1779997452001123600,9.69312353515625,-0.0028874999843537807,-0.21408750116825104,-0.002612499985843897
1779997452018399700,9.710399658203125,0.002062499988824129,0.20239999890327454,0.004812499973922968
1779997452035676400,9.727676513671875,0.007012499962002039,0.5017374753952026,0.007287499960511923
1779997452052952800,9.744952880859374,0.007012499962002039,0.512737512588501,0.009624999947845936
1779997452070229200,9.762229248046875,0.0032999999821186066,0.22316250205039978,0.004812499973922968
1779997452087506000,9.779505859375,-0.0016499999910593033,-0.20308749377727509,-0.00494999997317791
1779997452104782300,9.7967822265625,-0.006462499964982271,-0.5011875033378601,-0.011137500405311584
1779997452122058500,9.81405859375,-0.006462499964982271,-0.5036625266075134,-0.008662499487400055
1779997452139335200,9.831335205078124,-0.0028874999843537807,-0.21779999136924744,-0.002612499985843897
1779997452156611800,9.84861181640625,0.002062499988824129,0.1938749998807907,0.004812499973922968
1779997452173888000,9.865887939453126,0.004537499975413084,0.49197500944137573,0.006049999967217445
1779997452191164700,9.88316455078125,0.0057749999687075615,0.5079249739646912,0.009624999947845936
1779997452208441000,9.900441162109376,0.0032999999821186066,0.22811250388622284,0.004812499973922968
1779997452225717800,9.9177177734375,-0.0028874999843537807,-0.19208750128746033,-0.0037124999798834324
1779997452242994200,9.934994140625,-0.006462499964982271,-0.49018749594688416,-0.011137500405311584
1779997452260270600,9.9522705078125,-0.006462499964982271,-0.5011875033378601,-0.008662499487400055
1779997452277547000,9.969547119140625,-0.0028874999843537807,-0.2250874936580658,-0.002612499985843897
1779997452294823700,9.98682373046875,0.002062499988824129,0.179299995303154,0.004812499973922968
1779997452312100000,10.00410009765625,0.0057749999687075615,0.477400004863739,0.008387500420212746
1779997452329376500,10.02137646484375,0.0057749999687075615,0.5005000233650208,0.010862499475479126
1779997452346653000,10.03865283203125,0.0032999999821186066,0.23182499408721924,0.004812499973922968
1779997452363929600,10.0559296875,-0.0028874999843537807,-0.17998750507831573,-0.00494999997317791
1779997452381206000,10.0732060546875,-0.005224999971687794,-0.4768500030040741,-0.012374999932944775
1779997452398482400,10.090482421875,-0.006462499964982271,-0.49390000104904175,-0.007424999959766865
1779997452415759000,10.107759033203125,-0.0028874999843537807,-0.22632500529289246,-0.0037124999798834324
1779997452433035500,10.125035400390624,0.002062499988824129,0.1695374995470047,0.002337499987334013
1779997452450312000,10.14231201171875,0.0057749999687075615,0.46639999747276306,0.007287499960511923
1779997452467588400,10.15958837890625,0.0057749999687075615,0.49568748474121094,0.009624999947845936
1779997452484865000,10.176864990234375,0.002062499988824129,0.23663750290870667,0.0035749999806284904
1779997452502141400,10.194141357421875,-0.0028874999843537807,-0.16651250422000885,-0.0037124999798834324
1779997452519417900,10.21141796875,-0.006462499964982271,-0.4633750021457672,-0.011137500405311584
1779997452536694500,10.228694580078125,-0.005224999971687794,-0.48785001039505005,-0.007424999959766865
1779997452553971000,10.245970947265626,-0.0028874999843537807,-0.23127499222755432,-0.002612499985843897
1779997452571247600,10.26324755859375,0.002062499988824129,0.15729999542236328,0.006049999967217445
1779997452588523800,10.280523681640625,0.0057749999687075615,0.4529249966144562,0.007287499960511923
1779997452605800400,10.297800537109374,0.0057749999687075615,0.4871625006198883,0.009624999947845936
1779997452623076900,10.315076904296875,0.002062499988824129,0.2391124963760376,0.004812499973922968
1779997452640353300,10.332353271484376,-0.0028874999843537807,-0.1555124968290329,-0.0037124999798834324
1779997452657630000,10.3496298828125,-0.006462499964982271,-0.45237499475479126,-0.011137500405311584
1779997452674906400,10.36690625,-0.006462499964982271,-0.4816625118255615,-0.007424999959766865
1779997452692182800,10.384182861328124,-0.0028874999843537807,-0.23375000059604645,-0.0037124999798834324
1779997452709459200,10.401459228515625,0.002062499988824129,0.147537499666214,0.0035749999806284904
1779997452726736000,10.41873583984375,0.004537499975413084,0.4431625008583069,0.007287499960511923
1779997452744012000,10.436011962890625,0.0057749999687075615,0.48221248388290405,0.009624999947845936
1779997452761288700,10.453288818359376,0.0032999999821186066,0.2428250014781952,0.004812499973922968
1779997452778565400,10.4705654296875,-0.0016499999910593033,-0.1457500010728836,-0.0037124999798834324
1779997452795841800,10.487841796875,-0.005224999971687794,-0.44261249899864197,-0.00989999994635582
1779997452813118200,10.5051181640625,-0.005224999971687794,-0.47808748483657837,-0.007424999959766865
1779997452830394600,10.52239453125,-0.0028874999843537807,-0.23980000615119934,-0.002612499985843897
1779997452847671000,10.539671142578126,0.002062499988824129,0.13529999554157257,0.004812499973922968
1779997452864947500,10.556947509765624,0.0057749999687075615,0.43092501163482666,0.007287499960511923
1779997452882224000,10.57422412109375,0.0057749999687075615,0.477400004863739,0.010862499475479126
1779997452899500500,10.59150048828125,0.0032999999821186066,0.24392500519752502,0.004812499973922968
1779997452916777200,10.608777099609375,-0.0016499999910593033,-0.13598750531673431,-0.0037124999798834324
1779997452934053600,10.6260537109375,-0.005224999971687794,-0.4291374981403351,-0.00989999994635582
1779997452951330000,10.643330078125,-0.005224999971687794,-0.4694249927997589,-0.008662499487400055
1779997452968606500,10.6606064453125,-0.0028874999843537807,-0.23980000615119934,-0.002612499985843897
1779997452985883000,10.6778828125,0.0008249999955296516,0.12677499651908875,0.0035749999806284904
1779997453003159600,10.69515966796875,0.004537499975413084,0.4199250042438507,0.006049999967217445
1779997453020436000,10.71243603515625,0.0057749999687075615,0.46997499465942383,0.008387500420212746
1779997453037712400,10.72971240234375,0.0032999999821186066,0.24639999866485596,0.004812499973922968
1779997453054989000,10.746989013671875,-0.0016499999910593033,-0.1237500011920929,-0.0037124999798834324
1779997453072265500,10.764265380859374,-0.005224999971687794,-0.4156624972820282,-0.008662499487400055
1779997453089542000,10.7815419921875,-0.005224999971687794,-0.4633750021457672,-0.008662499487400055
1779997453106818300,10.798818359375,-0.0028874999843537807,-0.24227499961853027,-0.002612499985843897
1779997453124095000,10.816094970703125,0.0032999999821186066,0.11687500029802322,0.0035749999806284904
1779997453141371400,10.833371337890625,0.0057749999687075615,0.4064500033855438,0.006049999967217445
1779997453158647800,10.850647705078124,0.004537499975413084,0.4614500105381012,0.008387500420212746
1779997453175924500,10.867924560546875,0.0032999999821186066,0.24763749539852142,0.004812499973922968
1779997453193201000,10.885200927734376,-0.0016499999910593033,-0.11522500216960907,-0.002612499985843897
1779997453210477300,10.902477294921875,-0.005224999971687794,-0.4059000015258789,-0.00989999994635582
1779997453227753700,10.919753662109375,-0.006462499964982271,-0.4548499882221222,-0.008662499487400055
1779997453245030400,10.937030517578124,-0.0028874999843537807,-0.24227499961853027,-0.0037124999798834324
1779997453262306800,10.954306884765625,0.0008249999955296516,0.1083500012755394,0.002337499987334013
1779997453279583200,10.971583251953126,0.004537499975413084,0.39668750762939453,0.006049999967217445
1779997453296859600,10.988859619140625,0.0057749999687075615,0.45663750171661377,0.008387500420212746
1779997453314136000,11.006135986328125,0.002062499988824129,0.2513499855995178,0.004812499973922968
1779997453331412700,11.023412841796874,-0.0016499999910593033,-0.10546249896287918,-0.002612499985843897
1779997453348689200,11.040689208984375,-0.005224999971687794,-0.39489999413490295,-0.008662499487400055
1779997453365965600,11.057965576171876,-0.006462499964982271,-0.4548499882221222,-0.006187499966472387
1779997453383242200,11.0752421875,-0.0028874999843537807,-0.2508000135421753,-0.0037124999798834324
1779997453400518700,11.0925185546875,0.0008249999955296516,0.09611249715089798,0.0035749999806284904
1779997453417795000,11.109795166015624,0.0057749999687075615,0.3844499886035919,0.006049999967217445
1779997453435071700,11.12707177734375,0.006874999962747097,0.45045000314712524,0.008387500420212746
1779997453452348200,11.14434814453125,0.004537499975413084,0.25382500886917114,0.004812499973922968
1779997453469624600,11.16162451171875,-0.0004124999977648258,-0.0919874981045723,-0.0037124999798834324
1779997453486901000,11.17890087890625,-0.005224999971687794,-0.38032498955726624,-0.007424999959766865
1779997453504177700,11.196177734375,-0.006462499964982271,-0.44385001063346863,-0.008662499487400055
1779997453521454000,11.2134541015625,-0.003987499978393316,-0.24956250190734863,-0.0037124999798834324
1779997453538730500,11.23073046875,0.0008249999955296516,0.08635000139474869,0.002337499987334013
1779997453556007000,11.2480068359375,0.004537499975413084,0.37111249566078186,0.006049999967217445
1779997453573283600,11.26528369140625,0.004537499975413084,0.4419249892234802,0.009624999947845936
1779997453590560000,11.28256005859375,0.0032999999821186066,0.2525874972343445,0.004812499973922968
1779997453607836400,11.29983642578125,-0.0004124999977648258,-0.08579999953508377,-0.0013749999925494194
1779997453625113000,11.317113037109374,-0.003987499978393316,-0.37056249380111694,-0.007424999959766865
1779997453642389200,11.33438916015625,-0.005224999971687794,-0.4376625120639801,-0.007424999959766865
1779997453659666000,11.351666015625,-0.0028874999843537807,-0.2508000135421753,-0.002612499985843897
1779997453676942300,11.3689423828125,0.0008249999955296516,0.07782500237226486,0.0010999999940395355
1779997453694218800,11.38621875,0.004537499975413084,0.3601124882698059,0.007287499960511923
1779997453711495400,11.403495361328124,0.0057749999687075615,0.4357374906539917,0.008387500420212746
1779997453728771800,11.420771728515625,0.0032999999821186066,0.254925012588501,0.006049999967217445
1779997453746048300,11.43804833984375,-0.0016499999910593033,-0.07851249724626541,-0.00013749999925494194
1779997453763324700,11.45532470703125,-0.005224999971687794,-0.36079999804496765,-0.008662499487400055
1779997453780601300,11.472601318359375,-0.005224999971687794,-0.431612491607666,-0.006187499966472387
1779997453797877500,11.48987744140625,-0.0028874999843537807,-0.2532750070095062,-0.0037124999798834324
1779997453815154200,11.507154296875,0.0008249999955296516,0.06929999589920044,0.002337499987334013
1779997453832430800,11.524430908203126,0.004537499975413084,0.35144999623298645,0.006049999967217445
1779997453849707300,11.541707275390625,0.004537499975413084,0.43216249346733093,0.008387500420212746
1779997453866983700,11.558983642578125,0.0032999999821186066,0.2586374878883362,0.004812499973922968
1779997453884260000,11.576260009765624,-0.0004124999977648258,-0.06627500057220459,-0.002612499985843897
1779997453901536500,11.59353662109375,-0.003987499978393316,-0.3485625088214874,-0.007424999959766865
1779997453918813000,11.61081298828125,-0.005224999971687794,-0.4255625009536743,-0.007424999959766865
1779997453936089600,11.628089599609375,-0.0028874999843537807,-0.256850004196167,-0.002612499985843897
1779997453953366000,11.645365966796875,-0.0004124999977648258,0.05829999968409538,0.0010999999940395355
1779997453970642400,11.662642333984374,0.004537499975413084,0.3381125032901764,0.006049999967217445
1779997453987919000,11.679919189453125,0.004537499975413084,0.42239999771118164,0.008387500420212746
1779997454005195500,11.697195556640626,0.0032999999821186066,0.25987499952316284,0.004812499973922968
1779997454022472000,11.714471923828125,-0.0004124999977648258,-0.057750001549720764,-0.002612499985843897
1779997454039748600,11.73174853515625,-0.003987499978393316,-0.3363249897956848,-0.007424999959766865
1779997454057025000,11.74902490234375,-0.005224999971687794,-0.41690000891685486,-0.008662499487400055
1779997454074301700,11.7663017578125,-0.0028874999843537807,-0.2545124888420105,-0.00494999997317791
1779997454091578000,11.783578125,0.0008249999955296516,0.05335000157356262,0.0010999999940395355
1779997454108854500,11.8008544921875,0.004537499975413084,0.3306874930858612,0.006049999967217445
1779997454126131000,11.818130859375,0.0057749999687075615,0.4174500107765198,0.007287499960511923
1779997454143407400,11.835407470703124,0.0032999999821186066,0.2611125111579895,0.0035749999806284904
1779997454160683800,11.852683837890625,-0.0004124999977648258,-0.04922499880194664,-0.00013749999925494194
1779997454177960400,11.86996044921875,-0.003987499978393316,-0.32903748750686646,-0.008662499487400055
1779997454195236900,11.88723681640625,-0.005224999971687794,-0.41456249356269836,-0.007424999959766865
1779997454212513300,11.90451318359375,-0.002749999985098839,-0.25808748602867126,-0.0037124999798834324
1779997454229790000,11.9217900390625,0.0008249999955296516,0.0448249988257885,0.0010999999940395355
1779997454247066400,11.93906640625,0.004537499975413084,0.3221625089645386,0.004812499973922968
1779997454264342800,11.9563427734375,0.0057749999687075615,0.41263750195503235,0.008387500420212746
1779997454281619200,11.973619140625,0.0032999999821186066,0.2623499929904938,0.006049999967217445
1779997454298896000,11.990895751953126,-0.0015124999918043613,-0.043175000697374344,-0.0013749999925494194
1779997454316172300,12.00817236328125,-0.003987499978393316,-0.3205125033855438,-0.007424999959766865
1779997454333448700,12.02544873046875,-0.005224999971687794,-0.4071374833583832,-0.007424999959766865
1779997454350725400,12.042725341796874,-0.002749999985098839,-0.25808748602867126,-0.0037124999798834324
1779997454368001500,12.06000146484375,0.0008249999955296516,0.03753750026226044,0.0010999999940395355
1779997454385278200,12.0772783203125,0.004537499975413084,0.3123999834060669,0.006049999967217445
1779997454402554600,12.0945546875,0.0057749999687075615,0.4064500033855438,0.008387500420212746
1779997454419831000,12.1118310546875,0.0032999999821186066,0.26358750462532043,0.004812499973922968
1779997454437107700,12.129107666015624,-0.0004124999977648258,-0.03451250120997429,-0.00013749999925494194
1779997454454384000,12.146384033203125,-0.003987499978393316,-0.3106124997138977,-0.007424999959766865
1779997454471660500,12.16366064453125,-0.003987499978393316,-0.40232500433921814,-0.006187499966472387
1779997454488937000,12.18093701171875,-0.002749999985098839,-0.26179999113082886,-0.002474999986588955
1779997454506213600,12.198213623046875,0.0008249999955296516,0.026537500321865082,0.002337499987334013
1779997454523490000,12.215489990234374,0.0032999999821186066,0.30016249418258667,0.006049999967217445
1779997454540766500,12.232766357421875,0.004537499975413084,0.3979249894618988,0.008387500420212746
1779997454558043000,12.25004296875,0.0032999999821186066,0.26468750834465027,0.004812499973922968
1779997454575319600,12.267319580078125,0.0008249999955296516,-0.02474999986588955,-0.00013749999925494194
1779997454592596200,12.28459619140625,-0.003987499978393316,-0.2985124886035919,-0.007424999959766865
1779997454609872400,12.301872314453124,-0.005224999971687794,-0.3950375020503998,-0.008662499487400055
1779997454627149000,12.319149169921875,-0.002749999985098839,-0.26179999113082886,-0.0037124999798834324
1779997454644425500,12.336425537109376,-0.0004124999977648258,0.021587500348687172,-0.00013749999925494194
1779997454661702000,12.353701904296875,0.0032999999821186066,0.29163751006126404,0.006049999967217445
1779997454678978300,12.370978271484375,0.004537499975413084,0.39297500252723694,0.007287499960511923
1779997454696255000,12.3882548828125,0.0032999999821186066,0.2648249864578247,0.0035749999806284904
1779997454713531400,12.405531494140625,-0.0004124999977648258,-0.01746249943971634,-0.0013749999925494194
1779997454730807800,12.422807861328126,-0.003987499978393316,-0.28751251101493835,-0.007424999959766865
1779997454748084500,12.44008447265625,-0.005224999971687794,-0.38885000348091125,-0.007424999959766865
1779997454765361000,12.45736083984375,-0.003987499978393316,-0.2630375027656555,-0.00494999997317791
1779997454782637300,12.47463720703125,0.0008249999955296516,0.014299999922513962,0.0010999999940395355
1779997454799913700,12.491913818359375,0.0032999999821186066,0.2806375026702881,0.004812499973922968
1779997454817190400,12.5091904296875,0.0057749999687075615,0.38692501187324524,0.008387500420212746
1779997454834466800,12.526466796875,0.0032999999821186066,0.26592499017715454,0.004812499973922968
1779997454851743200,12.5437431640625,-0.0004124999977648258,-0.01251249946653843,-0.00013749999925494194
1779997454869020000,12.56102001953125,-0.003987499978393316,-0.28132501244544983,-0.00494999997317791
1779997454886296300,12.57829638671875,-0.005224999971687794,-0.38513749837875366,-0.007424999959766865
1779997454903572700,12.59557275390625,-0.0028874999843537807,-0.2642749845981598,-0.002612499985843897
1779997454920849200,12.61284912109375,-0.0004124999977648258,0.007012499962002039,-0.00013749999925494194
1779997454938125800,12.630125732421876,0.0032999999821186066,0.2733500003814697,0.004812499973922968
1779997454955402200,12.64740234375,0.004537499975413084,0.38321250677108765,0.007287499960511923
1779997454972678700,12.6646787109375,0.0032999999821186066,0.26840001344680786,0.004812499973922968
1779997454989955000,12.681955078125,-0.0004124999977648258,-0.0015124999918043613,-0.0013749999925494194
1779997455007231500,12.6992314453125,-0.0028874999843537807,-0.2690874934196472,-0.006187499966472387
1779997455024508200,12.716508056640626,-0.003987499978393316,-0.3778499960899353,-0.006187499966472387
1779997455041784600,12.73378466796875,-0.0016499999910593033,-0.2642749845981598,-0.0037124999798834324
1779997455059061000,12.75106103515625,-0.0004124999977648258,-0.0015124999918043613,0.002337499987334013
1779997455076337400,12.76833740234375,0.0032999999821186066,0.2611125111579895,0.004812499973922968
1779997455093613800,12.78561376953125,0.004537499975413084,0.3722124993801117,0.008387500420212746
1779997455110890500,12.802890380859376,0.0032999999821186066,0.26592499017715454,0.006049999967217445
1779997455128167000,12.8201669921875,-0.0004124999977648258,0.002062499988824129,0.0010999999940395355
1779997455145443600,12.837443603515625,-0.003987499978393316,-0.2605625092983246,-0.006187499966472387
1779997455162720000,12.854719970703124,-0.003987499978393316,-0.37056249380111694,-0.006187499966472387
1779997455179996400,12.871996337890625,-0.0030249999836087227,-0.2653749883174896,-0.0037124999798834324
1779997455197272800,12.88927294921875,-0.0006874999962747097,-0.007562499959021807,0.0012374999932944775
1779997455214549500,12.906549560546875,0.0030249999836087227,0.25382500886917114,0.0037124999798834324
1779997455231825700,12.92382568359375,0.0042624999769032,0.3698749840259552,0.006049999967217445
1779997455249102300,12.941102294921874,0.0030249999836087227,0.2685374915599823,0.00494999997317791
1779997455266378800,12.958378662109375,-0.0006874999962747097,0.013199999928474426,0
1779997455283655200,12.9756552734375,-0.0030249999836087227,-0.2508000135421753,-0.006049999967217445
1779997455300931800,12.992931884765625,-0.0042624999769032,-0.36313748359680176,-0.007287499960511923
1779997455318208000,13.0102080078125,-0.0030249999836087227,-0.2653749883174896,-0.0037124999798834324
1779997455335484700,13.027484619140624,0.0005499999970197678,-0.013749999925494194,0.0012374999932944775
1779997455352761000,13.044760986328125,0.0030249999836087227,0.24406249821186066,0.0037124999798834324
1779997455370037500,13.06203759765625,0.0042624999769032,0.3601124882698059,0.0085249999538064
1779997455387314000,13.07931396484375,0.0042624999769032,0.267300009727478,0.00494999997317791
1779997455404590600,13.096590576171875,0.0005499999970197678,0.01677500084042549,-0.0012374999932944775
1779997455421867000,13.113866943359374,-0.0030249999836087227,-0.24213749170303345,-0.00494999997317791
1779997455439143400,13.131143310546875,-0.0042624999769032,-0.35942500829696655,-0.0085249999538064
1779997455456420000,13.148420166015624,-0.0030249999836087227,-0.26413750648498535,-0.002474999986588955
1779997455473696500,13.165696533203125,-0.0006874999962747097,-0.018562499433755875,0
1779997455490973000,13.182972900390626,0.0017874999903142452,0.2367749959230423,0.00494999997317791
1779997455508249300,13.200249267578124,0.0042624999769032,0.3540624976158142,0.0085249999538064
1779997455525526000,13.217526123046875,0.0030249999836087227,0.26358750462532043,0.002474999986588955
1779997455542802400,13.234802490234374,0.0005499999970197678,0.01924999989569187,0.0012374999932944775
1779997455560078800,13.252078857421875,-0.0030249999836087227,-0.23485000431537628,-0.00494999997317791
1779997455577355500,13.26935546875,-0.0042624999769032,-0.3521375060081482,-0.007287499960511923
1779997455594632000,13.2866318359375,-0.0030249999836087227,-0.2628999948501587,-0.0037124999798834324
1779997455611908400,13.303908447265625,-0.0006874999962747097,-0.02227500081062317,0
1779997455629185000,13.32118505859375,0.0030249999836087227,0.23058749735355377,0.0037124999798834324
1779997455646461400,13.33846142578125,0.0030249999836087227,0.34911251068115234,0.006049999967217445
1779997455663737600,13.355737548828126,0.0030249999836087227,0.26606249809265137,0.00494999997317791
1779997455681014300,13.37301416015625,-0.0004124999977648258,0.026537500321865082,-0.00013749999925494194
1779997455698291000,13.390291015625,-0.0028874999843537807,-0.2250874936580658,-0.00494999997317791
1779997455715567400,13.4075673828125,-0.003987499978393316,-0.34485000371932983,-0.006187499966472387
1779997455732843800,13.42484375,-0.0028874999843537807,-0.2630375027656555,-0.0037124999798834324
1779997455750120200,13.4421201171875,-0.0004124999977648258,-0.02969999983906746,0.002337499987334013
1779997455767396600,13.459396728515625,0.0032999999821186066,0.21834999322891235,0.004812499973922968
1779997455784673000,13.476673095703125,0.004537499975413084,0.33934998512268066,0.007287499960511923
1779997455801949700,13.49394970703125,0.0032999999821186066,0.2623499929904938,0.006049999967217445
1779997455819226400,13.511226318359375,-0.0004124999977648258,0.03258749842643738,-0.00013749999925494194
1779997455836502500,13.52850244140625,-0.0028874999843537807,-0.21779999136924744,-0.0037124999798834324
1779997455853779200,13.545779296875,-0.003987499978393316,-0.3363249897956848,-0.006187499966472387
1779997455871055600,13.5630556640625,-0.0028874999843537807,-0.2605625092983246,-0.0037124999798834324
1779997455888332000,13.58033203125,-0.0004124999977648258,-0.03451250120997429,-0.00013749999925494194
1779997455905608700,13.597608642578125,0.002062499988824129,0.2110625058412552,0.0035749999806284904
1779997455922885000,13.614885009765626,0.0032999999821186066,0.33563750982284546,0.004812499973922968
1779997455940161500,13.63216162109375,0.0032999999821186066,0.2648249864578247,0.004812499973922968
1779997455957438000,13.64943798828125,0.0008249999955296516,0.0387750007212162,0.0010999999940395355
1779997455974714400,13.66671435546875,-0.0016499999910593033,-0.20679999887943268,-0.00494999997317791
1779997455991991000,13.683990966796875,-0.003987499978393316,-0.33137500286102295,-0.006187499966472387
1779997456009267500,13.701267333984376,-0.0028874999843537807,-0.26179999113082886,-0.00494999997317791
1779997456026543900,13.7185439453125,-0.0004124999977648258,-0.04193750023841858,0.0010999999940395355
1779997456043820500,13.735820556640626,0.002062499988824129,0.20116250216960907,0.0035749999806284904
1779997456061097000,13.753096923828124,0.004537499975413084,0.32711249589920044,0.006049999967217445
1779997456078373400,13.770373291015625,0.0032999999821186066,0.2623499929904938,0.004812499973922968
1779997456095649800,13.78764990234375,0.0008249999955296516,0.0448249988257885,-0.00013749999925494194
1779997456112926200,13.80492626953125,-0.0028874999843537807,-0.19827499985694885,-0.00494999997317791
1779997456130203000,13.822202880859376,-0.003987499978393316,-0.3240875005722046,-0.007424999959766865
1779997456147479300,13.839479248046874,-0.0028874999843537807,-0.2593249976634979,-0.002612499985843897
1779997456164755700,13.856755615234375,-0.0004124999977648258,-0.045512501150369644,-0.00013749999925494194
1779997456182032100,13.8740322265625,0.002062499988824129,0.19263750314712524,0.0035749999806284904
1779997456199308800,13.891308837890625,0.0032999999821186066,0.3209249973297119,0.006049999967217445
1779997456216585000,13.9085849609375,0.0032999999821186066,0.2611125111579895,0.004812499973922968
1779997456233861600,13.925861572265624,0.0008249999955296516,0.04729999974370003,-0.00013749999925494194
1779997456251138000,13.943137939453125,-0.002749999985098839,-0.19222499430179596,-0.00494999997317791
1779997456268414500,13.96041455078125,-0.003987499978393316,-0.31927499175071716,-0.00494999997317791
1779997456285691100,13.977691162109375,-0.002749999985098839,-0.25808748602867126,-0.0037124999798834324
1779997456302967600,13.994967529296876,-0.0002749999985098839,-0.050462499260902405,0.0010999999940395355
1779997456320244200,14.012244140625,0.002062499988824129,0.18782499432563782,0.0035749999806284904
1779997456337520400,14.029520263671875,0.004537499975413084,0.3148750066757202,0.006049999967217445
1779997456354797000,14.046797119140624,0.002062499988824129,0.2611125111579895,0.004812499973922968
1779997456372073500,14.064073486328125,0.0008249999955296516,0.05335000157356262,-0.00013749999925494194
1779997456389350100,14.08135009765625,-0.002749999985098839,-0.1835625022649765,-0.00494999997317791
1779997456406626600,14.09862646484375,-0.003987499978393316,-0.3106124997138977,-0.006187499966472387
1779997456423903000,14.115903076171875,-0.002749999985098839,-0.25575000047683716,-0.0037124999798834324
1779997456441179100,14.13317919921875,-0.0002749999985098839,-0.0541750006377697,-0.00013749999925494194
1779997456458455800,14.150455810546875,0.0032999999821186066,0.17806249856948853,0.0035749999806284904
1779997456475732200,14.167732177734376,0.004537499975413084,0.3051125109195709,0.006049999967217445
1779997456493008600,14.185008544921875,0.0032999999821186066,0.2536875009536743,0.004812499973922968
1779997456510285300,14.202285400390625,0.0008249999955296516,0.05458749830722809,0.0010999999940395355
1779997456527561700,14.219561767578124,-0.0015124999918043613,-0.1775124967098236,-0.0037124999798834324
1779997456544838100,14.236838134765625,-0.002749999985098839,-0.304562509059906,-0.00494999997317791
1779997456562114600,14.254114501953126,-0.002749999985098839,-0.2545124888420105,-0.0037124999798834324
1779997456579391000,14.271390869140625,-0.0015124999918043613,-0.05898749828338623,0.0010999999940395355
1779997456596667400,14.28866748046875,0.0008249999955296516,0.16940000653266907,0.004812499973922968
1779997456613944000,14.305944091796874,0.0032999999821186066,0.30016249418258667,0.006049999967217445
1779997456631220700,14.323220703125,0.002062499988824129,0.2536875009536743,0.006049999967217445
1779997456648497200,14.3404970703125,-0.0002749999985098839,0.05829999968409538,-0.00013749999925494194
1779997456665773600,14.357773681640625,-0.003987499978393316,-0.17022499442100525,-0.0037124999798834324
1779997456683050000,14.375050048828125,-0.003987499978393316,-0.2985124886035919,-0.007424999959766865
1779997456700326700,14.39232666015625,-0.003987499978393316,-0.24832500517368317,-0.006187499966472387
1779997456717603000,14.40960302734375,-0.0015124999918043613,-0.055275000631809235,-0.002612499985843897
1779997456734879500,14.42687939453125,0.0008249999955296516,0.171875,-0.00013749999925494194
1779997456752156200,14.44415625,0.004537499975413084,0.30016249418258667,0.0035749999806284904
1779997456769432600,14.4614326171875,0.0032999999821186066,0.254925012588501,0.002337499987334013
1779997456786709000,14.478708984375,0.002062499988824129,0.06435000151395798,-0.00013749999925494194
1779997456803985400,14.4959853515625,-0.0004124999977648258,-0.16403749585151672,-0.00494999997317791
1779997456821261800,14.51326171875,-0.0015124999918043613,-0.296037495136261,-0.007424999959766865
1779997456838538200,14.530538330078125,-0.0015124999918043613,-0.2545124888420105,-0.0037124999798834324
1779997456855815000,14.54781494140625,0.0008249999955296516,-0.06517499685287476,-0.002612499985843897
1779997456873091300,14.56509130859375,0.0032999999821186066,0.16087499260902405,0.0035749999806284904
1779997456890367700,14.58236767578125,0.004537499975413084,0.29411250352859497,0.006049999967217445
1779997456907644400,14.59964453125,0.004537499975413084,0.25616249442100525,0.004812499973922968
1779997456924920600,14.616920654296875,0.002062499988824129,0.06806249916553497,0.002337499987334013
1779997456942197200,14.634197265625,-0.0015124999918043613,-0.16046249866485596,-0.0037124999798834324
1779997456959473700,14.6514736328125,-0.002749999985098839,-0.2923249900341034,-0.00494999997317791
1779997456976750000,14.66875,-0.002749999985098839,-0.2545124888420105,-0.0037124999798834324
1779997456994026500,14.686026611328124,-0.0015124999918043613,-0.07122500240802765,-0.00013749999925494194
1779997457011303200,14.70330322265625,0.0008249999955296516,0.15234999358654022,0.0035749999806284904
1779997457028579600,14.72057958984375,0.002062499988824129,0.2866874933242798,0.004812499973922968
1779997457045856000,14.73785595703125,0.002062499988824129,0.25382500886917114,0.004812499973922968
1779997457063132700,14.755132568359375,-0.0004124999977648258,0.07177499681711197,0.002337499987334013
1779997457080409000,14.7724091796875,-0.0015124999918043613,-0.15303750336170197,-0.002612499985843897
1779997457097685200,14.789685302734375,-0.002749999985098839,-0.2862749993801117,-0.00494999997317791
1779997457114962000,14.8069619140625,-0.002749999985098839,-0.2532750070095062,-0.00494999997317791
1779997457132238600,14.824238525390625,-0.0004124999977648258,-0.07369999587535858,-0.00013749999925494194
1779997457149515000,14.841514892578125,0.002062499988824129,0.14630000293254852,0.002337499987334013
1779997457166791400,14.85879150390625,0.0032999999821186066,0.2806375026702881,0.006049999967217445
1779997457184067800,14.87606787109375,0.0030249999836087227,0.2525874972343445,0.00494999997317791
1779997457201344500,14.893344482421876,0.0005499999970197678,0.07548750191926956,0.0012374999932944775
1779997457218620700,14.91062060546875,-0.0030249999836087227,-0.14451250433921814,-0.0037124999798834324
1779997457235897300,14.9278974609375,-0.0042624999769032,-0.27761250734329224,-0.006049999967217445
1779997457253173800,14.945173828125,-0.0030249999836087227,-0.24832500517368317,-0.002474999986588955
1779997457270450200,14.9624501953125,-0.0006874999962747097,-0.07479999959468842,-0.002474999986588955
1779997457287726600,14.9797265625,0.0017874999903142452,0.1414874941110611,0.0037124999798834324
1779997457305003300,14.997003173828125,0.0042624999769032,0.2733500003814697,0.00494999997317791
1779997457322279700,15.01427978515625,0.0030249999836087227,0.2465374916791916,0.00494999997317791
1779997457339556000,15.03155615234375,0.0005499999970197678,0.07548750191926956,0.002474999986588955
1779997457356832800,15.048832763671875,-0.0017874999903142452,-0.14079999923706055,-0.0037124999798834324
1779997457374109200,15.066109130859376,-0.0030249999836087227,-0.27390000224113464,-0.0037124999798834324
1779997457391385600,15.083385498046875,-0.0030249999836087227,-0.24584999680519104,-0.0037124999798834324
1779997457408662000,15.100662109375,-0.0006874999962747097,-0.07603749632835388,0
1779997457425938700,15.117938720703124,0.0030249999836087227,0.13529999554157257,0.002474999986588955
1779997457443215000,15.135215087890625,0.0042624999769032,0.26963749527931213,0.0037124999798834324
1779997457460491500,15.152491455078126,0.0030249999836087227,0.2465374916791916,0.00494999997317791
1779997457477768200,15.169768310546875,0.0017874999903142452,0.08030000329017639,0
1779997457495044400,15.18704443359375,-0.0017874999903142452,-0.13227500021457672,-0.002474999986588955
1779997457512321000,15.204321044921874,-0.0030249999836087227,-0.2666124999523163,-0.006049999967217445
1779997457529597400,15.221597412109375,-0.0030249999836087227,-0.2433750033378601,-0.00494999997317791
1779997457546873900,15.238873779296876,-0.0006874999962747097,-0.07975000143051147,-0.0012374999932944775
1779997457564150300,15.256150390625,0.0017874999903142452,0.13048750162124634,0.0037124999798834324
1779997457581427000,15.273427001953126,0.0030249999836087227,0.26358750462532043,0.0037124999798834324
1779997457598703400,15.290703369140624,0.0030249999836087227,0.24406249821186066,0.00494999997317791
1779997457615979800,15.307979736328125,0.0005499999970197678,0.08153750002384186,0.0012374999932944775
1779997457633256400,15.32525634765625,-0.0017874999903142452,-0.12732499837875366,-0.002474999986588955
1779997457650532900,15.342532958984375,-0.0042624999769032,-0.26179999113082886,-0.006049999967217445
1779997457667809300,15.359809326171876,-0.0030249999836087227,-0.2410375028848648,-0.0037124999798834324
1779997457685085700,15.377085693359374,-0.0006874999962747097,-0.08332499861717224,-0.0012374999932944775
1779997457702362000,15.394362060546875,0.0005499999970197678,0.12306249886751175,0.002474999986588955
1779997457719638500,15.411638427734376,0.0030249999836087227,0.258774995803833,0.00494999997317791
1779997457736915200,15.428915283203125,0.0030249999836087227,0.2428250014781952,0.0037124999798834324
1779997457754191600,15.446191650390626,0.0017874999903142452,0.08648750185966492,0
1779997457771468000,15.463468017578125,-0.0006874999962747097,-0.12127500027418137,-0.0037124999798834324
1779997457788744700,15.48074462890625,-0.0030249999836087227,-0.256850004196167,-0.00494999997317791
1779997457806021000,15.498021240234374,-0.0030249999836087227,-0.2410375028848648,-0.0037124999798834324
1779997457823297800,15.5152978515625,-0.0017874999903142452,-0.0882750004529953,-0.0012374999932944775
1779997457840574200,15.53257421875,0.0017874999903142452,0.11577499657869339,0.0037124999798834324
1779997457857850600,15.5498505859375,0.0030249999836087227,0.2488749921321869,0.006049999967217445
1779997457875127000,15.567126953125,0.0030249999836087227,0.2391124963760376,0.00494999997317791
1779997457892403500,15.584403564453124,0.0005499999970197678,0.08772499859333038,0.002474999986588955
1779997457909680000,15.60168017578125,-0.0017874999903142452,-0.11508750170469284,-0.0037124999798834324
1779997457926956500,15.61895654296875,-0.0030249999836087227,-0.24956250190734863,-0.00494999997317791
1779997457944233200,15.636233154296875,-0.0030249999836087227,-0.23856249451637268,-0.00494999997317791
1779997457961509400,15.65350927734375,-0.0017874999903142452,-0.0882750004529953,-0.002474999986588955
1779997457978786000,15.6707861328125,0.0005499999970197678,0.11453749984502792,0.0037124999798834324
1779997457996062200,15.688062255859375,0.0030249999836087227,0.2488749921321869,0.00494999997317791
1779997458013339000,15.7053388671875,0.0030249999836087227,0.2391124963760376,0.00494999997317791
1779997458030615600,15.722615478515625,0.0005499999970197678,0.08882500231266022,0.0012374999932944775
1779997458047891700,15.7398916015625,-0.0017874999903142452,-0.11151249706745148,-0.0012374999932944775
1779997458065168100,15.757168212890624,-0.0030249999836087227,-0.2470874935388565,-0.006049999967217445
1779997458082444800,15.77444482421875,-0.0030249999836087227,-0.23732499778270721,-0.0037124999798834324
1779997458099721000,15.791720947265626,-0.0006874999962747097,-0.0919874981045723,-0.0012374999932944775
1779997458116997600,15.80899755859375,0.0005499999970197678,0.10477499663829803,0.0012374999932944775
1779997458134274300,15.8262744140625,0.0030249999836087227,0.2428250014781952,0.00494999997317791
1779997458151550700,15.84355078125,0.0017874999903142452,0.2391124963760376,0.0037124999798834324
1779997458168827100,15.8608271484375,0.0005499999970197678,0.09501250088214874,0.0012374999932944775
1779997458186103800,15.878103759765626,-0.0017874999903142452,-0.10408750176429749,-0.0037124999798834324
1779997458203380200,15.895380126953125,-0.0042624999769032,-0.2410375028848648,-0.0037124999798834324
1779997458220657000,15.912656982421876,-0.0030249999836087227,-0.23608750104904175,-0.00494999997317791
1779997458237933000,15.92993310546875,-0.0017874999903142452,-0.09556250274181366,-0.0012374999932944775
1779997458255209700,15.947209716796875,0.0005499999970197678,0.09872499853372574,0.0012374999932944775
1779997458272486100,15.964486083984376,0.0017874999903142452,0.2367749959230423,0.00494999997317791
1779997458289762600,15.981762451171875,0.0017874999903142452,0.23553749918937683,0.006049999967217445
1779997458307039000,15.9990390625,-0.0006874999962747097,0.09501250088214874,0
1779997458324315600,16.016315673828124,-0.0017874999903142452,-0.09927500039339066,-0.0012374999932944775
1779997458341592000,16.033592041015623,-0.0030249999836087227,-0.23608750104904175,-0.006049999967217445
1779997458358868500,16.050868408203126,-0.0030249999836087227,-0.23237499594688416,-0.0037124999798834324
1779997458376145000,16.068144775390625,-0.0006874999962747097,-0.09556250274181366,-0.002474999986588955
1779997458393421300,16.08542138671875,0.0005499999970197678,0.09624999761581421,0.0012374999932944775
1779997458410698000,16.102697998046875,0.0030249999836087227,0.23182499408721924,0.00494999997317791
1779997458427974400,16.119974365234373,0.0030249999836087227,0.23182499408721924,0.0037124999798834324
1779997458445250800,16.137250732421876,0.0005499999970197678,0.09624999761581421,0.0037124999798834324
1779997458462527200,16.15452734375,-0.0017874999903142452,-0.0943249985575676,-0.0037124999798834324
1779997458479804000,16.171803955078126,-0.0030249999836087227,-0.23003749549388885,-0.002474999986588955
1779997458497080300,16.189080322265625,-0.0042624999769032,-0.2311374992132187,-0.0037124999798834324
1779997458514356700,16.206356689453123,-0.0017874999903142452,-0.09927500039339066,-0.0012374999932944775
1779997458531633400,16.22363330078125,0.0005499999970197678,0.08882500231266022,0.0037124999798834324
1779997458548909600,16.24090966796875,0.0030249999836087227,0.22577500343322754,0.0037124999798834324
1779997458566186200,16.258186279296876,0.0030249999836087227,0.23058749735355377,0.006049999967217445
1779997458583463000,16.275462890625,0.0005499999970197678,0.09748750180006027,0
1779997458600739000,16.292739013671873,-0.0017874999903142452,-0.09075000137090683,-0.0012374999932944775
1779997458618015500,16.310015380859376,-0.0030249999836087227,-0.2250874936580658,-0.006049999967217445
1779997458635292200,16.327292236328127,-0.0017874999903142452,-0.2250874936580658,-0.0037124999798834324
1779997458652568600,16.344568603515626,-0.0006874999962747097,-0.0943249985575676,-0.002474999986588955
1779997458669845000,16.361844970703125,0.0017874999903142452,0.09006249904632568,0.0012374999932944775
1779997458687121700,16.37912158203125,0.0030249999836087227,0.2232999950647354,0.00494999997317791
1779997458704398000,16.396398193359374,0.0030249999836087227,0.22453749179840088,0.002474999986588955
1779997458721674500,16.413674560546873,0.0017874999903142452,0.09624999761581421,0.002474999986588955
1779997458738951000,16.430950927734376,-0.0006874999962747097,-0.0882750004529953,-0.0037124999798834324
1779997458756227600,16.4482275390625,-0.0019249999895691872,-0.21779999136924744,-0.006049999967217445
1779997458773503700,16.465503662109374,-0.0030249999836087227,-0.2213750034570694,-0.002474999986588955
1779997458790780400,16.482780517578124,-0.0006874999962747097,-0.09556250274181366,-0.002474999986588955
1779997458808057000,16.50005712890625,0.0005499999970197678,0.08401250094175339,0.0037124999798834324
1779997458825333200,16.517333251953126,0.0030249999836087227,0.2147749960422516,0.002474999986588955
1779997458842610000,16.53460986328125,0.0030249999836087227,0.21834999322891235,0.0037124999798834324
1779997458859886300,16.55188623046875,0.0005499999970197678,0.09501250088214874,0.0037124999798834324
1779997458877163000,16.5691630859375,-0.0006874999962747097,-0.08098749816417694,-0.0037124999798834324
1779997458894439400,16.586439453125,-0.0030249999836087227,-0.2116124927997589,-0.0037124999798834324
1779997458911715800,16.6037158203125,-0.0042624999769032,-0.2190375030040741,-0.00494999997317791
1779997458928992500,16.620992431640627,-0.0019249999895691872,-0.09679999947547913,0
1779997458946268700,16.6382685546875,0.0005499999970197678,0.07906249910593033,0
1779997458963545300,16.65554541015625,0.0017874999903142452,0.20982499420642853,0.002474999986588955
1779997458980821800,16.67282177734375,0.0017874999903142452,0.21834999322891235,0.0037124999798834324
1779997458998098200,16.69009814453125,0.0005499999970197678,0.10106249898672104,0.002474999986588955
1779997459015374600,16.70737451171875,-0.0019249999895691872,-0.07727500051259995,-0.0012374999932944775
1779997459032651300,16.7246513671875,-0.0030249999836087227,-0.20913749933242798,-0.0037124999798834324
1779997459049928000,16.741927978515626,-0.0030249999836087227,-0.21779999136924744,-0.002474999986588955
1779997459067204000,16.7592041015625,-0.0019249999895691872,-0.10175000131130219,-0.002474999986588955
1779997459084480800,16.776480712890624,0.0005499999970197678,0.07177499681711197,0.002474999986588955
1779997459101757200,16.793757080078127,0.0017874999903142452,0.2050125002861023,0.0037124999798834324
1779997459119033600,16.81103369140625,0.0017874999903142452,0.2171124964952469,0.0037124999798834324
1779997459136310300,16.828310302734376,0.0017874999903142452,0.10353749990463257,0.002474999986588955
1779997459153586700,16.845586669921875,-0.0006874999962747097,-0.07356250286102295,-0.002474999986588955
1779997459170863000,16.862863037109374,-0.0030249999836087227,-0.20432500541210175,-0.0037124999798834324
1779997459188139500,16.880139404296877,-0.0030249999836087227,-0.2153249979019165,-0.00494999997317791
1779997459205416200,16.897416259765624,-0.0017874999903142452,-0.10175000131130219,-0.0012374999932944775
1779997459222692600,16.914692626953126,-0.0006874999962747097,0.07177499681711197,0.0012374999932944775
1779997459239969000,16.931968994140625,0.0005499999970197678,0.20253749191761017,0.0037124999798834324
1779997459257245400,16.949245361328124,0.0005499999970197678,0.21601249277591705,0.0037124999798834324
1779997459274521900,16.96652197265625,-0.0006874999962747097,0.10353749990463257,0.002474999986588955
1779997459291798500,16.983798583984374,-0.0017874999903142452,-0.07108750194311142,-0.0012374999932944775
1779997459309075000,17.001074951171876,-0.0030249999836087227,-0.20184999704360962,-0.00494999997317791
1779997459326351400,17.018351318359375,-0.0030249999836087227,-0.21656249463558197,-0.0037124999798834324
1779997459343627800,17.035627685546874,-0.0017874999903142452,-0.10175000131130219,-0.002474999986588955
1779997459360904400,17.052904541015625,0.0005499999970197678,0.06929999589920044,0.002474999986588955
1779997459378180900,17.070180908203124,0.0030249999836087227,0.19882500171661377,0.0037124999798834324
1779997459395457300,17.087457275390626,0.0030249999836087227,0.21353749930858612,0.0037124999798834324
1779997459412734000,17.10473388671875,0.0030249999836087227,0.10477499663829803,0.002474999986588955
1779997459430010400,17.12201025390625,-0.0006874999962747097,-0.06627500057220459,-0.002474999986588955
1779997459447286800,17.139286865234375,-0.0030249999836087227,-0.1993750035762787,-0.0037124999798834324
1779997459464563200,17.156563232421874,-0.0017874999903142452,-0.21285000443458557,-0.0037124999798834324
1779997459481839900,17.17383984375,-0.0006874999962747097,-0.10408750176429749,-0.0012374999932944775
1779997459499116300,17.1911162109375,0.0005499999970197678,0.0644875019788742,0.0012374999932944775
1779997459516392700,17.208392822265626,0.0017874999903142452,0.19634999334812164,0.002474999986588955
1779997459533669400,17.22566943359375,0.0030249999836087227,0.21601249277591705,0.0037124999798834324
1779997459550945800,17.24294580078125,0.0017874999903142452,0.10848750174045563,0.0012374999932944775
1779997459568222200,17.26022216796875,-0.0017874999903142452,-0.0625625029206276,-0.002474999986588955
1779997459585498600,17.27749853515625,-0.0030249999836087227,-0.19456249475479126,-0.00494999997317791
1779997459602775000,17.294775146484376,-0.0030249999836087227,-0.2116124927997589,-0.00494999997317791
1779997459620051500,17.312051513671875,-0.0017874999903142452,-0.10284999758005142,-0.0012374999932944775
1779997459637328100,17.329328125,0.0005499999970197678,0.06324999779462814,0.0012374999932944775
1779997459654604500,17.3466044921875,0.0017874999903142452,0.1915374994277954,0.0037124999798834324
1779997459671881000,17.363880859375,0.0017874999903142452,0.20858749747276306,0.00494999997317791
1779997459689157600,17.38115771484375,0.0008249999955296516,0.10353749990463257,0.002337499987334013
1779997459706434000,17.39843408203125,-0.0016499999910593033,-0.06393750011920929,-0.0013749999925494194
1779997459723710500,17.41571044921875,-0.002749999985098839,-0.19456249475479126,-0.002612499985843897
1779997459740987000,17.43298681640625,-0.002749999985098839,-0.21051250398159027,-0.002612499985843897
1779997459758263600,17.450263671875,-0.0016499999910593033,-0.10670000314712524,-0.00013749999925494194
1779997459775540000,17.4675400390625,-0.0004124999977648258,0.05829999968409538,0.0010999999940395355
1779997459792816400,17.48481640625,0.002062499988824129,0.18906250596046448,0.0035749999806284904
1779997459810093000,17.502093017578126,0.002062499988824129,0.20982499420642853,0.004812499973922968
1779997459827369500,17.519369384765625,0.002062499988824129,0.1083500012755394,0.002337499987334013
1779997459844646000,17.53664599609375,-0.0004124999977648258,-0.055275000631809235,-0.0013749999925494194
1779997459861922300,17.55392236328125,-0.0016499999910593033,-0.18603749573230743,-0.00494999997317791
1779997459879199000,17.571198974609374,-0.002749999985098839,-0.2055625021457672,-0.00494999997317791
1779997459896475400,17.588475341796876,-0.0016499999910593033,-0.10546249896287918,-0.0013749999925494194
1779997459913751800,17.605751708984375,0.0008249999955296516,0.05458749830722809,0.002337499987334013
1779997459931028500,17.623028564453126,0.002062499988824129,0.18287499248981476,0.0035749999806284904
1779997459948305000,17.640304931640625,0.0032999999821186066,0.20363749563694,0.0035749999806284904
1779997459965581300,17.657581298828124,0.0008249999955296516,0.10587500035762787,0.002337499987334013
1779997459982857700,17.674857666015626,-0.0004124999977648258,-0.052937500178813934,-0.0013749999925494194
1779997460000134400,17.692134521484373,-0.002749999985098839,-0.1812250018119812,-0.0037124999798834324
1779997460017410800,17.709410888671876,-0.002749999985098839,-0.2055625021457672,-0.0037124999798834324
1779997460034687200,17.726687255859375,-0.0016499999910593033,-0.10546249896287918,-0.002612499985843897
1779997460051964000,17.7439638671875,0.0008249999955296516,0.05211250111460686,0.002337499987334013
1779997460069240300,17.761240234375,0.002062499988824129,0.179299995303154,0.0035749999806284904
1779997460086516700,17.778516845703123,0.002062499988824129,0.20239999890327454,0.002337499987334013
1779997460103793200,17.795793212890626,0.002062499988824129,0.10711249709129333,0.0010999999940395355
1779997460121069800,17.81306982421875,-0.0004124999977648258,-0.047987498342990875,-0.002612499985843897
1779997460138346200,17.83034619140625,-0.0016499999910593033,-0.17627499997615814,-0.0037124999798834324
1779997460155622700,17.84762255859375,-0.002749999985098839,-0.19827499985694885,-0.00494999997317791
1779997460172899300,17.8648994140625,-0.0004124999977648258,-0.10546249896287918,-0.0013749999925494194
1779997460190175700,17.88217578125,0.0008249999955296516,0.04977500066161156,0.0010999999940395355
1779997460207452200,17.8994521484375,0.002062499988824129,0.17434999346733093,0.0035749999806284904
1779997460224728600,17.916728515625,0.002062499988824129,0.19882500171661377,0.0035749999806284904
1779997460242005200,17.934005126953124,0.0008249999955296516,0.10711249709129333,0.002337499987334013
1779997460259281700,17.95128173828125,-0.0015124999918043613,-0.047987498342990875,-0.00013749999925494194
1779997460276558000,17.96855810546875,-0.002749999985098839,-0.17503750324249268,-0.002474999986588955
1779997460293834500,17.98583447265625,-0.002749999985098839,-0.19951249659061432,-0.002474999986588955
1779997460311111000,18.00311083984375,-0.0015124999918043613,-0.10903749614953995,-0.0013749999925494194
1779997460328387600,18.0203876953125,-0.0004124999977648258,0.04235000163316727,0.0010999999940395355
1779997460345664000,18.0376640625,0.002062499988824129,0.16940000653266907,0.0035749999806284904
1779997460362940400,18.0549404296875,0.002062499988824129,0.19634999334812164,0.0035749999806284904
1779997460380216800,18.072216796875,0.002062499988824129,0.10958749800920486,0.002337499987334013
1779997460397493200,18.0894931640625,-0.0004124999977648258,-0.040699999779462814,-0.0013749999925494194
1779997460414770000,18.10677001953125,-0.0015124999918043613,-0.16651250422000885,-0.0037124999798834324
1779997460432046300,18.12404638671875,-0.002749999985098839,-0.1933249980211258,-0.0037124999798834324
1779997460449322800,18.14132275390625,-0.0015124999918043613,-0.10793749988079071,-0.0013749999925494194
1779997460466599200,18.15859912109375,0.0008249999955296516,0.04001250118017197,0.0010999999940395355
1779997460483875800,18.175875732421876,0.002062499988824129,0.16335000097751617,0.002337499987334013
1779997460501152300,18.19315234375,0.002062499988824129,0.19263750314712524,0.004812499973922968
1779997460518428700,18.2104287109375,0.0008249999955296516,0.10958749800920486,0.0010999999940395355
1779997460535705000,18.227705078125,-0.0004124999977648258,-0.038224998861551285,-0.0013749999925494194
1779997460552981500,18.2449814453125,-0.0015124999918043613,-0.16279999911785126,-0.0037124999798834324
1779997460570258200,18.262258056640626,-0.002749999985098839,-0.19222499430179596,-0.00494999997317791
1779997460587534600,18.27953466796875,-0.0015124999918043613,-0.10793749988079071,-0.0013749999925494194
1779997460604811300,18.296811279296875,-0.0004124999977648258,0.04001250118017197,-0.00013749999925494194
1779997460622087700,18.314087646484374,0.002062499988824129,0.1621125042438507,0.002337499987334013
1779997460639364000,18.331364013671877,0.0008249999955296516,0.19263750314712524,0.002337499987334013
1779997460656640800,18.348640869140624,0.0008249999955296516,0.11082500219345093,0.0010999999940395355
1779997460673917200,18.365917236328126,-0.0004124999977648258,-0.035750001668930054,-0.0013749999925494194
1779997460691193600,18.383193603515625,-0.0017874999903142452,-0.16032500565052032,-0.002474999986588955
1779997460708470000,18.400469970703124,-0.0030249999836087227,-0.1896124929189682,-0.0037124999798834324
1779997460725746400,18.417746337890627,-0.0006874999962747097,-0.11027500033378601,-0.002474999986588955
1779997460743022800,18.43502294921875,0.0005499999970197678,0.03396249935030937,0.0012374999932944775
1779997460760299500,18.452299560546876,0.0030249999836087227,0.15729999542236328,0.00494999997317791
1779997460777576000,18.469575927734375,0.0017874999903142452,0.18782499432563782,0.0037124999798834324
1779997460794852400,18.486852294921874,0.0017874999903142452,0.10724999755620956,0.0037124999798834324
1779997460812128800,18.504128662109373,-0.0006874999962747097,-0.03698749840259552,-0.0012374999932944775
1779997460829405200,18.5214052734375,-0.0017874999903142452,-0.15908749401569366,-0.0012374999932944775
1779997460846681900,18.538681884765627,-0.0017874999903142452,-0.1896124929189682,-0.0037124999798834324
1779997460863958300,18.555958251953125,-0.0017874999903142452,-0.11027500033378601,0
1779997460881235000,18.57323486328125,-0.0006874999962747097,0.03272499889135361,0
1779997460898511000,18.590510986328123,0.0017874999903142452,0.15606249868869781,0.0037124999798834324
1779997460915787800,18.607787841796874,0.0017874999903142452,0.18906250596046448,0.0037124999798834324
1779997460933064400,18.625064453125,0.0017874999903142452,0.1120624989271164,0.0012374999932944775
1779997460950340600,18.642340576171875,-0.0006874999962747097,-0.02956249937415123,-0.0012374999932944775
1779997460967617300,18.6596171875,-0.0030249999836087227,-0.1518000066280365,-0.0037124999798834324
1779997460984893700,18.676893798828125,-0.0017874999903142452,-0.18479999899864197,-0.0037124999798834324
1779997461002170000,18.694170166015624,-0.0017874999903142452,-0.10903749614953995,-0.0012374999932944775
1779997461019446500,18.711446533203127,-0.0006874999962747097,0.029012499377131462,0
1779997461036723200,18.72872314453125,0.0017874999903142452,0.14877499639987946,0.0037124999798834324
1779997461053999600,18.74599951171875,0.0030249999836087227,0.18301250040531158,0.0037124999798834324
1779997461071276000,18.763276123046875,0.0005499999970197678,0.10848750174045563,0.002474999986588955
1779997461088552700,18.780552734375,-0.0006874999962747097,-0.02722499892115593,0
1779997461105829000,18.7978291015625,-0.0017874999903142452,-0.1480875015258789,-0.0037124999798834324
1779997461123105500,18.81510546875,-0.0017874999903142452,-0.18108749389648438,-0.002474999986588955
1779997461140382000,18.8323818359375,-0.0017874999903142452,-0.10779999941587448,-0.002474999986588955
1779997461157658600,18.84965869140625,0.0005499999970197678,0.027775000780820847,0.0012374999932944775
1779997461174935000,18.86693505859375,0.0005499999970197678,0.14506250619888306,0.002474999986588955
1779997461192211500,18.88421142578125,0.0017874999903142452,0.18053749203681946,0.0012374999932944775
1779997461209488100,18.901488037109374,0.0005499999970197678,0.1097249984741211,0.0012374999932944775
1779997461226764500,18.9187646484375,-0.0006874999962747097,-0.02227500081062317,-0.0012374999932944775
1779997461244041000,18.936041015625,-0.0017874999903142452,-0.14327499270439148,-0.0037124999798834324
1779997461261317400,18.9533173828125,-0.0017874999903142452,-0.17627499997615814,-0.0037124999798834324
1779997461278594000,18.970593994140625,-0.0017874999903142452,-0.10903749614953995,-0.002474999986588955
1779997461295870200,18.9878701171875,-0.0006874999962747097,0.021724998950958252,0.0012374999932944775
1779997461313147000,19.00514697265625,0.0017874999903142452,0.14024999737739563,0.0037124999798834324
1779997461330423600,19.022423583984374,0.0017874999903142452,0.1755875051021576,0.0037124999798834324
1779997461347699700,19.03969970703125,0.0005499999970197678,0.10724999755620956,0.0037124999798834324
1779997461364976400,19.056976318359375,-0.0006874999962747097,-0.02227500081062317,0
1779997461382252800,19.074252685546874,-0.0017874999903142452,-0.13832500576972961,-0.002474999986588955
1779997461399529200,19.091529296875,-0.0030249999836087227,-0.17132499814033508,-0.002474999986588955
1779997461416806000,19.108805908203124,-0.0006874999962747097,-0.10532499849796295,-0.0012374999932944775
1779997461434082300,19.126082275390626,0.0005499999970197678,0.021724998950958252,0.0012374999932944775
1779997461451358700,19.143358642578125,0.0005499999970197678,0.13529999554157257,0.002474999986588955
1779997461468635100,19.16063525390625,0.0017874999903142452,0.17077499628067017,0.0037124999798834324
1779997461485911800,19.177911865234375,0.0017874999903142452,0.1060125008225441,0.002474999986588955
1779997461503188200,19.195188232421874,-0.0006874999962747097,-0.021037500351667404,-0.0012374999932944775
1779997461520464600,19.212464599609376,-0.0017874999903142452,-0.1358499974012375,-0.002474999986588955
1779997461537741300,19.2297412109375,-0.0017874999903142452,-0.1676124930381775,-0.002474999986588955
1779997461555017700,19.247017822265626,-0.0017874999903142452,-0.10175000131130219,-0.0012374999932944775
1779997461572294100,19.264294189453125,-0.0006874999962747097,0.021724998950958252,0
1779997461589570600,19.281570556640624,0.0005499999970197678,0.1340624988079071,0.0037124999798834324
1779997461606847000,19.298846923828126,0.0005499999970197678,0.16706250607967377,0.002474999986588955
1779997461624123400,19.316123291015625,0.0005499999970197678,0.10477499663829803,0.002474999986588955
1779997461641400000,19.333400146484376,-0.0006874999962747097,-0.021037500351667404,0
1779997461658676700,19.3506767578125,-0.0006874999962747097,-0.1335124969482422,-0.002474999986588955
1779997461675953200,19.367953125,-0.0017874999903142452,-0.1676124930381775,0
1779997461693229600,19.3852294921875,-0.0004124999977648258,-0.10670000314712524,-0.002474999986588955
1779997461710506000,19.402506103515623,0.0008249999955296516,0.015537500381469727,0.002337499987334013
1779997461727782400,19.419782470703126,0.002062499988824129,0.12911249697208405,0.0010999999940395355
1779997461745058800,19.437058837890625,0.002062499988824129,0.16830000281333923,0.004812499973922968
1779997461762335500,19.45433544921875,0.0008249999955296516,0.1083500012755394,0.0010999999940395355
1779997461779612200,19.471612060546875,-0.0004124999977648258,-0.014987500384449959,-0.0013749999925494194
1779997461796888600,19.488888671875,-0.0015124999918043613,-0.1274625062942505,-0.002474999986588955
1779997461814165000,19.5061650390625,-0.002749999985098839,-0.1652749925851822,-0.0037124999798834324
1779997461831441400,19.52344140625,-0.0004124999977648258,-0.10546249896287918,-0.00013749999925494194
1779997461848717800,19.5407177734375,-0.0004124999977648258,0.015537500381469727,-0.00013749999925494194
1779997461865994200,19.557994140625,0.0008249999955296516,0.1266375035047531,0.002337499987334013
1779997461883271000,19.57527099609375,0.002062499988824129,0.16458749771118164,0.0035749999806284904
1779997461900547300,19.59254736328125,0.0008249999955296516,0.10711249709129333,0.002337499987334013
1779997461917823700,19.60982373046875,-0.0004124999977648258,-0.013749999925494194,0.0010999999940395355
1779997461935100400,19.627100341796876,-0.0015124999918043613,-0.12622499465942383,-0.0037124999798834324
1779997461952376800,19.644376953125,-0.002749999985098839,-0.16403749585151672,-0.0013749999925494194
1779997461969653200,19.6616533203125,-0.0015124999918043613,-0.10670000314712524,-0.002474999986588955
1779997461986929700,19.6789296875,0.0008249999955296516,0.010587500408291817,0.002337499987334013
1779997462004206300,19.696206298828123,0.002062499988824129,0.12306249886751175,0.0010999999940395355
1779997462021482800,19.713482666015626,0.002062499988824129,0.16335000097751617,0.002337499987334013
1779997462038759200,19.73075927734375,0.002062499988824129,0.10958749800920486,0.002337499987334013
1779997462056035800,19.748035888671875,-0.0004124999977648258,-0.007699999958276749,-0.002474999986588955
1779997462073312300,19.765312255859374,-0.0015124999918043613,-0.11879999935626984,-0.002474999986588955
1779997462090588700,19.782588623046873,-0.0015124999918043613,-0.1592250019311905,-0.00494999997317791
1779997462107865000,19.799864990234376,-0.0015124999918043613,-0.10793749988079071,-0.0013749999925494194
1779997462125141800,19.817141845703127,0.0008249999955296516,0.009349999949336052,0.0010999999940395355
1779997462142418200,19.834418212890625,0.002062499988824129,0.11811249703168869,0.002337499987334013
1779997462159694600,19.851694580078124,0.002062499988824129,0.15729999542236328,0.0035749999806284904
1779997462176971300,19.86897119140625,0.0008249999955296516,0.10353749990463257,0.0010999999940395355
1779997462194247400,19.886247314453126,-0.0004124999977648258,-0.008937500417232513,0.0010999999940395355
1779997462211524000,19.903524169921877,-0.0015124999918043613,-0.11769999563694,-0.002474999986588955
1779997462228800500,19.920800537109375,-0.002749999985098839,-0.15674999356269836,-0.0037124999798834324
1779997462246077000,19.938076904296874,-0.0015124999918043613,-0.10422500222921371,-0.0013749999925494194
1779997462263353300,19.955353271484373,-0.0004124999977648258,0.009349999949336052,-0.00013749999925494194
1779997462280630000,19.972630126953124,0.0008249999955296516,0.11687500029802322,0.0035749999806284904
1779997462297906400,19.989906494140627,0.0008249999955296516,0.15729999542236328,0.0010999999940395355
1779997462315182800,20.007182861328126,0.0008249999955296516,0.1083500012755394,0.0010999999940395355
1779997462332459500,20.02445947265625,-0.0004124999977648258,-0.005224999971687794,-0.00013749999925494194
1779997462349736000,20.04173583984375,-0.0015124999918043613,-0.113987497985363,-0.002474999986588955
1779997462367012400,20.059012451171874,-0.0015124999918043613,-0.15674999356269836,-0.0013749999925494194
1779997462384289000,20.0762890625,-0.0015124999918043613,-0.10793749988079071,-0.0013749999925494194
1779997462401565400,20.0935654296875,-0.0004124999977648258,0.002062499988824129,0.002337499987334013
1779997462418841900,20.110841796875,0.0008249999955296516,0.10958749800920486,0.0035749999806284904
1779997462436118300,20.1281181640625,0.0008249999955296516,0.15111249685287476,0.0035749999806284904
1779997462453395000,20.14539501953125,0.002062499988824129,0.10587500035762787,0.002337499987334013
1779997462470671000,20.162671142578127,0.0008249999955296516,-0.002749999985098839,-0.0013749999925494194
1779997462487947800,20.17994775390625,-0.0015124999918043613,-0.10903749614953995,-0.0013749999925494194
1779997462505224200,20.19722412109375,-0.0015124999918043613,-0.1494625061750412,-0.0037124999798834324
1779997462522500900,20.2145009765625,-0.0015124999918043613,-0.10298749804496765,-0.0013749999925494194
1779997462539777300,20.23177734375,0.0008249999955296516,0.0032999999821186066,-0.00013749999925494194
1779997462557053700,20.2490537109375,0.002062499988824129,0.1083500012755394,0.002337499987334013
1779997462574330000,20.266330078125,0.002062499988824129,0.1498750001192093,0.002337499987334013
1779997462591606500,20.2836064453125,0.002062499988824129,0.10353749990463257,0.0010999999940395355
1779997462608883200,20.30088330078125,0.0008249999955296516,-0.002749999985098839,-0.00013749999925494194
1779997462626159900,20.318159912109376,-0.0004124999977648258,-0.10670000314712524,-0.0013749999925494194
1779997462643436000,20.33543603515625,-0.0015124999918043613,-0.14822499454021454,-0.0037124999798834324
1779997462660712700,20.352712646484374,-0.0015124999918043613,-0.10298749804496765,-0.00013749999925494194
1779997462677989000,20.369989013671876,-0.0004124999977648258,0.0008249999955296516,-0.00013749999925494194
1779997462695265800,20.387265869140624,-0.0004124999977648258,0.10353749990463257,0.002337499987334013
1779997462712542200,20.404542236328126,0.0008249999955296516,0.14630000293254852,0.002337499987334013
1779997462729818600,20.421818603515625,0.0008249999955296516,0.10477499663829803,0.002337499987334013
1779997462747095300,20.43909521484375,-0.0004124999977648258,0.0008249999955296516,-0.00013749999925494194
1779997462764371700,20.456371826171875,-0.0028874999843537807,-0.10175000131130219,-0.002612499985843897
1779997462781648100,20.473648193359374,-0.0028874999843537807,-0.14327499270439148,-0.0037124999798834324
1779997462798924500,20.490924560546876,-0.0016499999910593033,-0.10051249712705612,-0.002612499985843897
1779997462816201000,20.508200927734375,-0.0004124999977648258,0.0008249999955296516,-0.0013749999925494194
1779997462833477400,20.525477294921874,0.0008249999955296516,0.10106249898672104,0.0010999999940395355
1779997462850754000,20.542754150390625,0.002062499988824129,0.1438249945640564,0.0010999999940395355
1779997462868030500,20.560030517578124,0.002062499988824129,0.1023000031709671,0.002337499987334013
1779997462885307000,20.577306884765626,0.0008249999955296516,0.0008249999955296516,-0.00013749999925494194
1779997462902583600,20.59458349609375,-0.0004124999977648258,-0.10175000131130219,-0.002612499985843897
1779997462919860000,20.61185986328125,-0.0016499999910593033,-0.14327499270439148,-0.0013749999925494194
1779997462937136400,20.629136474609375,-0.0004124999977648258,-0.10422500222921371,-0.0013749999925494194
1779997462954412800,20.646412841796874,-0.0004124999977648258,-0.005224999971687794,0.0010999999940395355
1779997462971689500,20.663689453125,0.0008249999955296516,0.09611249715089798,0.002337499987334013
1779997462988966000,20.6809658203125,0.002062499988824129,0.13887499272823334,0.0035749999806284904
1779997463006242300,20.6982421875,0.0008249999955296516,0.1023000031709671,0.002337499987334013
1779997463023519000,20.71551904296875,-0.0004124999977648258,0.0032999999821186066,-0.00013749999925494194
1779997463040795100,20.732795166015624,-0.0016499999910593033,-0.09569999575614929,-0.002612499985843897
1779997463058071800,20.75007177734375,-0.0016499999910593033,-0.13956250250339508,-0.0037124999798834324
1779997463075348500,20.767348388671873,-0.0004124999977648258,-0.10051249712705612,-0.0013749999925494194
1779997463092625000,20.784625,-0.0004124999977648258,-0.005224999971687794,-0.00013749999925494194
1779997463109901300,20.8019013671875,0.0008249999955296516,0.09501250088214874,0.0010999999940395355
1779997463127177700,20.819177734375,0.0008249999955296516,0.13887499272823334,0.002337499987334013
1779997463144454100,20.8364541015625,0.0008249999955296516,0.1023000031709671,0.002337499987334013
1779997463161730600,20.85373046875,-0.0004124999977648258,0.007012499962002039,-0.00013749999925494194
1779997463179007200,20.87100732421875,-0.0004124999977648258,-0.0919874981045723,-0.0037124999798834324
1779997463196284000,20.888283935546873,-0.0016499999910593033,-0.13598750531673431,-0.0037124999798834324
1779997463213560000,20.90556005859375,-0.0016499999910593033,-0.10051249712705612,-0.002612499985843897
1779997463230836700,20.922836669921875,0.0008249999955296516,-0.005224999971687794,-0.00013749999925494194
1779997463248113200,20.940113037109374,0.0008249999955296516,0.08882500231266022,-0.00013749999925494194
1779997463265389600,20.9573896484375,0.0008249999955296516,0.13282500207424164,0.0035749999806284904
1779997463282666000,20.974666015625,-0.0004124999977648258,0.09982500225305557,0.002337499987334013
