time,seconds_elapsed,z,y,x
1779997442654588200,0.346588134765625,-0.002749999985098839,-0.010999999940395355,-0.004812499973922968
1779997442671864300,0.3638642578125,-0.003987499978393316,-0.018287500366568565,-0.002337499987334013
1779997442689140700,0.381140625,-0.002749999985098839,-0.013337500393390656,0.007424999959766865
1779997442706417000,0.3984169921875,-0.002749999985098839,-0.0085249999538064,-0.0010999999940395355
1779997442723693600,0.415693603515625,-0.0015124999918043613,0.010999999940395355,0.01347499992698431
1779997442740969700,0.4329697265625,0.0009624999947845936,0.025712499395012856,0.02694999985396862
1779997442758246100,0.45024609375,-0.0015124999918043613,0.01718750037252903,-0.007287499960511923
1779997442775522300,0.467522216796875,-0.003987499978393316,-0.0010999999940395355,-0.03904999792575836
1779997442792798700,0.484798828125,-0.0015124999918043613,-0.004812499973922968,-0.01209999993443489
1779997442810075100,0.5020751953125,-0.0002749999985098839,-0.007287499960511923,0.0147124994546175
1779997442827351300,0.519351318359375,-0.0015124999918043613,-0.015812499448657036,0.00494999997317791
1779997442844627700,0.536627685546875,-0.003987499978393316,-0.015812499448657036,-0.013337500393390656
1779997442861904000,0.55390380859375,-0.0015124999918043613,0.0037124999798834324,0.006187499966472387
1779997442879180300,0.57118017578125,-0.0002749999985098839,0.02199999988079071,0.025712499395012856
1779997442896456700,0.588456787109375,-0.0015124999918043613,0.0147124994546175,0.00013749999925494194
1779997442913732900,0.60573291015625,-0.003987499978393316,-0.007287499960511923,-0.032862499356269836
1779997442931009300,0.62300927734375,-0.003987499978393316,-0.014574999921023846,-0.025575000792741776
1779997442948285400,0.640285400390625,-0.0015124999918043613,-0.004812499973922968,0.0037124999798834324
1779997442965561900,0.657561767578125,-0.0015124999918043613,0.00494999997317791,0.00494999997317791
1779997442982838000,0.674838134765625,-0.002749999985098839,0.007424999959766865,-0.0010999999940395355
1779997443000114400,0.692114501953125,-0.0015124999918043613,0.02199999988079071,0.01966249942779541
1779997443017390800,0.709390869140625,-0.0002749999985098839,0.059950001537799835,0.05623750016093254
1779997443034667000,0.7266669921875,0.0034374999813735485,0.08442500233650208,0.07823749631643295
1779997443051943400,0.743943359375,0.002199999988079071,0.06599999964237213,0.028187500312924385
1779997443069219600,0.761219482421875,-0.003987499978393316,-0.010999999940395355,-0.08910000324249268
1779997443086496300,0.778496337890625,-0.01251249946653843,-0.07933750003576279,-0.12815000116825104
1779997443103772700,0.795772705078125,-0.006324999965727329,-0.07081250101327896,-0.020624998956918716
1779997443121048800,0.813048828125,-0.0015124999918043613,-0.059812501072883606,0.04647500067949295
1779997443138325200,0.8303251953125,-0.007562499959021807,-0.08428750187158585,-0.032862499356269836
1779997443155601700,0.8476015625,-0.007699999958276749,-0.08662500232458115,-0.06338749825954437
1779997443172877800,0.8648779296875,-0.003987499978393316,-0.04152499884366989,-0.018287500366568565
1779997443190154200,0.882154296875,-0.0015124999918043613,0.01223750039935112,0.018424998968839645
1779997443207430400,0.899430419921875,-0.0002749999985098839,0.03423750028014183,0.023375000804662704
1779997443224706800,0.916706787109375,-0.0002749999985098839,0.03423750028014183,0.00989999994635582
1779997443241983200,0.933983154296875,-0.0015124999918043613,0.02694999985396862,0.006187499966472387
1779997443259259400,0.95125927734375,-0.0002749999985098839,0.01966249942779541,0.006187499966472387
1779997443276535800,0.968535888671875,0.0009624999947845936,0.018424998968839645,0.02213750034570694
1779997443293812000,0.98581201171875,0.0009624999947845936,0.0147124994546175,0.028187500312924385
1779997443311088600,1.003088623046875,-0.0002749999985098839,0.007424999959766865,0.01347499992698431
1779997443328364500,1.020364501953125,-0.002749999985098839,0.00013749999925494194,-0.018287500366568565
1779997443345641200,1.03764111328125,-0.002749999985098839,0.00013749999925494194,-0.013337500393390656
1779997443362917400,1.05491748046875,-0.0015124999918043613,0.008662499487400055,0.008662499487400055
1779997443380193800,1.07219384765625,-0.0002749999985098839,0.01223750039935112,0.011137500405311584
1779997443397470000,1.089469970703125,-0.0002749999985098839,0.01718750037252903,0.012374999932944775
1779997443414746400,1.106746337890625,-0.0002749999985098839,0.02447500079870224,0.025712499395012856
1779997443432022800,1.124022705078125,-0.0015124999918043613,0.023237500339746475,0.025712499395012856
1779997443449299200,1.14129931640625,-0.006462499964982271,0.006187499966472387,-0.0010999999940395355
1779997443466575400,1.158575439453125,-0.005224999971687794,0.007424999959766865,-0.0193875003606081
1779997443483851800,1.175851806640625,-0.002749999985098839,0.01966249942779541,-0.0035749999806284904
1779997443501128000,1.1931279296875,-0.002749999985098839,0.03671250119805336,0.020899999886751175
1779997443518404400,1.210404296875,-0.0002749999985098839,0.040424998849630356,0.03918749839067459
1779997443535680800,1.2276806640625,0.002062499988824129,0.02694999985396862,0.028187500312924385
1779997443552957000,1.24495703125,-0.003987499978393316,0.015949999913573265,-0.014574999921023846
1779997443570233300,1.2622333984375,-0.002749999985098839,0.01966249942779541,-0.009624999947845936
1779997443587509800,1.279509765625,0.0009624999947845936,0.03189999982714653,0.028187500312924385
1779997443613424000,1.305424072265625,-0.002749999985098839,0.032999999821186066,0.03189999982714653
1779997443630700500,1.322700439453125,-0.002749999985098839,0.00013749999925494194,0.00013749999925494194
1779997443647977000,1.33997705078125,-0.005224999971687794,-0.03162499889731407,-0.04386249929666519
1779997443665253000,1.357253173828125,-0.00494999997317791,-0.035475000739097595,-0.037812501192092896
1779997443682529500,1.374529541015625,-0.002474999986588955,-0.015812499448657036,0.006049999967217445
1779997443699805700,1.3918056640625,-0.002474999986588955,-0.00976249948143959,0.00494999997317791
1779997443717082400,1.409082275390625,-0.002474999986588955,-0.01223750039935112,-0.01347499992698431
1779997443734358500,1.426358642578125,-0.0037124999798834324,-0.006049999967217445,-0.01952499896287918
1779997443751635000,1.443635009765625,-0.0037124999798834324,0,-0.0085249999538064
1779997443768911400,1.460911376953125,-0.0012374999932944775,0.007287499960511923,0.0037124999798834324
1779997443786187500,1.4781875,0.0012374999932944775,0.018287500366568565,0.0317624993622303
1779997443803464000,1.4954638671875,0,0.015949999913573265,0.030524998903274536
1779997443820740000,1.512739990234375,-0.002474999986588955,0.002474999986588955,-0.010999999940395355
1779997443838016500,1.5300166015625,-0.0012374999932944775,0.0085249999538064,-0.006049999967217445
1779997443855292700,1.547292724609375,0.0012374999932944775,0.02928750030696392,0.037812501192092896
1779997443872569300,1.5645693359375,0,0.023237500339746475,0.032999999821186066
1779997443889845500,1.581845458984375,-0.0037124999798834324,0.0012374999932944775,0.006049999967217445
1779997443907122000,1.599121826171875,-0.0012374999932944775,-0.02681249938905239,0.0012374999932944775
1779997443924398000,1.616398193359375,-0.0012374999932944775,-0.06476250290870667,-0.002474999986588955
1779997443941674500,1.633674560546875,-0.002474999986588955,-0.1527625024318695,-0.018287500366568565
1779997443958951000,1.650950927734375,-0.00976249948143959,-0.3139125108718872,-0.07204999774694443
1779997443976227300,1.668227294921875,-0.018287500366568565,-0.5497249960899353,-0.17586250603199005
1779997443993503500,1.68550341796875,-0.02928750030696392,-0.8368250131607056,-0.29205000400543213
1779997444010780000,1.70277978515625,-0.007287499960511923,-1.2742124795913696,-0.21133749186992645
1779997444028056000,1.72005615234375,-0.11357499659061432,-2.1404623985290527,0.33838748931884766
1779997444045332700,1.737332763671875,-0.14781250059604645,-3.145862579345703,-0.3371500074863434
1779997444062609000,1.75460888671875,-0.1344749927520752,-3.2033374309539795,0.345674991607666
1779997444079885300,1.77188525390625,-0.010999999940395355,-1.6847875118255615,0.3445749878883362
1779997444097161700,1.78916162109375,0.015812499448657036,0.4129124879837036,1.0091124773025513
1779997444123076000,1.815076171875,-0.09171249717473984,2.8331875801086426,1.0738749504089355
1779997444140352500,1.8323525390625,-0.10999999940395355,2.519137382507324,-1.3341624736785889
1779997444166267000,1.858266845703125,-0.010037500411272049,0.19304999709129333,-0.7035874724388123
1779997444183543300,1.875543212890625,0.0057749999687075615,-1.96693754196167,2.835662603378296
1779997444209458000,1.9014580078125,0.018012499436736107,-2.648662567138672,-0.9101125001907349
1779997444226734000,1.918734130859375,-0.003987499978393316,-0.952875018119812,-0.7781124711036682
1779997444244010500,1.936010498046875,0.002199999988079071,1.0165375471115112,0.2480500042438507
1779997444261287000,1.953286865234375,-0.01251249946653843,2.524087429046631,0.5963374972343445
1779997444278563000,1.97056298828125,-0.01746249943971634,2.687849998474121,-0.9088749885559082
1779997444295839500,1.987839599609375,0.030249999836087227,1.538212537765503,-0.647350013256073
1779997444313116000,2.005115966796875,0.018012499436736107,-0.7940624952316284,1.3611124753952026
1779997444330392000,2.02239208984375,-0.06379999965429306,-2.7352874279022217,-1.5698374509811401
1779997444347668500,2.03966845703125,-0.047987498342990875,-2.702287435531616,0.7343875169754028
1779997444364945000,2.05694482421875,0.05101250112056732,-0.8868749737739563,1.1655875444412231
1779997444382221300,2.07422119140625,0.010724999941885471,0.8931999802589417,1.5834499597549438
1779997444408135700,2.1001357421875,-0.14079999923706055,2.3542749881744385,0.023375000804662704
1779997444425412000,2.117412109375,-0.0882750004529953,1.639549970626831,-2.736525058746338
1779997444442688300,2.134688232421875,-0.018562499433755875,0.8394374847412109,-2.4433748722076416
1779997444459964700,2.151964599609375,0.029012499377131462,-1.285212516784668,3.577199935913086
1779997444477241000,2.169240966796875,0.06324999779462814,-2.438425064086914,0.4020499885082245
1779997444494517500,2.186517578125,0.021724998950958252,-2.255275011062622,-1.153212547302246
1779997444511794000,2.2037939453125,-0.013749999925494194,-0.6852999925613403,-0.9833999872207642
1779997444529070300,2.2210703125,0.008249999955296516,1.1081124544143677,-0.08181250095367432
1779997444546346500,2.238346435546875,0.02419999986886978,2.382462501525879,0.2199999988079071
1779997444563623000,2.255622802734375,0.021724998950958252,2.2651751041412354,-0.15633749961853027
1779997444580899300,2.2728994140625,0.011962499469518661,0.7147250175476074,0.21147499978542328
1779997444598175700,2.29017578125,-0.023512499406933784,-1.3157374858856201,-0.17338749766349792
1779997444615452000,2.307451904296875,-0.035750001668930054,-2.451900005340576,-0.0193875003606081
1779997444632728300,2.324728271484375,-0.02956249937415123,-2.1025125980377197,0.035475000739097595
1779997444650004700,2.342004638671875,0.004537499975413084,-0.5277249813079834,0.23704999685287476
1779997444667281000,2.359281005859375,0.008249999955296516,1.1375374794006348,0.6976749897003174
1779997444684557300,2.376557373046875,-0.02474999986588955,2.2345125675201416,0.25671249628067017
1779997444701833700,2.393833740234375,-0.02474999986588955,1.9866000413894653,-1.5453624725341797
1779997444719110000,2.41110986328125,0.03272499889135361,0.8076750040054321,0.3750999867916107
1779997444736386300,2.42838623046875,-0.008799999952316284,-0.9479249715805054,0.64267498254776
1779997444753662500,2.445662353515625,-0.056512501090765,-2.2760374546051025,-1.4415500164031982
1779997444770939000,2.46293896484375,-0.02722499892115593,-2.103749990463257,1.097249984741211
1779997444788215300,2.48021533203125,0.03753750026226044,-0.49720001220703125,1.0202499628067017
1779997444805491700,2.49749169921875,-0.0015124999918043613,0.9627749919891357,1.0678249597549438
1779997444822768000,2.51476806640625,-0.07232499867677689,1.8655999898910522,0.18947499990463257
1779997444840044500,2.53204443359375,-0.056512501090765,1.709262490272522,-1.831225037574768
1779997444857320700,2.54932080078125,-0.0015124999918043613,1.136299967765808,-2.122037410736084
1779997444874597000,2.56659716796875,0.029012499377131462,-0.6462500095367432,2.7685625553131104
1779997444891873500,2.58387353515625,0.027775000780820847,-1.9692749977111816,-0.38967499136924744
1779997444909150000,2.60114990234375,-0.057750001549720764,-2.0462749004364014,-1.8484125137329102
1779997444926426000,2.618426025390625,-0.01732499897480011,-0.9101125001907349,0.9530124664306641
1779997444943702500,2.63570263671875,0.025437500327825546,0.8955374956130981,1.5199249982833862
1779997444960979000,2.65297900390625,-0.033275000751018524,1.771549940109253,0.8711999654769897
1779997444978255000,2.670255126953125,-0.050324998795986176,1.6530250310897827,-1.1177375316619873
1779997445004170000,2.696169921875,0.009487500414252281,0.38362500071525574,-0.2759625017642975
1779997445021446000,2.71344580078125,-0.011274999938905239,-0.8600624799728394,1.971887469291687
1779997445038722600,2.73072265625,0.0009624999947845936,-1.8299875259399414,-0.8673499822616577
1779997445055998700,2.747998779296875,-0.047987498342990875,-1.2887874841690063,-1.4635499715805054
1779997445073275100,2.765275146484375,0.004537499975413084,-0.1905750036239624,1.1620124578475952
1779997445090551600,2.782551513671875,0.013199999928474426,1.3084499835968018,1.1655875444412231
1779997445116466000,2.8084658203125,-0.02227500081062317,1.4929749965667725,-0.9381625056266785
1779997445133742600,2.82574267578125,-0.007562499959021807,0.9590625166893005,-1.7859874963760376
1779997445151018800,2.843018798828125,0.025437500327825546,-0.38472500443458557,2.0256500244140625
1779997445176933400,2.868933349609375,-0.02694999985396862,-1.8044124841690063,-1.5625499486923218
1779997445194209800,2.886209716796875,-0.025712499395012856,-1.3792624473571777,0.5021499991416931
1779997445211486000,2.90348583984375,0.02447500079870224,-0.0952875018119812,1.115399956703186
1779997445228762400,2.920762451171875,0.002474999986588955,0.9565874934196472,0.6304374933242798
1779997445246038500,2.93803857421875,-0.025712499395012856,1.4122624397277832,-0.5167250037193298
1779997445263315200,2.955315185546875,-0.0317624993622303,1.1349250078201294,-2.086699962615967
1779997445280591400,2.97259130859375,0.02928750030696392,0.2638624906539917,1.3279750347137451
1779997445297867800,2.98986767578125,-0.015949999913573265,-0.7477250099182129,0.1527625024318695
1779997445315144200,3.007144287109375,-0.030524998903274536,-1.5100250244140625,-1.4294500350952148
1779997445332420400,3.02442041015625,-0.01223750039935112,-1.3316874504089355,1.1886874437332153
1779997445349696800,3.04169677734375,0.02928750030696392,-0.24310000240802765,0.725724995136261
1779997445375611400,3.067611328125,-0.01223750039935112,0.9908249974250793,-0.2626250088214874
1779997445392887800,3.0848876953125,-0.020762499421834946,1.2266374826431274,-1.4196875095367432
1779997445410164200,3.102164306640625,0.030524998903274536,0.9383000135421753,0.48743748664855957
1779997445427440400,3.1194404296875,-0.00494999997317791,0.04399999976158142,0.42762500047683716
1779997445444716800,3.136716796875,-0.0317624993622303,-1.0213500261306763,-1.0726374387741089
1779997445461993000,3.153992919921875,-0.010999999940395355,-1.3952125310897827,1.0262999534606934
1779997445479269600,3.17126953125,0,-0.9418749809265137,0.0635249987244606
1779997445496545800,3.1885458984375,-0.0085249999538064,-0.0635249987244606,-0.4068624973297119
1779997445513822200,3.205822265625,0.007287499960511923,0.9663500189781189,-0.30662500858306885
1779997445531098600,3.2230986328125,0.015812499448657036,1.3756874799728394,0.41909998655319214
1779997445548375000,3.240375,0.0037124999798834324,0.9945374727249146,-0.26138749718666077
1779997445565651200,3.257651123046875,0.0012374999932944775,0.01952499896287918,0.1527625024318695
1779997445582927600,3.274927734375,-0.0147124994546175,-0.9908249974250793,-0.0317624993622303
1779997445600204000,3.2922041015625,-0.020762499421834946,-1.3572624921798706,-0.1588124930858612
1779997445617480400,3.30948046875,-0.010999999940395355,-0.9553499817848206,0.2186249941587448
1779997445634756900,3.3267568359375,0,-0.02447500079870224,-0.06599999964237213
1779997445652033000,3.344032958984375,0.010999999940395355,0.9223499894142151,-0.10381250083446503
1779997445669309400,3.361309326171875,0.01677500084042549,1.3561625480651855,0.1247124969959259
1779997445686586000,3.378586181640625,0.011962499469518661,1.019012451171875,-0.025575000792741776
1779997445712500500,3.40450048828125,-0.006462499964982271,-0.4727250039577484,0.07823749631643295
1779997445729777000,3.42177685546875,-0.01979999989271164,-1.2557874917984009,-0.10491249710321426
1779997445747053000,3.439052978515625,-0.01746249943971634,-1.2522125244140625,0.020899999886751175
1779997445772967700,3.4649677734375,-0.005224999971687794,-0.06104999780654907,-0.002337499987334013
1779997445790244000,3.482244140625,0.009487500414252281,0.8650124669075012,-0.013337500393390656
1779997445807520500,3.4995205078125,0.014299999922513962,1.310925006866455,0.023375000804662704
1779997445824796700,3.516796630859375,0.008249999955296516,1.0115875005722046,0.04166249930858612
1779997445842073000,3.534072998046875,-0.002749999985098839,0.07699999958276749,-0.018287500366568565
1779997445859349200,3.551349365234375,-0.016224998980760574,-0.9003499746322632,-0.0035749999806284904
1779997445876626000,3.5686259765625,-0.023512499406933784,-1.3095500469207764,-0.04633750021457672
1779997445893902000,3.585902099609375,-0.016224998980760574,-0.9468249678611755,-0.004812499973922968
1779997445911178500,3.603178466796875,-0.003987499978393316,-0.06833750009536743,0.02213750034570694
1779997445928455000,3.620454833984375,0.0057749999687075615,0.8405374884605408,-0.0035749999806284904
1779997445945731000,3.63773095703125,0.013199999928474426,1.2865874767303467,-0.002337499987334013
1779997445963007700,3.6550078125,0.008249999955296516,1.001824975013733,0.062424998730421066
1779997445980284200,3.6722841796875,-0.005224999971687794,0.08923749625682831,-0.03657500073313713
1779997445997560300,3.689560302734375,-0.01746249943971634,-0.8648750185966492,0.006187499966472387
1779997446014836700,3.706836669921875,-0.02227500081062317,-1.276687502861023,-0.04881250113248825
1779997446032113200,3.724113037109375,-0.016224998980760574,-0.935824990272522,-0.009624999947845936
1779997446049389600,3.7413896484375,-0.003987499978393316,-0.08057499676942825,0.029424998909235
1779997446066666000,3.758666015625,0.009487500414252281,0.8112499713897705,-0.007287499960511923
1779997446083942100,3.775942138671875,0.013199999928474426,1.2571624517440796,-0.002337499987334013
1779997446101218600,3.793218505859375,0.010724999941885471,0.9945374727249146,0.062424998730421066
1779997446118495000,3.810494873046875,-0.0002749999985098839,0.11371249705553055,-0.0340999998152256
1779997446135771400,3.827771484375,-0.010037500411272049,-0.8355875015258789,0.01966249942779541
1779997446153047800,3.8450478515625,-0.018562499433755875,-1.2692625522613525,-0.05004999786615372
1779997446170324200,3.86232421875,-0.01484999991953373,-0.9541124701499939,0.00013749999925494194
1779997446187600400,3.879600341796875,-0.0002749999985098839,-0.11357499659061432,0.03437500074505806
1779997446204876800,3.896876708984375,0.009487500414252281,0.7721999883651733,-0.008387500420212746
1779997446222153200,3.9141533203125,0.013199999928474426,1.231587529182434,0.007424999959766865
1779997446239429600,3.9314296875,0.011962499469518661,0.992062509059906,0.05871250107884407
1779997446256706000,3.9487060546875,0.0009624999947845936,0.1405249983072281,-0.030387500301003456
1779997446273982200,3.965982177734375,-0.008799999952316284,-0.8001124858856201,0.01718750037252903
1779997446291258600,3.983258544921875,-0.016087500378489494,-1.2399749755859375,-0.057337500154972076
1779997446308535000,4.00053515625,-0.011274999938905239,-0.9468249678611755,0.0037124999798834324
1779997446325811500,4.0178115234375,-0.0015124999918043613,-0.12828749418258667,0.01966249942779541
1779997446343087900,4.035087890625,0.009487500414252281,0.7440124750137329,-0.007287499960511923
1779997446360364300,4.0523642578125,0.011962499469518661,1.205875039100647,0.007424999959766865
1779997446377640700,4.069640625,0.010724999941885471,0.9908249974250793,0.04647500067949295
1779997446394917000,4.086917236328125,-0.0002749999985098839,0.1662375032901764,-0.02186249941587448
1779997446412193300,4.104193359375,-0.01251249946653843,-0.7623000144958496,0.002612499985843897
1779997446429469700,4.1214697265625,-0.018562499433755875,-1.210687518119812,-0.045099999755620956
1779997446446746000,4.13874609375,-0.01251249946653843,-0.9431124925613403,-0.0035749999806284904
1779997446464022300,4.156022216796875,-0.003987499978393316,-0.15138749778270721,0.015949999913573265
1779997446481298700,4.173298583984375,0.005912499967962503,0.708674967288971,0.00013749999925494194
1779997446498575400,4.190575439453125,0.011962499469518661,1.1801625490188599,0.006187499966472387
1779997446515851500,4.2078515625,0.009487500414252281,0.983537495136261,0.045237500220537186
1779997446533128000,4.2251279296875,-0.0002749999985098839,0.17971250414848328,-0.015812499448657036
1779997446550404400,4.242404296875,-0.011274999938905239,-0.7330124974250793,-0.0010999999940395355
1779997446567680800,4.2596806640625,-0.01732499897480011,-1.184975028038025,-0.037812501192092896
1779997446584957200,4.276957275390625,-0.01251249946653843,-0.9418749809265137,-0.004812499973922968
1779997446602233600,4.294233642578125,-0.005087499972432852,-0.16733749210834503,0.00989999994635582
1779997446619509800,4.311509765625,0.007012499962002039,0.6829624772071838,0.00989999994635582
1779997446636786200,4.3287861328125,0.011962499469518661,1.1508749723434448,0.002612499985843897
1779997446654062600,4.3460625,0.009487500414252281,0.9688249826431274,0.045237500220537186
1779997446671339000,4.363339111328125,0.0009624999947845936,0.19304999709129333,-0.013337500393390656
1779997446688615400,4.380615478515625,-0.010037500411272049,-0.6987749934196472,-0.002337499987334013
1779997446705891800,4.397891845703125,-0.01732499897480011,-1.1581624746322632,-0.030387500301003456
1779997446731806200,4.42380615234375,-0.008799999952316284,-0.6010124683380127,0.008662499487400055
1779997446749082600,4.44108251953125,0.002199999988079071,0.25052499771118164,0.015949999913573265
1779997446766359000,4.458359130859375,0.009487500414252281,0.9615374803543091,-0.010862499475479126
1779997446783635500,4.475635498046875,0.011962499469518661,1.1338249444961548,0.03671250119805336
1779997446800912000,4.492911865234375,0.007012499962002039,0.6402000188827515,0.01347499992698431
1779997446818188300,4.510188232421875,-0.003987499978393316,-0.2516250014305115,-0.01209999993443489
1779997446835464400,4.52746435546875,-0.014987500384449959,-0.9833999872207642,-0.014574999921023846
1779997446852740900,4.544740966796875,-0.014987500384449959,-1.115399956703186,-0.035337500274181366
1779997446870017300,4.562017333984375,-0.007562499959021807,-0.6047250032424927,0.011137500405311584
1779997446887293400,4.57929345703125,0.0009624999947845936,0.22481249272823334,0.007424999959766865
1779997446913208000,4.6052080078125,0.010724999941885471,1.102062463760376,0.007424999959766865
1779997446930484500,4.622484375,0.009487500414252281,0.9602999687194824,0.03671250119805336
1779997446947761000,4.639760986328125,0.0009624999947845936,0.2358125001192093,-0.009624999947845936
1779997446965037300,4.657037353515625,-0.010037500411272049,-0.6340125203132629,-0.004812499973922968
1779997446982313700,4.674313720703125,-0.016224998980760574,-1.1044000387191772,-0.03162499889731407
1779997446999590100,4.691590087890625,-0.011274999938905239,-0.9235875010490417,-0.006049999967217445
1779997447016866300,4.7088662109375,-0.003987499978393316,-0.22110000252723694,0.007424999959766865
1779997447034143000,4.72614306640625,0.0057749999687075615,0.5864375233650208,0.00494999997317791
1779997447051419100,4.743419189453125,0.011962499469518661,1.0715374946594238,0.008662499487400055
1779997447068695600,4.760695556640625,0.010724999941885471,0.9530124664306641,0.033137500286102295
1779997447085972000,4.777971923828125,0.002199999988079071,0.2578125,-0.004812499973922968
1779997447103248100,4.795248046875,-0.008799999952316284,-0.594962477684021,-0.007287499960511923
1779997447129162800,4.821162841796875,-0.014987500384449959,-1.0762125253677368,-0.025575000792741776
1779997447146439200,4.838439208984375,-0.008799999952316284,-0.6279624700546265,0.0037124999798834324
1779997447172353500,4.864353515625,0.004674999974668026,0.5523374676704407,0.0037124999798834324
1779997447189630200,4.881630126953125,0.009487500414252281,1.04458749294281,0.012374999932944775
1779997447206906600,4.89890673828125,0.009487500414252281,0.9444875121116638,0.03189999982714653
1779997447224182800,4.916182861328125,0.0009624999947845936,0.2712875008583069,0.00013749999925494194
1779997447241459200,4.933459228515625,-0.010037500411272049,-0.5680124759674072,-0.004812499973922968
1779997447258735600,4.950735595703125,-0.016087500378489494,-1.0542124509811401,-0.02681249938905239
1779997447284650200,4.976650146484375,-0.010037500411272049,-0.6377249956130981,0.0037124999798834324
1779997447301926700,4.9939267578125,-0.0015124999918043613,0.1405249983072281,0.006187499966472387
1779997447319203000,5.011203125,0.007012499962002039,0.8344874978065491,0.00494999997317791
1779997447336479500,5.0284794921875,0.009487500414252281,1.0580625534057617,0.023375000804662704
1779997447353756000,5.045755859375,0.004674999974668026,0.6683874726295471,0.018424998968839645
1779997447371032000,5.063031982421875,-0.003987499978393316,-0.13433749973773956,-0.009624999947845936
1779997447388308700,5.080308837890625,-0.013749999925494194,-0.8503000140190125,-0.015812499448657036
1779997447405585200,5.097585205078125,-0.014987500384449959,-1.0456874370574951,-0.025575000792741776
1779997447431499500,5.12349951171875,-0.006324999965727329,-0.2723875045776367,0.006187499966472387
1779997447448776200,5.140776123046875,0.0034374999813735485,0.5033875107765198,0.008662499487400055
1779997447466052400,5.15805224609375,0.009487500414252281,0.9957749843597412,0.00989999994635582
1779997447483328800,5.175328857421875,0.007012499962002039,0.9224874973297119,0.030662499368190765
1779997447500605400,5.19260546875,0.0009624999947845936,0.2957625091075897,0.0013749999925494194
1779997447517881600,5.209881591796875,-0.008799999952316284,-0.5142499804496765,-0.008387500420212746
1779997447535158000,5.227157958984375,-0.016087500378489494,-1.0053999423980713,-0.023099999874830246
1779997447552434400,5.244434326171875,-0.013749999925494194,-0.8978750109672546,-0.010862499475479126
1779997447569710800,5.2617109375,-0.005224999971687794,-0.28338751196861267,0.006187499966472387
1779997447586987300,5.2789873046875,0.0034374999813735485,0.4740999937057495,0.007424999959766865
1779997447612901600,5.304901611328125,0.009487500414252281,1.0165375471115112,0.02213750034570694
1779997447630178300,5.32217822265625,0.007012499962002039,0.6696249842643738,0.01718750037252903
1779997447647454500,5.339454345703125,-0.003987499978393316,-0.0952875018119812,-0.004812499973922968
1779997447664731000,5.35673095703125,-0.01251249946653843,-0.7965375185012817,-0.0170499999076128
1779997447682007600,5.374007568359375,-0.014987500384449959,-1.0053999423980713,-0.02186249941587448
1779997447699283700,5.39128369140625,-0.008799999952316284,-0.6400625109672546,-0.0010999999940395355
1779997447716560100,5.40856005859375,-0.0015124999918043613,0.08318749815225601,0.00494999997317791
1779997447733836800,5.4258369140625,0.007012499962002039,0.7551500201225281,0.006187499966472387
1779997447751113000,5.443113037109375,0.009487500414252281,0.9970124959945679,0.020899999886751175
1779997447777027800,5.46902783203125,0.0009624999947845936,0.3188624978065491,0.00494999997317791
1779997447794304000,5.486303955078125,-0.007562499959021807,-0.4604874849319458,-0.009624999947845936
1779997447811580400,5.503580322265625,-0.013749999925494194,-0.952875018119812,-0.02433750033378601
1779997447828857000,5.520857177734375,-0.01251249946653843,-0.8758749961853027,-0.010862499475479126
1779997447846133200,5.53813330078125,-0.005224999971687794,-0.30291250348091125,0.0013749999925494194
1779997447872047900,5.5640478515625,0.0057749999687075615,0.734250009059906,0.002612499985843897
1779997447889324500,5.581324462890625,0.008249999955296516,0.9847750067710876,0.01718750037252903
1779997447906600700,5.5986005859375,0.004537499975413084,0.6732000112533569,0.0147124994546175
1779997447923877000,5.615877197265625,-0.003987499978393316,-0.05362499877810478,-0.006049999967217445
1779997447941153500,5.633153564453125,-0.01251249946653843,-0.742775022983551,-0.0170499999076128
1779997447958430000,5.650429931640625,-0.013749999925494194,-0.9711624979972839,-0.023099999874830246
1779997447975706600,5.66770654296875,-0.008799999952316284,-0.6413000226020813,-0.004812499973922968
1779997447992982800,5.684982666015625,-0.0015124999918043613,0.04895000159740448,0.002612499985843897
1779997448010259200,5.70225927734375,0.0057749999687075615,0.7074375152587891,0.0037124999798834324
1779997448027536000,5.719535888671875,0.007012499962002039,0.9652500152587891,0.0147124994546175
1779997448044812000,5.73681201171875,0.0034374999813735485,0.6732000112533569,0.015949999913573265
1779997448062088400,5.75408837890625,-0.005224999971687794,-0.032862499356269836,-0.007287499960511923
1779997448079365000,5.771365234375,-0.01251249946653843,-0.7122499942779541,-0.0170499999076128
1779997448096641300,5.788641357421875,-0.013749999925494194,-0.9479249715805054,-0.020624998956918716
1779997448113918000,5.80591796875,-0.008799999952316284,-0.6377249956130981,-0.006049999967217445
1779997448131194400,5.8231943359375,-0.0015124999918043613,0.028187500312924385,0.00494999997317791
1779997448148470800,5.840470703125,0.007012499962002039,0.6756749749183655,0.006187499966472387
1779997448165747200,5.857747314453125,0.010724999941885471,0.9395374655723572,0.01718750037252903
1779997448183023600,5.875023681640625,0.007012499962002039,0.6634374856948853,0.01966249942779541
1779997448208938200,5.900938232421875,-0.006324999965727329,-0.38843750953674316,-0.006049999967217445
1779997448226214700,5.918214599609375,-0.01251249946653843,-0.8833000063896179,-0.018287500366568565
1779997448252129300,5.94412939453125,-0.008799999952316284,-0.6487249732017517,-0.0035749999806284904
1779997448269405700,5.96140576171875,-0.0015124999918043613,0.007424999959766865,0.00494999997317791
1779997448286682000,5.97868212890625,0.0057749999687075615,0.6549124717712402,0.00494999997317791
1779997448303958500,5.99595849609375,0.008249999955296516,0.9297749996185303,0.0147124994546175
1779997448321235000,6.01323486328125,0.0057749999687075615,0.6769124865531921,0.0147124994546175
1779997448338511400,6.030511474609375,-0.002749999985098839,0.010999999940395355,-0.006049999967217445
1779997448355787800,6.047787841796875,-0.011274999938905239,-0.6560124754905701,-0.0170499999076128
1779997448373064200,6.065064208984375,-0.014987500384449959,-0.9150624871253967,-0.02186249941587448
1779997448390340600,6.082340576171875,-0.011274999938905239,-0.6450124979019165,-0.006049999967217445
1779997448407617000,6.099616943359375,-0.003987499978393316,-0.010999999940395355,0.0037124999798834324
1779997448424893700,6.116893798828125,0.004674999974668026,0.6256250143051147,0.00494999997317791
1779997448442170000,6.134170166015625,0.008249999955296516,0.9053000211715698,0.015949999913573265
1779997448459446500,6.151446533203125,0.007012499962002039,0.6659125089645386,0.015949999913573265
1779997448476723000,6.168722900390625,-0.0015124999918043613,0.020762499421834946,-0.0010999999940395355
1779997448502637300,6.19463720703125,-0.01251249946653843,-0.8282999992370605,-0.0193875003606081
1779997448519914000,6.2119140625,-0.01251249946653843,-0.8295375108718872,-0.01209999993443489
1779997448537190400,6.2291904296875,-0.006324999965727329,-0.3591499924659729,0.00013749999925494194
1779997448554466800,6.246466796875,0.002199999988079071,0.3128125071525574,0.00494999997317791
1779997448571743200,6.2637431640625,0.008249999955296516,0.8039624691009521,0.008662499487400055
1779997448589019600,6.28101953125,0.008249999955296516,0.8381999731063843,0.01966249942779541
1779997448606296000,6.298296142578125,0.002199999988079071,0.37757501006126404,0.007424999959766865
1779997448623572500,6.315572509765625,-0.006324999965727329,-0.3114374876022339,-0.007287499960511923
1779997448640849000,6.332848876953125,-0.01251249946653843,-0.805062472820282,-0.0193875003606081
1779997448658125300,6.350125244140625,-0.01251249946653843,-0.8185374736785889,-0.010862499475479126
1779997448675402000,6.367402099609375,-0.006187499966472387,-0.36410000920295715,0
1779997448692678400,6.384678466796875,0.0012374999932944775,0.29205000400543213,0.007287499960511923
1779997448709954800,6.401954833984375,0.007287499960511923,0.7794874906539917,0.0085249999538064
1779997448727231200,6.419231201171875,0.007287499960511923,0.8222500085830688,0.02199999988079071
1779997448744508000,6.4365078125,0.0012374999932944775,0.3786749839782715,0.007287499960511923
1779997448761784300,6.453784423828125,-0.007287499960511923,-0.29686251282691956,-0.00494999997317791
1779997448779060700,6.471060791015625,-0.01347499992698431,-0.7880125045776367,-0.018287500366568565
1779997448796337200,6.488337158203125,-0.01347499992698431,-0.8062999844551086,-0.01223750039935112
1779997448813613300,6.50561328125,-0.007287499960511923,-0.3676750063896179,0
1779997448830890000,6.522889892578125,0,0.2761000096797943,0.0012374999932944775
1779997448848166400,6.54016650390625,0.004812499973922968,0.761062502861023,0.0085249999538064
1779997448865442800,6.55744287109375,0.007287499960511923,0.8124874830245972,0.0170499999076128
1779997448882719200,6.57471923828125,0.002474999986588955,0.38843750953674316,0.007287499960511923
1779997448899995600,6.59199560546875,-0.007287499960511923,-0.2761000096797943,-0.007287499960511923
1779997448917272000,6.60927197265625,-0.01347499992698431,-0.7647749781608582,-0.020762499421834946
1779997448934548700,6.626548828125,-0.01347499992698431,-0.7940624952316284,-0.01223750039935112
1779997448951825200,6.6438251953125,-0.0085249999538064,-0.37014999985694885,-0.0037124999798834324
1779997448969101300,6.661101318359375,0,0.26028749346733093,0.006049999967217445
1779997448986378000,6.6783779296875,0.004812499973922968,0.7402999997138977,0.007287499960511923
1779997449003654400,6.695654296875,0.006049999967217445,0.7990124821662903,0.0170499999076128
1779997449020930800,6.712930908203125,0,0.3909125030040741,0.0085249999538064
1779997449038207200,6.730207275390625,-0.006187499966472387,-0.2578125,-0.0085249999538064
1779997449055484000,6.74748388671875,-0.010999999940395355,-0.742775022983551,-0.015949999913573265
1779997449072760000,6.764760009765625,-0.010999999940395355,-0.7830625176429749,-0.01223750039935112
1779997449090036700,6.78203662109375,-0.006187499966472387,-0.3763374984264374,-0.002474999986588955
1779997449107313200,6.799313232421875,0.0012374999932944775,0.24186250567436218,0.00494999997317791
1779997449124589600,6.816589599609375,0.007287499960511923,0.7182999849319458,0.007287499960511923
1779997449141866000,6.833865966796875,0.0085249999538064,0.7867749929428101,0.018287500366568565
1779997449159142700,6.851142578125,0.0037124999798834324,0.3946250081062317,0.007287499960511923
1779997449176419000,6.868419189453125,-0.005087499972432852,-0.24062499403953552,-0.006049999967217445
1779997449193695500,6.885695556640625,-0.011274999938905239,-0.7232499718666077,-0.018287500366568565
1779997449219610000,6.911610107421875,-0.008799999952316284,-0.6230124831199646,-0.006049999967217445
1779997449245524700,6.937524658203125,0.0009624999947845936,0.22357499599456787,0.0037124999798834324
1779997449262801400,6.954801513671875,0.005912499967962503,0.6976749897003174,0.008662499487400055
1779997449280077800,6.972077880859375,0.007012499962002039,0.7746750116348267,0.01718750037252903
1779997449297354200,6.989354248046875,0.002199999988079071,0.3983374834060669,0.011137500405311584
1779997449314630700,7.006630615234375,-0.006324999965727329,-0.2246749997138977,-0.007287499960511923
1779997449331907000,7.023906982421875,-0.01251249946653843,-0.7035874724388123,-0.015812499448657036
1779997449349183700,7.041183837890625,-0.011274999938905239,-0.7598249912261963,-0.01209999993443489
1779997449366460200,7.058460205078125,-0.007562499959021807,-0.3823874890804291,-0.002337499987334013
1779997449383736300,7.075736328125,-0.0002749999985098839,0.2102375030517578,0.00494999997317791
1779997449401013000,7.093012939453125,0.005912499967962503,0.6804875135421753,0.008662499487400055
1779997449418289700,7.11028955078125,0.007012499962002039,0.7612000107765198,0.01718750037252903
1779997449435566000,7.127566162109375,0.002199999988079071,0.4008125066757202,0.008662499487400055
1779997449452842500,7.144842529296875,-0.0038499999791383743,-0.210099995136261,-0.0035749999806284904
1779997449470119000,7.162118896484375,-0.011274999938905239,-0.686537504196167,-0.015812499448657036
1779997449487395300,7.179395263671875,-0.01251249946653843,-0.7512999773025513,-0.010862499475479126
1779997449504671700,7.196671630859375,-0.007562499959021807,-0.3871999979019165,-0.0010999999940395355
1779997449521948400,7.213948486328125,-0.0002749999985098839,0.19304999709129333,0.00494999997317791
1779997449539224800,7.231224853515625,0.005912499967962503,0.6586250066757202,0.00989999994635582
1779997449556501200,7.248501220703125,0.007012499962002039,0.7489625215530396,0.015949999913573265
1779997449573777700,7.265777587890625,0.002199999988079071,0.40328750014305115,0.007424999959766865
1779997449591054300,7.283054443359375,-0.005087499972432852,-0.1905750036239624,-0.004812499973922968
1779997449616968700,7.30896875,-0.011274999938905239,-0.7561125159263611,-0.0170499999076128
1779997449634245400,7.326245361328125,-0.010037500411272049,-0.6095374822616577,-0.008387500420212746
1779997449651521800,7.343521728515625,-0.0038499999791383743,-0.11481250077486038,0.00013749999925494194
1779997449668798200,7.360798095703125,0.002474999986588955,0.4446749985218048,0.0085249999538064
1779997449686075000,7.378074951171875,0.007287499960511923,0.7464874982833862,0.01223750039935112
1779997449703351300,7.395351318359375,0.004812499973922968,0.6206749677658081,0.0147124994546175
1779997449720627700,7.412627685546875,0,0.12333749979734421,0.0037124999798834324
1779997449737904000,7.429904052734375,-0.007287499960511923,-0.4483875036239624,-0.00976249948143959
1779997449755180800,7.447180908203125,-0.010999999940395355,-0.742775022983551,-0.0147124994546175
1779997449772457000,7.46445703125,-0.00976249948143959,-0.6059625148773193,-0.006049999967217445
1779997449789733600,7.481733642578125,-0.0037124999798834324,-0.12333749979734421,0.0012374999932944775
1779997449807010300,7.49901025390625,0.0037124999798834324,0.4251500070095062,0.007287499960511923
1779997449824286700,7.51628662109375,0.006049999967217445,0.730537474155426,0.010999999940395355
1779997449841563100,7.533563232421875,0.004812499973922968,0.6144874691963196,0.0147124994546175
1779997449858839600,7.550839599609375,-0.0012374999932944775,0.13199999928474426,0.002474999986588955
1779997449876116200,7.5681162109375,-0.007287499960511923,-0.4311999976634979,-0.00976249948143959
1779997449893392400,7.585392333984375,-0.010999999940395355,-0.7244874835014343,-0.0170499999076128
1779997449910669000,7.6026689453125,-0.00976249948143959,-0.5974375009536743,-0.0085249999538064
1779997449927945500,7.619945556640625,-0.0037124999798834324,-0.12828749418258667,0.0012374999932944775
1779997449945222000,7.637221923828125,0.002474999986588955,0.4129124879837036,0.006049999967217445
1779997449962498300,7.654498291015625,0.007287499960511923,0.7159624695777893,0.00976249948143959
1779997449979775000,7.67177490234375,0.006049999967217445,0.6084374785423279,0.01347499992698431
1779997449997051100,7.689051025390625,0,0.13805000483989716,0.002474999986588955
1779997450014327800,7.706327880859375,-0.007287499960511923,-0.4166249930858612,-0.00976249948143959
1779997450031604200,7.723604248046875,-0.010999999940395355,-0.7110124826431274,-0.01347499992698431
1779997450048880600,7.740880615234375,-0.0085249999538064,-0.5924875140190125,-0.007287499960511923
1779997450066157300,7.7581572265625,-0.0037124999798834324,-0.13805000483989716,0.0012374999932944775
1779997450083433700,7.775433837890625,0.002474999986588955,0.3946250081062317,0.007287499960511923
1779997450100710100,7.792710205078125,0.006049999967217445,0.6987749934196472,0.010999999940395355
1779997450117986600,7.809986572265625,0.006049999967217445,0.6011499762535095,0.01347499992698431
1779997450135263200,7.82726318359375,0,0.14533749222755432,0.002474999986588955
1779997450152539400,7.844539306640625,-0.006187499966472387,-0.39943748712539673,-0.010999999940395355
1779997450169816000,7.861816162109375,-0.011274999938905239,-0.6938250064849854,-0.014574999921023846
1779997450187092500,7.879092529296875,-0.008799999952316284,-0.5863000154495239,-0.008387500420212746
1779997450213007000,7.905007080078125,-0.0002749999985098839,0.1307625025510788,0.0037124999798834324
1779997450230283800,7.92228369140625,0.004674999974668026,0.5766749978065491,0.007424999959766865
1779997450247560400,7.939560546875,0.007149999961256981,0.6927250027656555,0.0147124994546175
1779997450273474800,7.965474853515625,-0.0002749999985098839,0.15152500569820404,0.002612499985843897
1779997450290751500,7.98275146484375,-0.007562499959021807,-0.38362500071525574,-0.009624999947845936
1779997450308028000,8.00002783203125,-0.011274999938905239,-0.681725025177002,-0.014574999921023846
1779997450325304300,8.01730419921875,-0.008799999952316284,-0.5827249884605408,-0.007287499960511923
1779997450342580700,8.034580810546874,-0.0038499999791383743,-0.15138749778270721,0.00013749999925494194
1779997450359857400,8.051857421875,0.0034374999813735485,0.36410000920295715,0.008662499487400055
1779997450377133800,8.0691337890625,0.005912499967962503,0.6683874726295471,0.011137500405311584
1779997450394410200,8.08641015625,0.004674999974668026,0.5889124870300293,0.01347499992698431
1779997450411687000,8.10368701171875,-0.0002749999985098839,0.1588124930858612,0.0037124999798834324
1779997450428963600,8.120963623046874,-0.007562499959021807,-0.3676750063896179,-0.009624999947845936
1779997450446239700,8.13823974609375,-0.011274999938905239,-0.6645374894142151,-0.013337500393390656
1779997450463516200,8.15551611328125,-0.008799999952316284,-0.5754374861717224,-0.008387500420212746
1779997450480792600,8.17279248046875,-0.005087499972432852,-0.15757499635219574,-0.0010999999940395355
1779997450498069200,8.1900693359375,0.0009624999947845936,0.35062500834465027,0.006187499966472387
1779997450515345700,8.207345703125,0.005912499967962503,0.6561499834060669,0.00989999994635582
1779997450532622000,8.2246220703125,0.004674999974668026,0.5839625000953674,0.01347499992698431
1779997450549898500,8.2418984375,-0.0015124999918043613,0.1662375032901764,0.002612499985843897
1779997450567175200,8.259175048828125,-0.006324999965727329,-0.35062500834465027,-0.008387500420212746
1779997450584451800,8.276451904296875,-0.010037500411272049,-0.6487249732017517,-0.014574999921023846
1779997450601728000,8.29372802734375,-0.008799999952316284,-0.5680124759674072,-0.007287499960511923
1779997450619004400,8.31100439453125,-0.0038499999791383743,-0.16362500190734863,0.00013749999925494194
1779997450636281000,8.328281005859376,0.002199999988079071,0.3335750102996826,0.006187499966472387
1779997450653557500,8.3455576171875,0.005912499967962503,0.6377249956130981,0.00989999994635582
1779997450670834000,8.362833984375,0.00494999997317791,0.5741999745368958,0.01347499992698431
1779997450688110600,8.380110595703124,0,0.16981250047683716,0.002474999986588955
1779997450705387000,8.397386962890625,-0.006049999967217445,-0.3371500074863434,-0.0085249999538064
1779997450722663400,8.414663330078126,-0.00976249948143959,-0.6340125203132629,-0.01223750039935112
1779997450739940000,8.431940185546875,-0.0085249999538064,-0.5631999969482422,-0.007287499960511923
1779997450757216500,8.449216552734375,-0.0037124999798834324,-0.17104999721050262,-0.0012374999932944775
1779997450774493000,8.466492919921874,0.0012374999932944775,0.3188624978065491,0.006049999967217445
1779997450791769300,8.483769287109375,0.006049999967217445,0.6242499947547913,0.010999999940395355
1779997450809046000,8.5010458984375,0.006049999967217445,0.5669124722480774,0.01223750039935112
1779997450826322400,8.518322509765625,0,0.17586250603199005,0.00494999997317791
1779997450852237000,8.544237060546875,-0.0085249999538064,-0.5131499767303467,-0.01223750039935112
1779997450869513700,8.561513671875,-0.0085249999538064,-0.6389625072479248,-0.0085249999538064
1779997450886790400,8.578790283203125,-0.007287499960511923,-0.3946250081062317,-0.006049999967217445
1779997450912704800,8.604704833984375,0.0012374999932944775,0.3053874969482422,0.007287499960511923
1779997450929981400,8.6219814453125,0.00494999997317791,0.6096749901771545,0.0085249999538064
1779997450947257900,8.6392578125,0.0037124999798834324,0.5619624853134155,0.01347499992698431
1779997450973172500,8.66517236328125,-0.002474999986588955,-0.06599999964237213,-0.0037124999798834324
1779997450990449200,8.68244921875,-0.0085249999538064,-0.49472498893737793,-0.01223750039935112
1779997451007725300,8.699725341796874,-0.00976249948143959,-0.6254875063896179,-0.01223750039935112
1779997451025002000,8.717001953125,-0.006049999967217445,-0.3909125030040741,-0.006049999967217445
1779997451042278400,8.7342783203125,0,0.06476250290870667,0.002474999986588955
1779997451059554800,8.751554931640625,0.00494999997317791,0.48262500762939453,0.007287499960511923
1779997451076831500,8.76883154296875,0.006049999967217445,0.6230124831199646,0.010999999940395355
1779997451094108000,8.78610791015625,0.0037124999798834324,0.40562498569488525,0.007287499960511923
1779997451111384300,8.80338427734375,-0.002474999986588955,-0.05623750016093254,-0.0012374999932944775
1779997451128661000,8.820660888671876,-0.007287499960511923,-0.48138749599456787,-0.01223750039935112
1779997451145937200,8.837937255859375,-0.0085249999538064,-0.6169624924659729,-0.00976249948143959
1779997451171852000,8.86385205078125,-0.004812499973922968,-0.1868624985218048,-0.0012374999932944775
1779997451189128400,8.88112841796875,0.0012374999932944775,0.2761000096797943,0.007287499960511923
1779997451206405000,8.898405029296875,0.00494999997317791,0.5779125094413757,0.00976249948143959
1779997451223681500,8.915681640625,0.00494999997317791,0.5461499691009521,0.01223750039935112
1779997451240958000,8.9329580078125,0,0.19304999709129333,0.006049999967217445
1779997451258234600,8.950234619140625,-0.004812499973922968,-0.2798124849796295,-0.007287499960511923
1779997451275510800,8.9675107421875,-0.00976249948143959,-0.5766749978065491,-0.01223750039935112
1779997451292787500,8.984787353515625,-0.0085249999538064,-0.5376250147819519,-0.0085249999538064
1779997451310064000,9.002064208984375,-0.004812499973922968,-0.1905750036239624,-0.002474999986588955
1779997451327340500,9.019340576171874,0.0012374999932944775,0.26633748412132263,0.00494999997317791
1779997451344617000,9.036616943359375,0.00494999997317791,0.5656750202178955,0.007287499960511923
1779997451361893400,9.053893310546876,0.0037124999798834324,0.5424374938011169,0.00976249948143959
1779997451379169800,9.071169677734375,0,0.20157499611377716,0.002474999986588955
1779997451396446200,9.0884462890625,-0.006049999967217445,-0.2626250088214874,-0.007287499960511923
1779997451422361000,9.114361083984376,-0.00976249948143959,-0.5937250256538391,-0.010999999940395355
1779997451439637800,9.1316376953125,-0.007287499960511923,-0.3946250081062317,-0.00494999997317791
1779997451456914200,9.1489140625,-0.0012374999932944775,0.028049999848008156,0.002474999986588955
1779997451474190600,9.166190673828124,0.0037124999798834324,0.4324375092983246,0.0085249999538064
1779997451491467300,9.18346728515625,0.00494999997317791,0.5864375233650208,0.010999999940395355
1779997451508743700,9.20074365234375,0.0037124999798834324,0.40191251039505005,0.0085249999538064
1779997451534658300,9.226658203125,-0.004812499973922968,-0.25286251306533813,-0.006049999967217445
1779997451551934700,9.243934814453125,-0.0085249999538064,-0.550962507724762,-0.01223750039935112
1779997451569211400,9.26121142578125,-0.007287499960511923,-0.5266249775886536,-0.00976249948143959
1779997451586487800,9.27848779296875,-0.004812499973922968,-0.2003374993801117,-0.002474999986588955
1779997451603764200,9.29576416015625,0,0.24062499403953552,0.0037124999798834324
1779997451621040600,9.31304052734375,0.0037124999798834324,0.5424374938011169,0.006049999967217445
1779997451638317000,9.330317138671875,0.0037124999798834324,0.5339124798774719,0.010999999940395355
1779997451655593700,9.34759375,0,0.2125750035047531,0.002474999986588955
1779997451672870100,9.3648701171875,-0.006049999967217445,-0.23704999685287476,-0.00494999997317791
1779997451690146600,9.382146484375,-0.0085249999538064,-0.5374875068664551,-0.01223750039935112
1779997451707423200,9.39942333984375,-0.0085249999538064,-0.5216749906539917,-0.007287499960511923
1779997451724699400,9.416699462890625,-0.00494999997317791,-0.20762500166893005,-0.002474999986588955
1779997451741976000,9.43397607421875,0.0012374999932944775,0.22357499599456787,0.006049999967217445
1779997451759252700,9.451252685546875,0.004812499973922968,0.524150013923645,0.010999999940395355
1779997451776529200,9.468529052734375,0.004812499973922968,0.5216749906539917,0.01223750039935112
1779997451793805600,9.4858056640625,0.0012374999932944775,0.2125750035047531,0.00494999997317791
1779997451811082000,9.50308203125,-0.00494999997317791,-0.22852499783039093,-0.00494999997317791
1779997451828358400,9.5203583984375,-0.007287499960511923,-0.5253875255584717,-0.010999999940395355
1779997451845635000,9.537635009765625,-0.0085249999538064,-0.5131499767303467,-0.007287499960511923
1779997451862911500,9.554911376953125,-0.00494999997317791,-0.20762500166893005,-0.002474999986588955
1779997451880188000,9.57218798828125,0.0012374999932944775,0.21752500534057617,0.0037124999798834324
1779997451897464300,9.58946435546875,0.0037124999798834324,0.515625,0.007287499960511923
1779997451914741000,9.606740966796876,0.0037124999798834324,0.5191999673843384,0.01223750039935112
1779997451932017400,9.624017333984375,0.0012374999932944775,0.2186249941587448,0.0037124999798834324
1779997451949293800,9.6412939453125,-0.00494999997317791,-0.2162874937057495,-0.00494999997317791
1779997451975208700,9.667208740234376,-0.0085249999538064,-0.5559124946594238,-0.00976249948143959
1779997451992485000,9.684485107421875,-0.007287499960511923,-0.39214998483657837,-0.00494999997317791
1779997452009761500,9.701761474609375,-0.002474999986588955,-0.00494999997317791,0.002474999986588955
1779997452027038200,9.7190380859375,0.002474999986588955,0.3823874890804291,0.006049999967217445
1779997452044314600,9.736314697265625,0.006049999967217445,0.5484874844551086,0.0085249999538064
1779997452061591000,9.753591064453126,0.002474999986588955,0.39943748712539673,0.0085249999538064
1779997452078867500,9.770867431640625,-0.002474999986588955,0.010999999940395355,0
1779997452096144100,9.78814404296875,-0.006049999967217445,-0.3823874890804291,-0.00976249948143959
1779997452113420500,9.805420654296874,-0.00976249948143959,-0.5449125170707703,-0.00976249948143959
1779997452130697000,9.822697021484375,-0.007287499960511923,-0.38967499136924744,-0.006049999967217445
1779997452147973600,9.8399736328125,-0.002474999986588955,-0.01223750039935112,0.0012374999932944775
1779997452165250000,9.85725,0.0012374999932944775,0.3713875114917755,0.00494999997317791
1779997452182526500,9.8745263671875,0.0037124999798834324,0.5411999821662903,0.0085249999538064
1779997452199803000,9.891802978515624,0.002474999986588955,0.3983374834060669,0.0085249999538064
1779997452217079600,9.90907958984375,-0.002474999986588955,0.01952499896287918,0
1779997452234356000,9.92635595703125,-0.007287499960511923,-0.3689124882221222,-0.007287499960511923
1779997452251632400,9.94363232421875,-0.00976249948143959,-0.5374875068664551,-0.00976249948143959
1779997452268908800,9.96090869140625,-0.006187499966472387,-0.3909125030040741,-0.00494999997317791
1779997452286185200,9.978185302734374,-0.002474999986588955,-0.02447500079870224,0.0012374999932944775
1779997452303461600,9.995461669921875,0.002474999986588955,0.35667499899864197,0.007287499960511923
1779997452320738300,10.01273828125,0.0037124999798834324,0.5302000045776367,0.00976249948143959
1779997452338014700,10.0300146484375,0.002474999986588955,0.39586248993873596,0.0085249999538064
1779997452355291100,10.047291015625,-0.002474999986588955,0.02928750030696392,0
1779997452372567800,10.06456787109375,-0.006187499966472387,-0.35667499899864197,-0.0085249999538064
1779997452389844200,10.08184423828125,-0.0085249999538064,-0.5264874696731567,-0.00976249948143959
1779997452407120600,10.09912060546875,-0.006187499966472387,-0.38843750953674316,-0.006049999967217445
1779997452424397300,10.116397216796875,-0.0012374999932944775,-0.030524998903274536,0
1779997452441673700,10.133673828125,0.002474999986588955,0.3445749878883362,0.00494999997317791
1779997452458950100,10.1509501953125,0.0037124999798834324,0.5216749906539917,0.00976249948143959
1779997452476226800,10.168226806640625,0.002474999986588955,0.3946250081062317,0.0085249999538064
1779997452493503200,10.185503173828126,-0.002474999986588955,0.037812501192092896,-0.0012374999932944775
1779997452510779600,10.202779541015625,-0.007287499960511923,-0.34209999442100525,-0.0085249999538064
1779997452528056000,10.22005615234375,-0.0085249999538064,-0.515625,-0.00976249948143959
1779997452545332700,10.237332763671875,-0.007287499960511923,-0.38967499136924744,-0.006049999967217445
1779997452562609200,10.254609130859375,-0.002474999986588955,-0.03904999792575836,0.0012374999932944775
1779997452579885600,10.271885498046874,0.002474999986588955,0.3310999870300293,0.007287499960511923
1779997452597162200,10.289162353515625,0.0037124999798834324,0.5081999897956848,0.00976249948143959
1779997452614438700,10.306438720703126,0.002474999986588955,0.39214998483657837,0.0085249999538064
1779997452631715000,10.323715087890625,-0.0012374999932944775,0.04399999976158142,0.0012374999932944775
1779997452648991500,10.340991455078125,-0.006187499966472387,-0.3310999870300293,-0.007287499960511923
1779997452666268200,10.35826806640625,-0.0085249999538064,-0.5057250261306763,-0.00976249948143959
1779997452683544600,10.375544677734375,-0.006187499966472387,-0.3848625123500824,-0.007287499960511923
1779997452700821000,10.392821044921876,-0.002474999986588955,-0.045237500220537186,0
1779997452718097700,10.41009765625,0.002474999986588955,0.32010000944137573,0.006049999967217445
1779997452735374000,10.4273740234375,0.004812499973922968,0.5009124875068665,0.007287499960511923
1779997452752650500,10.444650390625,0.002474999986588955,0.39214998483657837,0.0085249999538064
1779997452769927000,10.461927001953125,-0.0012374999932944775,0.05252499878406525,0
1779997452787203600,10.47920361328125,-0.006187499966472387,-0.3188624978065491,-0.007287499960511923
1779997452804479700,10.496479736328125,-0.0085249999538064,-0.4984374940395355,-0.00976249948143959
1779997452821756400,10.51375634765625,-0.006187499966472387,-0.38733750581741333,-0.00494999997317791
1779997452839033000,10.531033203125,-0.002474999986588955,-0.05623750016093254,0
1779997452856309500,10.5483095703125,0.0012374999932944775,0.30662500858306885,0.006049999967217445
1779997452873586000,10.5655859375,0.0037124999798834324,0.4899125099182129,0.0085249999538064
1779997452890862300,10.5828623046875,0.0037124999798834324,0.38967499136924744,0.0085249999538064
1779997452908139000,10.600138916015625,-0.0012374999932944775,0.057475000619888306,0.0012374999932944775
1779997452925415200,10.617415283203124,-0.006187499966472387,-0.30662500858306885,-0.007287499960511923
1779997452942691800,10.63469189453125,-0.0085249999538064,-0.4862000048160553,-0.0085249999538064
1779997452959968300,10.65196826171875,-0.007287499960511923,-0.3823874890804291,-0.006049999967217445
1779997452977244700,10.66924462890625,-0.002474999986588955,-0.059812501072883606,0
1779997452994521300,10.686521240234375,0.0012374999932944775,0.2956250011920929,0.00494999997317791
1779997453011797800,10.7037978515625,0.0037124999798834324,0.48138749599456787,0.0085249999538064
1779997453029074200,10.72107421875,0.002474999986588955,0.38733750581741333,0.0085249999538064
1779997453046350600,10.7383505859375,-0.0012374999932944775,0.0672374963760376,0
1779997453063627300,10.755627197265625,-0.006187499966472387,-0.29438748955726624,-0.006049999967217445
1779997453080903700,10.772903564453125,-0.0085249999538064,-0.476437509059906,-0.00976249948143959
1779997453098180000,10.79018017578125,-0.007287499960511923,-0.3811500072479248,-0.00494999997317791
1779997453115456800,10.807456787109375,-0.002474999986588955,-0.06599999964237213,0
1779997453132733200,10.824733154296876,0.0012374999932944775,0.28338751196861267,0.00494999997317791
1779997453150009600,10.842009521484375,0.0037124999798834324,0.46915000677108765,0.0085249999538064
1779997453167286000,10.8592861328125,0.002474999986588955,0.38362500071525574,0.0085249999538064
1779997453184562700,10.876562744140625,-0.0012374999932944775,0.07204999774694443,0.0012374999932944775
1779997453201839000,10.893839111328125,-0.006187499966472387,-0.28338751196861267,-0.007287499960511923
1779997453219115500,10.911115478515624,-0.0085249999538064,-0.4666749835014343,-0.00976249948143959
1779997453236392000,10.928391845703125,-0.006187499966472387,-0.3750999867916107,-0.006049999967217445
1779997453253668600,10.945668701171876,-0.0037124999798834324,-0.0695749968290329,0
1779997453270945000,10.962945068359375,0.0012374999932944775,0.27486249804496765,0.0037124999798834324
1779997453288221400,10.980221435546875,0.0037124999798834324,0.4606249928474426,0.007287499960511923
1779997453305498000,10.997498046875,0.002474999986588955,0.3823874890804291,0.007287499960511923
1779997453322774500,11.0147744140625,-0.0012374999932944775,0.07947500050067902,0.0012374999932944775
1779997453340051000,11.032051025390626,-0.006187499966472387,-0.2723875045776367,-0.00494999997317791
1779997453357327400,11.049327392578125,-0.0085249999538064,-0.45938751101493835,-0.0085249999538064
1779997453374603800,11.066603759765625,-0.006187499966472387,-0.3786749839782715,-0.00494999997317791
1779997453391880400,11.08388037109375,-0.002474999986588955,-0.08181250095367432,-0.0012374999932944775
1779997453409156900,11.101156982421875,0.002474999986588955,0.26028749346733093,0.006049999967217445
1779997453426433300,11.118433349609376,0.004812499973922968,0.4496249854564667,0.006049999967217445
1779997453443710000,11.1357099609375,0.0037124999798834324,0.3811500072479248,0.0085249999538064
1779997453460986400,11.152986328125,0,0.08799999952316284,0.0012374999932944775
1779997453478262800,11.1702626953125,-0.00494999997317791,-0.2578125,-0.006049999967217445
1779997453495539200,11.187539306640625,-0.0085249999538064,-0.44714999198913574,-0.0085249999538064
1779997453512815900,11.20481591796875,-0.007287499960511923,-0.3726249933242798,-0.006049999967217445
1779997453530092300,11.22209228515625,-0.0037124999798834324,-0.08552499860525131,0.0012374999932944775
1779997453556007000,11.2480068359375,0.002474999986588955,0.3713875114917755,0.006049999967217445
1779997453573283300,11.265283447265626,0.002474999986588955,0.4422000050544739,0.00976249948143959
1779997453590560000,11.28256005859375,0.0012374999932944775,0.25286251306533813,0.00494999997317791
1779997453607836400,11.29983642578125,-0.002474999986588955,-0.08552499860525131,-0.0012374999932944775
1779997453625113000,11.317113037109374,-0.006187499966472387,-0.37014999985694885,-0.007287499960511923
1779997453642389200,11.33438916015625,-0.007287499960511923,-0.43738749623298645,-0.007287499960511923
1779997453659666000,11.351666015625,-0.00494999997317791,-0.2503874897956848,-0.002474999986588955
1779997453676942300,11.3689423828125,-0.0012374999932944775,0.07823749631643295,0.0012374999932944775
1779997453694218800,11.38621875,0.002474999986588955,0.36038750410079956,0.007287499960511923
1779997453711495400,11.403495361328124,0.0037124999798834324,0.4361499845981598,0.0085249999538064
1779997453728771800,11.420771728515625,0.0012374999932944775,0.25533750653266907,0.006049999967217445
1779997453746048300,11.43804833984375,-0.0037124999798834324,-0.07823749631643295,0
1779997453763324700,11.45532470703125,-0.007287499960511923,-0.36038750410079956,-0.0085249999538064
1779997453780601300,11.472601318359375,-0.007287499960511923,-0.4311999976634979,-0.006049999967217445
1779997453797877500,11.48987744140625,-0.00494999997317791,-0.25286251306533813,-0.0037124999798834324
1779997453815154200,11.507154296875,-0.0012374999932944775,0.0695749968290329,0.002474999986588955
1779997453832430800,11.524430908203126,0.002474999986588955,0.35186249017715454,0.006049999967217445
1779997453849707300,11.541707275390625,0.002474999986588955,0.4324375092983246,0.0085249999538064
1779997453866983700,11.558983642578125,0.0012374999932944775,0.25905001163482666,0.00494999997317791
1779997453884260000,11.576260009765624,-0.002474999986588955,-0.06599999964237213,-0.002474999986588955
1779997453901536500,11.59353662109375,-0.006049999967217445,-0.34814998507499695,-0.007287499960511923
1779997453918813000,11.61081298828125,-0.007287499960511923,-0.4251500070095062,-0.007287499960511923
1779997453936089600,11.628089599609375,-0.00494999997317791,-0.25657498836517334,-0.002474999986588955
1779997453953366000,11.645365966796875,-0.002474999986588955,0.05857500061392784,0.0012374999932944775
1779997453970642400,11.662642333984374,0.002474999986588955,0.33838748931884766,0.006049999967217445
1779997453987919000,11.679919189453125,0.002474999986588955,0.4226749837398529,0.0085249999538064
1779997454005195500,11.697195556640626,0.0012374999932944775,0.26028749346733093,0.00494999997317791
1779997454022472200,11.71447216796875,-0.002474999986588955,-0.057475000619888306,-0.002474999986588955
1779997454039748600,11.73174853515625,-0.006049999967217445,-0.3359124958515167,-0.007287499960511923
1779997454057025000,11.74902490234375,-0.007287499960511923,-0.4166249930858612,-0.0085249999538064
1779997454074301700,11.7663017578125,-0.00494999997317791,-0.2540999948978424,-0.00494999997317791
1779997454091578000,11.783578125,-0.0012374999932944775,0.05376249924302101,0.0012374999932944775
1779997454108854500,11.8008544921875,0.002474999986588955,0.3310999870300293,0.006049999967217445
1779997454126131000,11.818130859375,0.0037124999798834324,0.41786250472068787,0.007287499960511923
1779997454143407400,11.835407470703124,0.0012374999932944775,0.26138749718666077,0.0037124999798834324
1779997454160683800,11.852683837890625,-0.002474999986588955,-0.04881250113248825,0
1779997454177960400,11.86996044921875,-0.006049999967217445,-0.32862499356269836,-0.0085249999538064
1779997454195236900,11.88723681640625,-0.007287499960511923,-0.4141499996185303,-0.007287499960511923
1779997454212513300,11.90451318359375,-0.004812499973922968,-0.2578125,-0.0037124999798834324
1779997454229790000,11.9217900390625,-0.0012374999932944775,0.045237500220537186,0.0012374999932944775
1779997454247066400,11.93906640625,0.002474999986588955,0.32257500290870667,0.00494999997317791
1779997454272981000,11.96498095703125,0.002474999986588955,0.3653374910354614,0.0085249999538064
1779997454290257700,11.982257568359374,-0.0012374999932944775,0.11976250261068344,0.002474999986588955
1779997454307534000,11.9995341796875,-0.004812499973922968,-0.19676250219345093,-0.00494999997317791
1779997454324810500,12.016810546875,-0.007287499960511923,-0.3946250081062317,-0.0085249999538064
1779997454342087000,12.0340869140625,-0.007287499960511923,-0.3591499924659729,-0.006049999967217445
1779997454359363300,12.05136328125,-0.0035749999806284904,-0.11852499842643738,-0.0012374999932944775
1779997454376640000,12.068639892578124,0,0.1905750036239624,0.0037124999798834324
1779997454393916400,12.08591650390625,0.002474999986588955,0.38843750953674316,0.007287499960511923
1779997454411192800,12.10319287109375,0.002474999986588955,0.3628624975681305,0.007287499960511923
1779997454428469200,12.12046923828125,0,0.12457499653100967,0.0037124999798834324
1779997454445746000,12.137745849609376,-0.004812499973922968,-0.18809999525547028,-0.0037124999798834324
1779997454463022300,12.155022216796874,-0.006049999967217445,-0.38733750581741333,-0.007287499960511923
1779997454480298800,12.172298828125,-0.006049999967217445,-0.3591499924659729,-0.00494999997317791
1779997454497575400,12.189575439453124,-0.0035749999806284904,-0.12581250071525574,-0.0012374999932944775
1779997454514851800,12.206851806640625,0,0.17710000276565552,0.0037124999798834324
1779997454532128300,12.224128173828126,0.002474999986588955,0.3774375021457672,0.007287499960511923
1779997454549404700,12.24140478515625,0.002474999986588955,0.35791251063346863,0.007287499960511923
1779997454566681300,12.258681396484375,0,0.1307625025510788,0.002474999986588955
1779997454583957800,12.275957763671874,-0.0035749999806284904,-0.17476250231266022,-0.0037124999798834324
1779997454601234200,12.293234130859375,-0.007287499960511923,-0.3763374984264374,-0.0085249999538064
1779997454618510600,12.310510498046876,-0.006049999967217445,-0.35557499527931213,-0.006049999967217445
1779997454635787300,12.327787353515625,-0.0035749999806284904,-0.12828749418258667,-0.0012374999932944775
1779997454653064000,12.34506396484375,0,0.16981250047683716,0.0037124999798834324
1779997454670340000,12.362340087890624,0.002474999986588955,0.37014999985694885,0.007287499960511923
1779997454687616800,12.37961669921875,0.0012374999932944775,0.35557499527931213,0.006049999967217445
1779997454704893200,12.39689306640625,-0.0012374999932944775,0.13557499647140503,0.002474999986588955
1779997454722169600,12.414169677734375,-0.00494999997317791,-0.16376249492168427,-0.0037124999798834324
1779997454739446300,12.4314462890625,-0.006187499966472387,-0.3653374910354614,-0.007287499960511923
1779997454756722700,12.44872265625,-0.007287499960511923,-0.35186249017715454,-0.006049999967217445
1779997454773999400,12.465999267578125,-0.0037124999798834324,-0.1331000030040741,-0.0012374999932944775
1779997454791275800,12.48327587890625,0,0.16005000472068787,0.002474999986588955
1779997454808552200,12.50055224609375,0.002474999986588955,0.36162498593330383,0.007287499960511923
1779997454825828600,12.51782861328125,0.002474999986588955,0.3531000018119812,0.0085249999538064
1779997454843105000,12.53510498046875,0,0.13805000483989716,0.002474999986588955
1779997454860381400,12.55238134765625,-0.0037124999798834324,-0.16005000472068787,-0.002474999986588955
1779997454877658000,12.569658203125,-0.006187499966472387,-0.3591499924659729,-0.006049999967217445
1779997454894934500,12.5869345703125,-0.006187499966472387,-0.3493874967098236,-0.00494999997317791
1779997454912211000,12.6042109375,-0.00494999997317791,-0.13805000483989716,-0.002474999986588955
1779997454929487600,12.621487548828124,0,0.1527625024318695,0.0037124999798834324
1779997454946763800,12.638763671875,0.002474999986588955,0.35557499527931213,0.006049999967217445
1779997454972678700,12.6646787109375,0.0012374999932944775,0.26881250739097595,0.00494999997317791
1779997454989955000,12.681955078125,-0.002474999986588955,-0.0012374999932944775,-0.0012374999932944775
1779997455007231500,12.6992314453125,-0.00494999997317791,-0.26881250739097595,-0.006049999967217445
1779997455024508200,12.716508056640626,-0.006187499966472387,-0.3774375021457672,-0.006049999967217445
1779997455041784600,12.73378466796875,-0.0037124999798834324,-0.2638624906539917,-0.0037124999798834324
1779997455059061000,12.75106103515625,-0.002474999986588955,-0.0012374999932944775,0.002474999986588955
1779997455076337400,12.76833740234375,0.0012374999932944775,0.26138749718666077,0.00494999997317791
1779997455093613800,12.78561376953125,0.002474999986588955,0.3726249933242798,0.0085249999538064
1779997455110890500,12.802890380859376,0.0012374999932944775,0.26633748412132263,0.006049999967217445
1779997455128167000,12.8201669921875,-0.002474999986588955,0.002474999986588955,0.0012374999932944775
1779997455154081500,12.84608154296875,-0.007287499960511923,-0.340862512588501,-0.006049999967217445
1779997455171358200,12.863358154296876,-0.006187499966472387,-0.3433375060558319,-0.006049999967217445
1779997455188634600,12.880634521484374,-0.0038499999791383743,-0.14533749222755432,-0.002337499987334013
1779997455205911300,12.897911376953125,-0.0002749999985098839,0.13323749601840973,0.0037124999798834324
1779997455223187500,12.9151875,0.0009624999947845936,0.33605000376701355,0.00494999997317791
1779997455240464100,12.932464111328125,0.002199999988079071,0.3445749878883362,0.006187499966472387
1779997455257740500,12.949740478515626,-0.0015124999918043613,0.1527625024318695,0.002612499985843897
1779997455275017000,12.967016845703125,-0.0038499999791383743,-0.1293874979019165,-0.0035749999806284904
1779997455292293400,12.98429345703125,-0.006324999965727329,-0.3334375023841858,-0.007287499960511923
1779997455309570000,13.001570068359374,-0.006324999965727329,-0.340862512588501,-0.006049999967217445
1779997455326846500,13.018846435546875,-0.0038499999791383743,-0.15015000104904175,-0.0010999999940395355
1779997455344123000,13.036122802734376,-0.0002749999985098839,0.1247124969959259,0.002612499985843897
1779997455361399300,13.0533994140625,0.002199999988079071,0.32628750801086426,0.006187499966472387
1779997455378676000,13.070676025390625,0.002199999988079071,0.3396250009536743,0.007424999959766865
1779997455395952400,13.087952392578124,-0.0002749999985098839,0.15399999916553497,0.0013749999925494194
1779997455413228800,13.105228759765625,-0.0038499999791383743,-0.12209999561309814,-0.002337499987334013
1779997455430505200,13.122505126953126,-0.006324999965727329,-0.32491248846054077,-0.007287499960511923
1779997455447781600,13.13978173828125,-0.006324999965727329,-0.3359124958515167,-0.007287499960511923
1779997455465058000,13.15705810546875,-0.0038499999791383743,-0.15262499451637268,-0.0010999999940395355
1779997455482334700,13.174334716796874,-0.0015124999918043613,0.11728750169277191,0.0013749999925494194
1779997455499611100,13.191611083984375,0.0009624999947845936,0.32010000944137573,0.007424999959766865
1779997455516887800,13.2088876953125,0.002199999988079071,0.33605000376701355,0.006187499966472387
1779997455542802400,13.234802490234374,-0.0015124999918043613,0.01966249942779541,0.0013749999925494194
1779997455560078800,13.252078857421875,-0.005087499972432852,-0.23457500338554382,-0.004812499973922968
1779997455577355500,13.26935546875,-0.006324999965727329,-0.35186249017715454,-0.007287499960511923
1779997455594632000,13.2866318359375,-0.005087499972432852,-0.2626250088214874,-0.0035749999806284904
1779997455611908400,13.303908447265625,-0.002749999985098839,-0.02199999988079071,0.00013749999925494194
1779997455629185000,13.32118505859375,0.0009624999947845936,0.23100000619888306,0.0037124999798834324
1779997455646461400,13.33846142578125,0.0009624999947845936,0.34952500462532043,0.006187499966472387
1779997455663737600,13.355737548828126,0.0009624999947845936,0.26633748412132263,0.00494999997317791
1779997455681014300,13.37301416015625,-0.002474999986588955,0.02681249938905239,0
1779997455698291000,13.390291015625,-0.00494999997317791,-0.22481249272823334,-0.00494999997317791
1779997455724205600,13.41620556640625,-0.006049999967217445,-0.3273875117301941,-0.006049999967217445
1779997455741482000,13.43348193359375,-0.0037124999798834324,-0.1588124930858612,-0.002474999986588955
1779997455758758700,13.450758544921875,-0.0012374999932944775,0.1013374999165535,0.0037124999798834324
1779997455784673000,13.476673095703125,0.002474999986588955,0.3396250009536743,0.007287499960511923
1779997455801949700,13.49394970703125,0.0012374999932944775,0.2626250088214874,0.006049999967217445
1779997455819226400,13.511226318359375,-0.002474999986588955,0.032999999821186066,0
1779997455836502500,13.52850244140625,-0.00494999997317791,-0.21752500534057617,-0.0037124999798834324
1779997455853779200,13.545779296875,-0.006049999967217445,-0.3359124958515167,-0.006049999967217445
1779997455871055600,13.5630556640625,-0.00494999997317791,-0.26028749346733093,-0.0037124999798834324
1779997455888332000,13.58033203125,-0.002474999986588955,-0.03423750028014183,0
1779997455905608700,13.597608642578125,0,0.21133749186992645,0.0037124999798834324
1779997455922885000,13.614885009765626,0.0012374999932944775,0.3359124958515167,0.00494999997317791
1779997455940161500,13.63216162109375,0.0012374999932944775,0.26510000228881836,0.00494999997317791
1779997455957438000,13.64943798828125,-0.0012374999932944775,0.03904999792575836,0.0012374999932944775
1779997455974714400,13.66671435546875,-0.0037124999798834324,-0.20652499794960022,-0.00494999997317791
1779997455991991000,13.683990966796875,-0.006049999967217445,-0.3310999870300293,-0.006049999967217445
1779997456009267500,13.701267333984376,-0.00494999997317791,-0.26138749718666077,-0.00494999997317791
1779997456026543900,13.7185439453125,-0.002474999986588955,-0.04152499884366989,0.0012374999932944775
1779997456043820500,13.735820556640626,0,0.20157499611377716,0.0037124999798834324
1779997456061097000,13.753096923828124,0.002474999986588955,0.3273875117301941,0.006049999967217445
1779997456078373400,13.770373291015625,0.0012374999932944775,0.2626250088214874,0.00494999997317791
1779997456095649800,13.78764990234375,-0.0012374999932944775,0.045237500220537186,0
1779997456112926200,13.80492626953125,-0.00494999997317791,-0.19786250591278076,-0.00494999997317791
1779997456130203000,13.822202880859376,-0.006049999967217445,-0.32381248474121094,-0.007287499960511923
1779997456156117500,13.848117431640626,-0.0037124999798834324,-0.16376249492168427,-0.002474999986588955
1779997456173394000,13.865393798828125,-0.0012374999932944775,0.08057499676942825,0.002474999986588955
1779997456190670300,13.88267041015625,0.0012374999932944775,0.2773374915122986,0.00494999997317791
1779997456207946800,13.89994677734375,0.0012374999932944775,0.3151499927043915,0.006049999967217445
1779997456233861600,13.925861572265624,-0.0012374999932944775,0.047575000673532486,0
1779997456251138000,13.943137939453125,-0.004812499973922968,-0.19181250035762787,-0.00494999997317791
1779997456268414500,13.96041455078125,-0.006049999967217445,-0.3188624978065491,-0.00494999997317791
1779997456285691100,13.977691162109375,-0.004812499973922968,-0.2578125,-0.0037124999798834324
1779997456302967600,13.994967529296876,-0.002474999986588955,-0.05004999786615372,0.0012374999932944775
1779997456320244200,14.012244140625,0,0.18809999525547028,0.0037124999798834324
1779997456337520400,14.029520263671875,0.002474999986588955,0.3151499927043915,0.006049999967217445
1779997456354797000,14.046797119140624,0,0.26138749718666077,0.00494999997317791
1779997456372073500,14.064073486328125,-0.0012374999932944775,0.05376249924302101,0
1779997456389350100,14.08135009765625,-0.004812499973922968,-0.18328750133514404,-0.00494999997317791
1779997456406626600,14.09862646484375,-0.006049999967217445,-0.31033748388290405,-0.006049999967217445
1779997456423903000,14.115903076171875,-0.004812499973922968,-0.25533750653266907,-0.0037124999798834324
1779997456441179100,14.13317919921875,-0.002474999986588955,-0.05376249924302101,0
1779997456458455800,14.150455810546875,0.0012374999932944775,0.17833749949932098,0.0037124999798834324
1779997456475732200,14.167732177734376,0.002474999986588955,0.3053874969482422,0.006049999967217445
1779997456493008600,14.185008544921875,0.0012374999932944775,0.2540999948978424,0.00494999997317791
1779997456510285300,14.202285400390625,-0.0012374999932944775,0.054999999701976776,0.0012374999932944775
1779997456527561700,14.219561767578124,-0.0035749999806284904,-0.17710000276565552,-0.0037124999798834324
1779997456544838100,14.236838134765625,-0.004812499973922968,-0.3041499853134155,-0.00494999997317791
1779997456562114600,14.254114501953126,-0.004812499973922968,-0.2540999948978424,-0.0037124999798834324
1779997456579391000,14.271390869140625,-0.0035749999806284904,-0.05871250107884407,0.0012374999932944775
1779997456596667400,14.28866748046875,-0.0012374999932944775,0.16981250047683716,0.00494999997317791
1779997456613944000,14.305944091796874,0.0012374999932944775,0.30057498812675476,0.006049999967217445
1779997456631220700,14.323220703125,0,0.2540999948978424,0.006049999967217445
1779997456648497200,14.3404970703125,-0.002474999986588955,0.05857500061392784,0
1779997456665773600,14.357773681640625,-0.006049999967217445,-0.16981250047683716,-0.0037124999798834324
1779997456683050000,14.375050048828125,-0.006049999967217445,-0.29809999465942383,-0.007287499960511923
1779997456700326700,14.39232666015625,-0.006049999967217445,-0.2480500042438507,-0.006049999967217445
1779997456717603000,14.40960302734375,-0.0037124999798834324,-0.054999999701976776,-0.002474999986588955
1779997456734879500,14.42687939453125,-0.0012374999932944775,0.1722874939441681,0
1779997456752156200,14.44415625,0.002474999986588955,0.30057498812675476,0.0037124999798834324
1779997456769432300,14.461432373046875,0.0012374999932944775,0.25533750653266907,0.002474999986588955
1779997456786709000,14.478708984375,0,0.06476250290870667,0
1779997456803985400,14.4959853515625,-0.002474999986588955,-0.16376249492168427,-0.00494999997317791
1779997456821261800,14.51326171875,-0.0037124999798834324,-0.2956250011920929,-0.007287499960511923
1779997456838538200,14.530538330078125,-0.0037124999798834324,-0.2540999948978424,-0.0037124999798834324
1779997456855815000,14.54781494140625,-0.0012374999932944775,-0.06476250290870667,-0.002474999986588955
1779997456873091300,14.56509130859375,0.0012374999932944775,0.16128750145435333,0.0037124999798834324
1779997456890367700,14.58236767578125,0.002474999986588955,0.29438748955726624,0.006049999967217445
1779997456907644400,14.59964453125,0.002474999986588955,0.25657498836517334,0.00494999997317791
1779997456924920600,14.616920654296875,0,0.06847500056028366,0.002474999986588955
1779997456942197200,14.634197265625,-0.0037124999798834324,-0.16005000472068787,-0.0037124999798834324
1779997456959473700,14.6514736328125,-0.004812499973922968,-0.29205000400543213,-0.00494999997317791
1779997456976750000,14.66875,-0.004812499973922968,-0.2540999948978424,-0.0037124999798834324
1779997456994026500,14.686026611328124,-0.0037124999798834324,-0.07081250101327896,0
1779997457011303200,14.70330322265625,-0.0012374999932944775,0.1527625024318695,0.0037124999798834324
1779997457028579600,14.72057958984375,0,0.2870999872684479,0.00494999997317791
1779997457054494200,14.746494140625,-0.0012374999932944775,0.17586250603199005,0.00494999997317791
1779997457071771000,14.76377099609375,-0.002474999986588955,-0.04399999976158142,-0.0012374999932944775
1779997457097685200,14.789685302734375,-0.004812499973922968,-0.2858625054359436,-0.00494999997317791
1779997457114962000,14.8069619140625,-0.004812499973922968,-0.25286251306533813,-0.00494999997317791
1779997457132238600,14.824238525390625,-0.002474999986588955,-0.07328750193119049,0
1779997457149515000,14.841514892578125,0,0.14657500386238098,0.002474999986588955
1779997457175429600,14.8674296875,0.0012374999932944775,0.2870999872684479,0.006049999967217445
1779997457192706300,14.884706298828124,-0.0002749999985098839,0.17723749577999115,0.002612499985843897
1779997457218620700,14.91062060546875,-0.005087499972432852,-0.14409999549388885,-0.0035749999806284904
1779997457235897300,14.9278974609375,-0.006324999965727329,-0.2773374915122986,-0.006049999967217445
1779997457261812000,14.95381201171875,-0.0038499999791383743,-0.1746249943971634,-0.002337499987334013
1779997457279088400,14.97108837890625,-0.0015124999918043613,0.035475000739097595,0.0013749999925494194
1779997457296365000,14.988364990234375,0.0009624999947845936,0.22481249272823334,0.006187499966472387
1779997457313641500,15.005641357421876,0.0009624999947845936,0.28228750824928284,0.0037124999798834324
1779997457330918000,15.02291796875,-0.0002749999985098839,0.17476250231266022,0.00494999997317791
1779997457348194300,15.0401943359375,-0.0015124999918043613,-0.035337500274181366,-0.0010999999940395355
1779997457365470700,15.057470703125,-0.005087499972432852,-0.22357499599456787,-0.0035749999806284904
1779997457382747100,15.0747470703125,-0.005087499972432852,-0.28091248869895935,-0.004812499973922968
1779997457400023800,15.09202392578125,-0.0038499999791383743,-0.17338749766349792,-0.0035749999806284904
1779997457417300500,15.109300537109375,-0.0002749999985098839,0.032999999821186066,0.002612499985843897
1779997457434577000,15.126576904296876,0.002199999988079071,0.2199999988079071,0.0037124999798834324
1779997457451853300,15.143853271484375,0.002199999988079071,0.27857500314712524,0.00494999997317791
1779997457469129700,15.161129638671875,-0.0002749999985098839,0.17723749577999115,0.0037124999798834324
1779997457486406100,15.17840625,-0.0015124999918043613,-0.028049999848008156,-0.0010999999940395355
1779997457503682600,15.1956826171875,-0.005087499972432852,-0.2149125039577484,-0.006049999967217445
1779997457520959200,15.212959228515626,-0.006324999965727329,-0.2761000096797943,-0.004812499973922968
1779997457538235600,15.230235595703125,-0.0038499999791383743,-0.1746249943971634,-0.002337499987334013
1779997457564150300,15.256150390625,-0.0002749999985098839,0.1307625025510788,0.0037124999798834324
1779997457581427000,15.273427001953126,0.0009624999947845936,0.2639999985694885,0.0037124999798834324
1779997457598703400,15.290703369140624,0.0009624999947845936,0.24433749914169312,0.00494999997317791
1779997457615979800,15.307979736328125,-0.0015124999918043613,0.08195000141859055,0.0013749999925494194
1779997457633256400,15.32525634765625,-0.0038499999791383743,-0.1270499974489212,-0.002337499987334013
1779997457650532900,15.342532958984375,-0.006324999965727329,-0.26138749718666077,-0.006049999967217445
1779997457667809300,15.359809326171876,-0.005087499972432852,-0.24062499403953552,-0.0035749999806284904
1779997457685085700,15.377085693359374,-0.002749999985098839,-0.08304999768733978,-0.0010999999940395355
1779997457702362000,15.394362060546875,-0.0015124999918043613,0.12347500026226044,0.002612499985843897
1779997457719638500,15.411638427734376,0.0009624999947845936,0.25905001163482666,0.00494999997317791
1779997457736915200,15.428915283203125,0.0009624999947845936,0.24323749542236328,0.0037124999798834324
1779997457754191600,15.446191650390626,-0.0002749999985098839,0.08676250278949738,0.00013749999925494194
1779997457771468000,15.463468017578125,-0.002749999985098839,-0.12086249887943268,-0.0035749999806284904
1779997457788744700,15.48074462890625,-0.005087499972432852,-0.2564375102519989,-0.004812499973922968
1779997457806021000,15.498021240234374,-0.005087499972432852,-0.24062499403953552,-0.0035749999806284904
1779997457823297800,15.5152978515625,-0.003987499978393316,-0.08786249905824661,-0.0010999999940395355
1779997457840574200,15.53257421875,-0.0002749999985098839,0.11618749797344208,0.0037124999798834324
1779997457857850600,15.5498505859375,0.0009624999947845936,0.24928750097751617,0.006187499966472387
1779997457875127000,15.567126953125,0.0009624999947845936,0.23952500522136688,0.00494999997317791
1779997457892403500,15.584403564453124,-0.0015124999918043613,0.08799999952316284,0.002612499985843897
1779997457909680000,15.60168017578125,-0.003987499978393316,-0.11481250077486038,-0.0035749999806284904
1779997457926956500,15.61895654296875,-0.005087499972432852,-0.24914999306201935,-0.004812499973922968
1779997457944233200,15.636233154296875,-0.005087499972432852,-0.2381500005722046,-0.004812499973922968
1779997457961509400,15.65350927734375,-0.003987499978393316,-0.08786249905824661,-0.002337499987334013
1779997457978786000,15.6707861328125,-0.0015124999918043613,0.11495000123977661,0.0037124999798834324
1779997457996062200,15.688062255859375,0.0009624999947845936,0.24928750097751617,0.00494999997317791
1779997458013339000,15.7053388671875,0.0009624999947845936,0.23952500522136688,0.00494999997317791
1779997458030615600,15.722615478515625,-0.0015124999918043613,0.08923749625682831,0.0013749999925494194
1779997458047891700,15.7398916015625,-0.003987499978393316,-0.11110000312328339,-0.0010999999940395355
1779997458065168100,15.757168212890624,-0.005087499972432852,-0.24667499959468842,-0.006049999967217445
1779997458082444800,15.77444482421875,-0.005087499972432852,-0.23691250383853912,-0.0035749999806284904
1779997458099721000,15.791720947265626,-0.002749999985098839,-0.09157499670982361,-0.0010999999940395355
1779997458116997600,15.80899755859375,-0.0015124999918043613,0.10518749803304672,0.0013749999925494194
1779997458134274300,15.8262744140625,0.0009624999947845936,0.24323749542236328,0.00494999997317791
1779997458151550700,15.84355078125,-0.0002749999985098839,0.23952500522136688,0.0037124999798834324
1779997458177465300,15.86946533203125,-0.002749999985098839,-0.006049999967217445,-0.0010999999940395355
1779997458194741800,15.88674169921875,-0.005087499972432852,-0.1868624985218048,-0.0035749999806284904
1779997458212018400,15.904018310546874,-0.005087499972432852,-0.2576749920845032,-0.004812499973922968
1779997458229294800,15.921294921875,-0.0038499999791383743,-0.17833749949932098,-0.002337499987334013
1779997458246571300,15.9385712890625,-0.002749999985098839,0.002474999986588955,0.00013749999925494194
1779997458263848000,15.955847900390625,-0.0002749999985098839,0.18328750133514404,0.002612499985843897
1779997458281124400,15.973124267578125,-0.0002749999985098839,0.2578125,0.006187499966472387
1779997458298400800,15.99040087890625,-0.0015124999918043613,0.17971250414848328,0.002612499985843897
1779997458315677200,16.00767724609375,-0.0038499999791383743,-0.002337499987334013,0.00013749999925494194
1779997458332953600,16.02495361328125,-0.005087499972432852,-0.18081249296665192,-0.0035749999806284904
1779997458350230300,16.042230224609376,-0.005087499972432852,-0.2516250014305115,-0.004812499973922968
1779997458367506700,16.059506591796875,-0.0038499999791383743,-0.17586250603199005,-0.002337499987334013
1779997458384783000,16.076783203125,-0.0015124999918043613,0.0012374999932944775,-0.002337499987334013
1779997458402059800,16.094059814453125,-0.0002749999985098839,0.17847499251365662,0.00494999997317791
1779997458419336000,16.1113359375,0.0009624999947845936,0.25052499771118164,0.0037124999798834324
1779997458436612600,16.128612548828126,-0.0002749999985098839,0.17847499251365662,0.0037124999798834324
1779997458453889000,16.145888916015625,-0.002749999985098839,0.002474999986588955,0.00013749999925494194
1779997458471165700,16.163165771484376,-0.006324999965727329,-0.17710000276565552,-0.002337499987334013
1779997458488442000,16.180442138671875,-0.006324999965727329,-0.24914999306201935,-0.002337499987334013
1779997458505718500,16.197718505859374,-0.005087499972432852,-0.17833749949932098,-0.0035749999806284904
1779997458522995000,16.214994873046876,-0.002749999985098839,-0.0035749999806284904,0.002612499985843897
1779997458540271600,16.232271728515624,-0.0002749999985098839,0.17104999721050262,0.0013749999925494194
1779997458557547800,16.2495478515625,0.0009624999947845936,0.2480500042438507,0.006187499966472387
1779997458574824400,16.266824462890625,-0.0002749999985098839,0.17847499251365662,0.0037124999798834324
1779997458592100900,16.284100830078124,-0.002749999985098839,0.0037124999798834324,-0.0010999999940395355
1779997458609377300,16.301377197265627,-0.0038499999791383743,-0.17215000092983246,-0.004812499973922968
1779997458626654000,16.318654052734374,-0.005087499972432852,-0.24433749914169312,-0.006049999967217445
1779997458643930600,16.3359306640625,-0.0038499999791383743,-0.17215000092983246,-0.002337499987334013
1779997458661206800,16.353206787109375,-0.0015124999918043613,-0.002337499987334013,-0.0010999999940395355
1779997458678483200,16.370483154296874,-0.0002749999985098839,0.17104999721050262,0.0037124999798834324
1779997458695760000,16.387759765625,0.0009624999947845936,0.24199999868869781,0.0037124999798834324
1779997458713036300,16.405036376953124,-0.0002749999985098839,0.17352500557899475,0.0013749999925494194
1779997458730312700,16.422312744140626,-0.0015124999918043613,0.00494999997317791,0.00013749999925494194
1779997458747589400,16.43958935546875,-0.003987499978393316,-0.1648624986410141,-0.004812499973922968
1779997458764865800,16.45686572265625,-0.005087499972432852,-0.23691250383853912,-0.002337499987334013
1779997458782142200,16.47414208984375,-0.005087499972432852,-0.170912504196167,-0.004812499973922968
1779997458799418600,16.491418701171874,-0.002749999985098839,-0.006049999967217445,0.00013749999925494194
1779997458816695000,16.508695068359376,0.0009624999947845936,0.16128750145435333,0.00494999997317791
1779997458833971700,16.5259716796875,0.0009624999947845936,0.233474999666214,0.002612499985843897
1779997458851248000,16.543248046875,-0.0015124999918043613,0.16981250047683716,0.00494999997317791
1779997458868524500,16.560524658203125,-0.002749999985098839,0.008662499487400055,-0.0010999999940395355
1779997458885801000,16.577801025390624,-0.005087499972432852,-0.1588124930858612,-0.002337499987334013
1779997458903077600,16.59507763671875,-0.005087499972432852,-0.2320999950170517,-0.0035749999806284904
1779997458920354000,16.61235400390625,-0.005087499972432852,-0.170912504196167,-0.0035749999806284904
1779997458937630500,16.62963037109375,-0.002749999985098839,-0.00976249948143959,0.00013749999925494194
1779997458954907100,16.6469072265625,-0.0002749999985098839,0.1564749926328659,0.002612499985843897
1779997458972183600,16.66418359375,-0.0002749999985098839,0.23223750293254852,0.00494999997317791
1779997458989460000,16.6814599609375,-0.0002749999985098839,0.17352500557899475,0.002612499985843897
1779997459006736400,16.698736328125,-0.002749999985098839,0.01347499992698431,0.00013749999925494194
1779997459024013000,16.716012939453126,-0.005087499972432852,-0.1551000028848648,-0.0035749999806284904
1779997459041289700,16.733289794921873,-0.006324999965727329,-0.2320999950170517,-0.0035749999806284904
1779997459067204000,16.7592041015625,-0.003987499978393316,-0.1013374999165535,-0.002337499987334013
1779997459084480800,16.776480712890624,-0.0015124999918043613,0.07218749821186066,0.002612499985843897
1779997459101757200,16.793757080078127,-0.0002749999985098839,0.20528750121593475,0.0037124999798834324
1779997459119033600,16.81103369140625,-0.0002749999985098839,0.21752500534057617,0.0037124999798834324
1779997459136310300,16.828310302734376,-0.0002749999985098839,0.10395000129938126,0.002612499985843897
1779997459153586700,16.845586669921875,-0.002749999985098839,-0.07328750193119049,-0.002337499987334013
1779997459170863000,16.862863037109374,-0.005087499972432852,-0.20391249656677246,-0.0035749999806284904
1779997459188139500,16.880139404296877,-0.005087499972432852,-0.2149125039577484,-0.004812499973922968
1779997459205416200,16.897416259765624,-0.0038499999791383743,-0.1013374999165535,-0.0010999999940395355
1779997459222692600,16.914692626953126,-0.002749999985098839,0.07218749821186066,0.0013749999925494194
1779997459239969000,16.931968994140625,-0.0015124999918043613,0.20281249284744263,0.0037124999798834324
1779997459257245400,16.949245361328124,-0.0015124999918043613,0.2162874937057495,0.0037124999798834324
1779997459274521900,16.96652197265625,-0.002749999985098839,0.10395000129938126,0.002612499985843897
1779997459291798500,16.983798583984374,-0.0038499999791383743,-0.07081250101327896,-0.0010999999940395355
1779997459309075000,17.001074951171876,-0.005087499972432852,-0.20157499611377716,-0.004812499973922968
1779997459326351400,17.018351318359375,-0.005087499972432852,-0.21615000069141388,-0.0035749999806284904
1779997459343627800,17.035627685546874,-0.0038499999791383743,-0.1013374999165535,-0.002337499987334013
1779997459360904400,17.052904541015625,-0.0015124999918043613,0.06971249729394913,0.002612499985843897
1779997459378180900,17.070180908203124,0.0009624999947845936,0.19923749566078186,0.0037124999798834324
1779997459395457300,17.087457275390626,0.0009624999947845936,0.21381250023841858,0.0037124999798834324
1779997459412734000,17.10473388671875,0.0009624999947845936,0.10518749803304672,0.002612499985843897
1779997459430010400,17.12201025390625,-0.002749999985098839,-0.0658624991774559,-0.002337499987334013
1779997459447286800,17.139286865234375,-0.005087499972432852,-0.19910000264644623,-0.0035749999806284904
1779997459464563200,17.156563232421874,-0.0038499999791383743,-0.2125750035047531,-0.0035749999806284904
1779997459481839900,17.17383984375,-0.002749999985098839,-0.10381250083446503,-0.0010999999940395355
1779997459499116300,17.1911162109375,-0.0015124999918043613,0.06476250290870667,0.0013749999925494194
1779997459516392700,17.208392822265626,-0.0002749999985098839,0.19676250219345093,0.002612499985843897
1779997459533669400,17.22566943359375,0.0009624999947845936,0.2162874937057495,0.0037124999798834324
1779997459550945800,17.24294580078125,-0.0002749999985098839,0.10876250267028809,0.0013749999925494194
1779997459568222200,17.26022216796875,-0.0038499999791383743,-0.06228749826550484,-0.002337499987334013
1779997459585498600,17.27749853515625,-0.005087499972432852,-0.19415000081062317,-0.004812499973922968
1779997459602775000,17.294775146484376,-0.005087499972432852,-0.21133749186992645,-0.004812499973922968
1779997459620051500,17.312051513671875,-0.0038499999791383743,-0.10257499665021896,-0.0010999999940395355
1779997459637328100,17.329328125,-0.0015124999918043613,0.0635249987244606,0.0013749999925494194
1779997459654604500,17.3466044921875,-0.0002749999985098839,0.19181250035762787,0.0037124999798834324
1779997459671881000,17.363880859375,-0.0002749999985098839,0.20899999141693115,0.00494999997317791
1779997459689157600,17.38115771484375,-0.0012374999932944775,0.10381250083446503,0.002474999986588955
1779997459706434000,17.39843408203125,-0.0037124999798834324,-0.0635249987244606,-0.0012374999932944775
1779997459723710500,17.41571044921875,-0.00494999997317791,-0.1942874938249588,-0.002474999986588955
1779997459740987000,17.43298681640625,-0.00494999997317791,-0.210099995136261,-0.002474999986588955
1779997459758263600,17.450263671875,-0.0037124999798834324,-0.10628750175237656,0
1779997459775540000,17.4675400390625,-0.002474999986588955,0.05857500061392784,0.0012374999932944775
1779997459792816400,17.48481640625,0,0.18933749198913574,0.0037124999798834324
1779997459810093000,17.502093017578126,0,0.210099995136261,0.00494999997317791
1779997459827369500,17.519369384765625,0,0.10876250267028809,0.002474999986588955
1779997459844646000,17.53664599609375,-0.002474999986588955,-0.054999999701976776,-0.0012374999932944775
1779997459861922300,17.55392236328125,-0.0037124999798834324,-0.18576249480247498,-0.00494999997317791
1779997459879199000,17.571198974609374,-0.00494999997317791,-0.20528750121593475,-0.00494999997317791
1779997459896475400,17.588475341796876,-0.0037124999798834324,-0.1050499975681305,-0.0012374999932944775
1779997459913751800,17.605751708984375,-0.0012374999932944775,0.054999999701976776,0.002474999986588955
1779997459931028500,17.623028564453126,0,0.18328750133514404,0.0037124999798834324
1779997459948305000,17.640304931640625,0.0012374999932944775,0.2040500044822693,0.0037124999798834324
1779997459965581300,17.657581298828124,-0.0012374999932944775,0.10628750175237656,0.002474999986588955
1779997459982857700,17.674857666015626,-0.002474999986588955,-0.05252499878406525,-0.0012374999932944775
1779997460000134400,17.692134521484373,-0.00494999997317791,-0.18081249296665192,-0.0037124999798834324
1779997460017410800,17.709410888671876,-0.00494999997317791,-0.20528750121593475,-0.0037124999798834324
1779997460034687200,17.726687255859375,-0.0037124999798834324,-0.1050499975681305,-0.002474999986588955
1779997460051964000,17.7439638671875,-0.0012374999932944775,0.05252499878406525,0.002474999986588955
1779997460069240300,17.761240234375,0,0.17957499623298645,0.0037124999798834324
1779997460086516700,17.778516845703123,0,0.20281249284744263,0.002474999986588955
1779997460103793200,17.795793212890626,0,0.10752499848604202,0.0012374999932944775
1779997460121069800,17.81306982421875,-0.002474999986588955,-0.047712501138448715,-0.002474999986588955
1779997460138346200,17.83034619140625,-0.0037124999798834324,-0.17586250603199005,-0.0037124999798834324
1779997460155622700,17.84762255859375,-0.00494999997317791,-0.19786250591278076,-0.00494999997317791
1779997460172899300,17.8648994140625,-0.002474999986588955,-0.1050499975681305,-0.0012374999932944775
1779997460190175700,17.88217578125,-0.0012374999932944775,0.05004999786615372,0.0012374999932944775
1779997460207452200,17.8994521484375,0,0.17476250231266022,0.0037124999798834324
1779997460224728600,17.916728515625,0,0.19910000264644623,0.0037124999798834324
1779997460242005200,17.934005126953124,-0.0012374999932944775,0.10752499848604202,0.002474999986588955
1779997460259281400,17.951281494140623,-0.0035749999806284904,-0.047712501138448715,0
1779997460276558000,17.96855810546875,-0.004812499973922968,-0.17476250231266022,-0.002474999986588955
1779997460293834500,17.98583447265625,-0.004812499973922968,-0.19910000264644623,-0.002474999986588955
1779997460311111000,18.00311083984375,-0.0035749999806284904,-0.10876250267028809,-0.0012374999932944775
1779997460328387600,18.0203876953125,-0.002474999986588955,0.042762499302625656,0.0012374999932944775
1779997460345664000,18.0376640625,0,0.16981250047683716,0.0037124999798834324
1779997460362940400,18.0549404296875,0,0.1966249942779541,0.0037124999798834324
1779997460380216800,18.072216796875,0,0.10999999940395355,0.002474999986588955
1779997460397493500,18.089493408203126,-0.002474999986588955,-0.04028749838471413,-0.0012374999932944775
1779997460414770000,18.10677001953125,-0.0035749999806284904,-0.16609999537467957,-0.0037124999798834324
1779997460432046300,18.12404638671875,-0.004812499973922968,-0.19304999709129333,-0.0037124999798834324
1779997460449322800,18.14132275390625,-0.0035749999806284904,-0.10752499848604202,-0.0012374999932944775
1779997460466599200,18.15859912109375,-0.0012374999932944775,0.04028749838471413,0.0012374999932944775
1779997460483875800,18.175875732421876,0,0.16376249492168427,0.002474999986588955
1779997460501152300,18.19315234375,0,0.19304999709129333,0.00494999997317791
1779997460518428700,18.2104287109375,-0.0012374999932944775,0.10999999940395355,0.0012374999932944775
1779997460535705000,18.227705078125,-0.002474999986588955,-0.037812501192092896,-0.0012374999932944775
1779997460552981500,18.2449814453125,-0.0035749999806284904,-0.1625249981880188,-0.0037124999798834324
1779997460570258200,18.262258056640626,-0.004812499973922968,-0.19181250035762787,-0.00494999997317791
1779997460587534600,18.27953466796875,-0.0035749999806284904,-0.10752499848604202,-0.0012374999932944775
1779997460604811300,18.296811279296875,-0.002474999986588955,0.04028749838471413,0
1779997460622087700,18.314087646484374,0,0.1625249981880188,0.002474999986588955
1779997460639364000,18.331364013671877,-0.0012374999932944775,0.19304999709129333,0.002474999986588955
1779997460656640800,18.348640869140624,-0.0012374999932944775,0.11110000312328339,0.0012374999932944775
1779997460673917200,18.365917236328126,-0.002474999986588955,-0.035475000739097595,-0.0012374999932944775
1779997460691193600,18.383193603515625,-0.003987499978393316,-0.16005000472068787,-0.002337499987334013
1779997460708470000,18.400469970703124,-0.005087499972432852,-0.18933749198913574,-0.0035749999806284904
1779997460725746400,18.417746337890627,-0.002749999985098839,-0.10986249893903732,-0.002337499987334013
1779997460743022800,18.43502294921875,-0.0015124999918043613,0.03423750028014183,0.0013749999925494194
1779997460760299500,18.452299560546876,0.0009624999947845936,0.15771250426769257,0.00494999997317791
1779997460777576000,18.469575927734375,-0.0002749999985098839,0.1882375031709671,0.0037124999798834324
1779997460794852400,18.486852294921874,-0.0002749999985098839,0.10752499848604202,0.0037124999798834324
1779997460812128800,18.504128662109373,-0.002749999985098839,-0.03657500073313713,-0.0010999999940395355
1779997460829405200,18.5214052734375,-0.003987499978393316,-0.1588124930858612,-0.0010999999940395355
1779997460846681900,18.538681884765627,-0.003987499978393316,-0.18933749198913574,-0.0035749999806284904
1779997460863958300,18.555958251953125,-0.003987499978393316,-0.10986249893903732,0.00013749999925494194
1779997460881235000,18.57323486328125,-0.002749999985098839,0.032999999821186066,0.00013749999925494194
1779997460898511000,18.590510986328123,-0.0002749999985098839,0.1564749926328659,0.0037124999798834324
1779997460924426000,18.616426025390624,-0.0015124999918043613,0.1625249981880188,0.002612499985843897
1779997460941702400,18.633702392578126,-0.002749999985098839,0.04399999976158142,0.00013749999925494194
1779997460958979000,18.65097900390625,-0.003987499978393316,-0.09886249899864197,-0.0010999999940395355
1779997460976255500,18.66825537109375,-0.005087499972432852,-0.18191249668598175,-0.004812499973922968
1779997460993532000,18.685531982421875,-0.005087499972432852,-0.15757499635219574,-0.002337499987334013
1779997461019446500,18.711446533203127,-0.002749999985098839,0.029424998909235,0.00013749999925494194
1779997461036723200,18.72872314453125,-0.0002749999985098839,0.14904999732971191,0.0037124999798834324
1779997461053999600,18.74599951171875,0.0009624999947845936,0.18328750133514404,0.0037124999798834324
1779997461071276300,18.7632763671875,-0.0015124999918043613,0.10876250267028809,0.002612499985843897
1779997461088552700,18.780552734375,-0.002749999985098839,-0.02681249938905239,0.00013749999925494194
1779997461105829000,18.7978291015625,-0.003987499978393316,-0.14781250059604645,-0.0035749999806284904
1779997461123105500,18.81510546875,-0.003987499978393316,-0.18081249296665192,-0.002337499987334013
1779997461140382000,18.8323818359375,-0.003987499978393316,-0.1073874980211258,-0.002337499987334013
1779997461157658600,18.84965869140625,-0.0015124999918043613,0.028187500312924385,0.0013749999925494194
1779997461174935000,18.86693505859375,-0.0015124999918043613,0.14547500014305115,0.002612499985843897
1779997461192211500,18.88421142578125,-0.0002749999985098839,0.18081249296665192,0.0013749999925494194
1779997461209488100,18.901488037109374,-0.0015124999918043613,0.10999999940395355,0.0013749999925494194
1779997461226764500,18.9187646484375,-0.002749999985098839,-0.02199999988079071,-0.0010999999940395355
1779997461244041000,18.936041015625,-0.0038499999791383743,-0.1428624987602234,-0.0035749999806284904
1779997461261317400,18.9533173828125,-0.0038499999791383743,-0.17586250603199005,-0.0035749999806284904
1779997461278594000,18.970593994140625,-0.0038499999791383743,-0.10862500220537186,-0.002337499987334013
1779997461295870200,18.9878701171875,-0.002749999985098839,0.02199999988079071,0.0013749999925494194
1779997461313147000,19.00514697265625,-0.0002749999985098839,0.1405249983072281,0.0037124999798834324
1779997461330423600,19.022423583984374,-0.0002749999985098839,0.17599999904632568,0.0037124999798834324
1779997461347699700,19.03969970703125,-0.0015124999918043613,0.10752499848604202,0.0037124999798834324
1779997461364976400,19.056976318359375,-0.002749999985098839,-0.02199999988079071,0.00013749999925494194
1779997461382252800,19.074252685546874,-0.0038499999791383743,-0.13805000483989716,-0.002337499987334013
1779997461399529200,19.091529296875,-0.005087499972432852,-0.17104999721050262,-0.002337499987334013
1779997461416806000,19.108805908203124,-0.002749999985098839,-0.1050499975681305,-0.0010999999940395355
1779997461434082300,19.126082275390626,-0.0015124999918043613,0.02199999988079071,0.0013749999925494194
1779997461451358700,19.143358642578125,-0.0015124999918043613,0.13571250438690186,0.002612499985843897
1779997461468635100,19.16063525390625,-0.0002749999985098839,0.17104999721050262,0.0037124999798834324
1779997461485911800,19.177911865234375,-0.0002749999985098839,0.10628750175237656,0.002612499985843897
1779997461503188200,19.195188232421874,-0.002749999985098839,-0.020762499421834946,-0.0010999999940395355
1779997461520464600,19.212464599609376,-0.0038499999791383743,-0.13557499647140503,-0.002337499987334013
1779997461546379500,19.238379638671876,-0.0038499999791383743,-0.14533749222755432,-0.002337499987334013
1779997461563655700,19.25565576171875,-0.002749999985098839,-0.042762499302625656,-0.0010999999940395355
1779997461580932400,19.272932373046874,-0.002749999985098839,0.08318749815225601,0.0013749999925494194
1779997461598208800,19.290208740234377,-0.0015124999918043613,0.1625249981880188,0.0037124999798834324
1779997461615485400,19.3074853515625,-0.0002749999985098839,0.14794999361038208,0.002612499985843897
1779997461632761900,19.324761962890626,-0.002749999985098839,0.045237500220537186,0.0013749999925494194
1779997461650038300,19.342038330078125,-0.0038499999791383743,-0.08428750187158585,-0.0010999999940395355
1779997461667315000,19.35931494140625,-0.0038499999791383743,-0.16238750517368317,-0.0010999999940395355
1779997461684591400,19.37659130859375,-0.0038499999791383743,-0.14781250059604645,-0.002337499987334013
1779997461701867800,19.39386767578125,-0.002474999986588955,-0.04881250113248825,0
1779997461719144400,19.41114453125,-0.0012374999932944775,0.07823749631643295,0.002474999986588955
1779997461736420900,19.4284208984375,0,0.16005000472068787,0.002474999986588955
1779997461753697300,19.445697265625,0,0.14904999732971191,0.0037124999798834324
1779997461770973700,19.4629736328125,-0.0012374999932944775,0.05004999786615372,0.0012374999932944775
1779997461788250000,19.48025,-0.002474999986588955,-0.07699999958276749,-0.0012374999932944775
1779997461805526500,19.497526611328126,-0.0035749999806284904,-0.15757499635219574,-0.0037124999798834324
1779997461822803200,19.51480322265625,-0.0035749999806284904,-0.14533749222755432,-0.0012374999932944775
1779997461840079600,19.53207958984375,-0.002474999986588955,-0.04881250113248825,-0.0012374999932944775
1779997461857356000,19.54935595703125,-0.0012374999932944775,0.07699999958276749,0
1779997461874632700,19.5666328125,0,0.15757499635219574,0.0037124999798834324
1779997461891909000,19.5839091796875,-0.0012374999932944775,0.14781250059604645,0.002474999986588955
1779997461909185500,19.601185546875,-0.002474999986588955,0.05128749832510948,0.002474999986588955
1779997461926462000,19.6184619140625,-0.0035749999806284904,-0.07576250284910202,-0.0012374999932944775
1779997461943738600,19.635738525390625,-0.0035749999806284904,-0.15633749961853027,-0.002474999986588955
1779997461961015000,19.65301513671875,-0.0035749999806284904,-0.14657500386238098,-0.002474999986588955
1779997461978291500,19.67029150390625,-0.002474999986588955,-0.05252499878406525,-0.0012374999932944775
1779997461995568000,19.687568115234374,0,0.07328750193119049,0.002474999986588955
1779997462012844500,19.704844482421876,0.0012374999932944775,0.15386250615119934,0.002474999986588955
1779997462030121000,19.722120849609375,0,0.14781250059604645,0.002474999986588955
1779997462047397400,19.7393974609375,-0.0012374999932944775,0.054999999701976776,-0.0012374999932944775
1779997462064674000,19.756674072265625,-0.002474999986588955,-0.06971249729394913,-0.002474999986588955
1779997462081950500,19.773950439453124,-0.0035749999806284904,-0.15028749406337738,-0.0037124999798834324
1779997462099227000,19.791226806640626,-0.0035749999806284904,-0.14409999549388885,-0.0037124999798834324
1779997462116503600,19.808503662109374,-0.002474999986588955,-0.05252499878406525,0
1779997462133780000,19.825780029296876,-0.0012374999932944775,0.06847500056028366,0.0012374999932944775
1779997462151056400,19.843056396484375,0.0012374999932944775,0.15028749406337738,0.0037124999798834324
1779997462176971300,19.86897119140625,-0.0012374999932944775,0.10381250083446503,0.0012374999932944775
1779997462194247400,19.886247314453126,-0.002474999986588955,-0.0085249999538064,0.0012374999932944775
1779997462211524000,19.903524169921877,-0.0035749999806284904,-0.11728750169277191,-0.002474999986588955
1779997462228800500,19.920800537109375,-0.004812499973922968,-0.15633749961853027,-0.0037124999798834324
1779997462246077000,19.938076904296874,-0.0035749999806284904,-0.10381250083446503,-0.0012374999932944775
1779997462263353300,19.955353271484373,-0.002474999986588955,0.00976249948143959,0
1779997462280630000,19.972630126953124,-0.0012374999932944775,0.11728750169277191,0.0037124999798834324
1779997462297906400,19.989906494140627,-0.0012374999932944775,0.15757499635219574,0.0012374999932944775
1779997462315182800,20.007182861328126,-0.0012374999932944775,0.10876250267028809,0.0012374999932944775
1779997462332459500,20.02445947265625,-0.002474999986588955,-0.00494999997317791,0
1779997462349736000,20.04173583984375,-0.0035749999806284904,-0.11357499659061432,-0.002474999986588955
1779997462367012400,20.059012451171874,-0.0035749999806284904,-0.15633749961853027,-0.0012374999932944775
1779997462384289000,20.0762890625,-0.0035749999806284904,-0.10752499848604202,-0.0012374999932944775
1779997462410203400,20.102203369140625,-0.0012374999932944775,0.06104999780654907,0.002474999986588955
1779997462427480000,20.11947998046875,0,0.14176249504089355,0.002474999986588955
1779997462444756700,20.1367568359375,-0.0012374999932944775,0.13928750157356262,0.0037124999798834324
1779997462462033200,20.154033203125,-0.0012374999932944775,0.05623750016093254,0
1779997462479309600,20.1713095703125,-0.0035749999806284904,-0.05871250107884407,-0.0012374999932944775
1779997462496586000,20.1885859375,-0.0035749999806284904,-0.13928750157356262,-0.0037124999798834324
1779997462513862400,20.2058623046875,-0.0035749999806284904,-0.1368124932050705,-0.002474999986588955
1779997462531138800,20.223138916015625,-0.002474999986588955,-0.054999999701976776,0
1779997462548415500,20.24041552734375,0,0.06104999780654907,0.0012374999932944775
1779997462565692200,20.257692138671874,0,0.1405249983072281,0.002474999986588955
1779997462582968300,20.27496826171875,0,0.1368124932050705,0.002474999986588955
1779997462600245000,20.292244873046876,-0.0012374999932944775,0.054999999701976776,0
1779997462617521400,20.309521484375,-0.002474999986588955,-0.05871250107884407,-0.0012374999932944775
1779997462634798000,20.326798095703126,-0.002474999986588955,-0.13805000483989716,-0.002474999986588955
1779997462652074500,20.344074462890624,-0.0035749999806284904,-0.1368124932050705,-0.002474999986588955
1779997462669351000,20.361350830078123,-0.0035749999806284904,-0.054999999701976776,0.0012374999932944775
1779997462686627300,20.37862744140625,-0.002474999986588955,0.05623750016093254,0
1779997462712542200,20.404542236328126,-0.0012374999932944775,0.14657500386238098,0.002474999986588955
1779997462729818600,20.421818603515625,-0.0012374999932944775,0.1050499975681305,0.002474999986588955
1779997462747095300,20.43909521484375,-0.002474999986588955,0.0012374999932944775,0
1779997462773010000,20.465010009765624,-0.00494999997317791,-0.1331000030040741,-0.0037124999798834324
1779997462790286300,20.482286376953127,-0.0037124999798834324,-0.1307625025510788,-0.002474999986588955
1779997462807563000,20.49956298828125,-0.0037124999798834324,-0.05376249924302101,-0.0012374999932944775
1779997462824839400,20.51683935546875,-0.0012374999932944775,0.057475000619888306,0
1779997462842115800,20.53411572265625,-0.0012374999932944775,0.13323749601840973,0.002474999986588955
1779997462859392300,20.551392333984374,0,0.13323749601840973,0.0012374999932944775
1779997462876668700,20.568668701171877,-0.0012374999932944775,0.057475000619888306,0.0012374999932944775
1779997462893945000,20.585945068359376,-0.0012374999932944775,-0.054999999701976776,0
1779997462911221800,20.6032216796875,-0.0037124999798834324,-0.13199999928474426,-0.002474999986588955
1779997462928498200,20.620498291015625,-0.0037124999798834324,-0.1331000030040741,-0.0012374999932944775
1779997462945774600,20.637774658203124,-0.0037124999798834324,-0.057475000619888306,-0.0012374999932944775
1779997462963051300,20.65505126953125,-0.002474999986588955,0.05004999786615372,0.002474999986588955
1779997462980327700,20.67232763671875,0,0.1270499974489212,0.002474999986588955
1779997462997604000,20.68960400390625,0,0.1307625025510788,0.0037124999798834324
1779997463014880500,20.706880615234375,-0.002474999986588955,0.05871250107884407,0.0012374999932944775
1779997463032157000,20.724156982421874,-0.002474999986588955,-0.04881250113248825,-0.0012374999932944775
1779997463049433600,20.74143359375,-0.0037124999798834324,-0.1270499974489212,-0.002474999986588955
1779997463066710000,20.7587099609375,-0.0037124999798834324,-0.12952500581741333,-0.0037124999798834324
1779997463083986700,20.775986572265627,-0.002474999986588955,-0.057475000619888306,-0.0012374999932944775
1779997463101262800,20.793262939453125,-0.002474999986588955,0.04881250113248825,0
1779997463118539500,20.81053955078125,0,0.1270499974489212,0.0012374999932944775
1779997463135816000,20.82781591796875,0,0.13199999928474426,0.002474999986588955
1779997463153092600,20.845092529296874,-0.0012374999932944775,0.059812501072883606,0
1779997463170369000,20.862369140625,-0.002474999986588955,-0.045237500220537186,-0.002474999986588955
1779997463187645400,20.8796455078125,-0.0037124999798834324,-0.12333749979734421,-0.002474999986588955
1779997463204922000,20.896922119140626,-0.0037124999798834324,-0.12828749418258667,-0.0037124999798834324
1779997463222198300,20.9141982421875,-0.0037124999798834324,-0.057475000619888306,0
1779997463239475000,20.931474853515624,-0.0012374999932944775,0.04647500067949295,0.0012374999932944775
1779997463265389600,20.9573896484375,-0.0012374999932944775,0.1331000030040741,0.0037124999798834324
1779997463282666000,20.974666015625,-0.002474999986588955,0.10023749619722366,0.002474999986588955
1779997463299942700,20.991942626953126,-0.002474999986588955,0.00976249948143959,0
1779997463317219000,21.009218994140625,-0.0037124999798834324,-0.08552499860525131,-0.0012374999932944775
1779997463334495500,21.02649560546875,-0.0037124999798834324,-0.13199999928474426,-0.0037124999798834324
1779997463351772200,21.043772216796874,-0.002474999986588955,-0.1013374999165535,0
1779997463369048600,21.061048583984373,0,-0.01347499992698431,-0.0012374999932944775
1779997463386325000,21.078324951171876,0,0.08304999768733978,0.0012374999932944775
1779997463403601400,21.095601318359375,0.0012374999932944775,0.13433749973773956,0.0012374999932944775
1779997463420877800,21.1128779296875,0,0.10752499848604202,0
1779997463438154500,21.130154541015624,-0.0012374999932944775,0.01952499896287918,0
1779997463455431000,21.147430908203123,-0.0037124999798834324,-0.07823749631643295,-0.002474999986588955
1779997463472707300,21.164707275390626,-0.0037124999798834324,-0.12828749418258667,-0.0012374999932944775
1779997463489983700,21.181983642578125,-0.0037124999798834324,-0.1050499975681305,-0.0012374999932944775
1779997463507260400,21.199260498046876,-0.002474999986588955,-0.02199999988079071,0.002474999986588955
1779997463524536800,21.216536865234374,-0.002474999986588955,0.07204999774694443,0.0037124999798834324
1779997463541813200,21.233813232421873,-0.002474999986588955,0.12099999934434891,0.0037124999798834324
1779997463559089700,21.251089599609376,-0.0012374999932944775,0.0989999994635582,0.0037124999798834324
1779997463576366300,21.268366455078127,-0.002474999986588955,0.018287500366568565,0
1779997463593642800,21.285642822265626,-0.002474999986588955,-0.07452499866485596,-0.0012374999932944775
1779997463610919200,21.302919189453124,-0.0037124999798834324,-0.12333749979734421,-0.002474999986588955
1779997463628195800,21.32019580078125,-0.002474999986588955,-0.0989999994635582,-0.0012374999932944775
1779997463645472300,21.33747216796875,-0.0012374999932944775,-0.0170499999076128,-0.0012374999932944775
1779997463662748700,21.354748779296877,0,0.07576250284910202,0
1779997463680025000,21.372025146484376,0,0.12457499653100967,0.0037124999798834324
1779997463697301800,21.3893017578125,-0.0012374999932944775,0.1013374999165535,0.0012374999932944775
1779997463714578200,21.406578125,-0.0012374999932944775,0.01952499896287918,0.0012374999932944775
1779997463731854600,21.4238544921875,-0.002474999986588955,-0.07452499866485596,-0.002474999986588955
1779997463749131300,21.44113134765625,-0.0037124999798834324,-0.12333749979734421,-0.0012374999932944775
1779997463766407400,21.458407470703126,-0.0037124999798834324,-0.10257499665021896,-0.0012374999932944775
1779997463792322300,21.484322265625,-0.002474999986588955,0.02681249938905239,0.0012374999932944775
1779997463809599000,21.501598876953125,0,0.10381250083446503,0.002474999986588955
1779997463826875400,21.51887548828125,0,0.11976250261068344,0.002474999986588955
1779997463844151800,21.53615185546875,0,0.0672374963760376,0.0012374999932944775
1779997463861428200,21.55342822265625,-0.002474999986588955,-0.025712499395012856,-0.0037124999798834324
1779997463878705000,21.570704833984376,-0.0037124999798834324,-0.1013374999165535,-0.0037124999798834324
1779997463895981300,21.587981201171875,-0.0037124999798834324,-0.11481250077486038,-0.0037124999798834324
1779997463913257700,21.6052578125,-0.002474999986588955,-0.06228749826550484,-0.0012374999932944775
1779997463930534100,21.6225341796875,-0.002474999986588955,0.02928750030696392,0.0012374999932944775
1779997463947810600,21.639810546875,-0.0012374999932944775,0.1013374999165535,0
1779997463965087200,21.657087158203126,-0.0012374999932944775,0.11481250077486038,0.0037124999798834324
1779997463982363600,21.67436376953125,-0.0012374999932944775,0.06104999780654907,0
1779997463999640000,21.69164013671875,-0.002474999986588955,-0.02928750030696392,0.0012374999932944775
1779997464025555000,21.717554931640624,-0.0037124999798834324,-0.11976250261068344,-0.0012374999932944775
1779997464042831400,21.734831298828126,-0.0037124999798834324,-0.0989999994635582,0.0012374999932944775
1779997464060107800,21.752107666015625,-0.002474999986588955,-0.01952499896287918,0.0012374999932944775
1779997464077384400,21.769384521484376,-0.0012374999932944775,0.06847500056028366,0.0037124999798834324
1779997464094660900,21.786660888671875,-0.0012374999932944775,0.11604999750852585,0.0037124999798834324
1779997464111937300,21.803937255859374,-0.0012374999932944775,0.0952875018119812,0.0037124999798834324
1779997464129214000,21.8212138671875,-0.0012374999932944775,0.018287500366568565,0.0012374999932944775
1779997464146490400,21.838490478515624,-0.002474999986588955,-0.07081250101327896,-0.0012374999932944775
