time,seconds_elapsed,z,y,x
1779997442563444200,0.2554443359375,22.98750114440918,29.83125114440918,9.356250762939453
1779997442583647200,0.275647216796875,21.806251525878906,29.812501907348633,9.393750190734863
1779997442603825000,0.295824951171875,21.86250114440918,29.812501907348633,9.375
1779997442624173800,0.316173828125,21.993751525878906,29.83125114440918,9.356250762939453
1779997442644352800,0.336352783203125,21.95625114440918,29.83125114440918,9.318750381469727
1779997442664276700,0.35627685546875,21.993751525878906,29.850000381469727,9.318750381469727
1779997442720450000,0.412449951171875,21.975000381469727,29.850000381469727,9.28125
1779997442878096100,0.57009619140625,21.84375,29.868751525878906,9.168750762939453
1779997443063423200,0.75542333984375,22.068750381469727,29.943750381469727,9.05625057220459
1779997443109715000,0.80171484375,22.14375114440918,29.943750381469727,9.018750190734863
1779997443155970300,0.84797021484375,22.125,29.943750381469727,9
1779997443202173400,0.89417333984375,22.125,29.962501525878906,8.96250057220459
1779997443248304600,0.9403046875,22.106250762939453,29.981250762939453,8.943750381469727
1779997443294339000,0.986339111328125,22.012500762939453,29.962501525878906,8.96250057220459
1779997443340247800,1.032247802734375,22.106250762939453,29.962501525878906,8.943750381469727
1779997443385996500,1.07799658203125,22.106250762939453,29.943750381469727,8.925000190734863
1779997443431544800,1.123544921875,22.256250381469727,29.92500114440918,8.925000190734863
1779997443476846800,1.168846923828125,22.3125,29.92500114440918,8.925000190734863
1779997443521852200,1.21385205078125,22.462501525878906,29.92500114440918,8.925000190734863
1779997443566502100,1.258502197265625,22.61250114440918,29.92500114440918,8.96250057220459
1779997443610732500,1.302732666015625,22.668750762939453,29.906251907348633,8.96250057220459
1779997443654647300,1.346647216796875,22.650001525878906,29.887500762939453,8.96250057220459
1779997443783252000,1.475251953125,22.481250762939453,29.83125114440918,8.925000190734863
1779997443824516400,1.516516357421875,22.59375,29.812501907348633,8.943750381469727
1779997443942074000,1.63407421875,22.743751525878906,29.793750762939453,8.981250762939453
1779997443978914800,1.670914794921875,22.61250114440918,29.793750762939453,8.981250762939453
1779997444014461000,1.7064609375,22.462501525878906,29.793750762939453,9.037500381469727
1779997444048616700,1.74061669921875,22.3125,29.775001525878906,9.05625057220459
1779997444081290500,1.77329052734375,22.256250381469727,29.775001525878906,9.075000762939453
1779997444112411000,1.804410888671875,22.200000762939453,29.756250381469727,9.112500190734863
1779997444141901600,1.833901611328125,22.087501525878906,29.73750114440918,9.112500190734863
1779997444169694200,1.861694091796875,22.068750381469727,29.73750114440918,9.15000057220459
1779997444195750100,1.887750244140625,22.125,29.718751907348633,9.206250190734863
1779997444220020000,1.91202001953125,22.068750381469727,29.700000762939453,9.24375057220459
1779997444242477600,1.9344775390625,22.012500762939453,29.662500381469727,9.28125
1779997444263106300,1.955106201171875,22.106250762939453,29.662500381469727,9.318750381469727
1779997444281914400,1.973914306640625,21.993751525878906,29.662500381469727,9.33750057220459
1779997444298926600,1.990926513671875,21.76875114440918,29.64375114440918,9.375
1779997444314147300,2.006147216796875,21.712501525878906,29.64375114440918,9.393750190734863
1779997444327658000,2.019657958984375,21.84375,29.606250762939453,9.412500381469727
1779997444339499000,2.0314990234375,21.86250114440918,29.587501525878906,9.43125057220459
1779997444349735200,2.041735107421875,22.012500762939453,29.568750381469727,9.412500381469727
1779997444365707300,2.057707275390625,22.106250762939453,29.55000114440918,9.393750190734863
1779997444376395500,2.0683955078125,22.162500381469727,29.55000114440918,9.375
1779997444389215500,2.081215576171875,21.86250114440918,29.568750381469727,9.28125
1779997444404450800,2.096450927734375,19.61250114440918,29.681251525878906,10.106250762939453
1779997444424223700,2.1162236328125,-4.237500190734863,36.69375228881836,8.456250190734863
1779997444441726700,2.133726806640625,-4.556250095367432,36.806251525878906,8.58750057220459
1779997444455390700,2.147390625,-4.78125,36.84375,8.662500381469727
1779997444470992600,2.16299267578125,-4.96875,36.84375,8.68125057220459
1779997444488474000,2.18047412109375,-4.537500381469727,36.88125228881836,8.68125057220459
1779997444507769000,2.19976904296875,-4.387500286102295,36.86250305175781,8.606250762939453
1779997444518073900,2.210073974609375,-4.200000286102295,36.86250305175781,8.606250762939453
1779997444528804900,2.220804931640625,-4.125,36.88125228881836,8.58750057220459
1779997444539953000,2.231952880859375,18.84375,29.943750381469727,10.518750190734863
1779997444551508000,2.243508056640625,18.67500114440918,29.906251907348633,10.59375
1779997444563459300,2.255459228515625,18.618751525878906,29.850000381469727,10.631250381469727
1779997444576237800,2.26823779296875,18.5625,29.83125114440918,10.65000057220459
1779997444593722000,2.28572216796875,18.48750114440918,29.812501907348633,10.668750762939453
1779997444616800300,2.30880029296875,18.431251525878906,29.812501907348633,10.6875
1779997444640479200,2.332479248046875,18.39375114440918,29.812501907348633,10.706250190734863
1779997444663063800,2.355063720703125,18.337501525878906,29.812501907348633,10.6875
1779997444684087600,2.376087646484375,18.525001525878906,29.812501907348633,10.668750762939453
1779997444704511500,2.396511474609375,18.506250381469727,29.812501907348633,10.65000057220459
1779997444724336400,2.41633642578125,18.46875,29.793750762939453,10.631250381469727
1779997444744078800,2.436078857421875,18.48750114440918,29.793750762939453,10.631250381469727
1779997444764042500,2.45604248046875,18.356250762939453,29.793750762939453,10.65000057220459
1779997444783978500,2.475978515625,18.243751525878906,29.812501907348633,10.65000057220459
1779997444803720200,2.49572021484375,18.225000381469727,29.812501907348633,10.668750762939453
1779997444823773700,2.515773681640625,18.225000381469727,29.812501907348633,10.65000057220459
1779997444843610400,2.5356103515625,18.431251525878906,29.812501907348633,10.631250381469727
1779997444863535600,2.55553564453125,18.48750114440918,29.812501907348633,10.631250381469727
1779997444883708200,2.575708251953125,18.5625,29.793750762939453,10.631250381469727
1779997444903609300,2.595609375,18.543750762939453,29.83125114440918,10.65000057220459
1779997444923559400,2.615559326171875,18.58125114440918,29.83125114440918,10.668750762939453
1779997444943541000,2.635541015625,18.525001525878906,29.83125114440918,10.6875
1779997444963998200,2.655998291015625,18.46875,29.868751525878906,10.706250190734863
1779997444984252700,2.676252685546875,18.5625,29.850000381469727,10.6875
1779997445004150300,2.696150390625,18.618751525878906,29.850000381469727,10.668750762939453
1779997445023815400,2.7158154296875,18.506250381469727,29.850000381469727,10.65000057220459
1779997445043611100,2.735611083984375,18.543750762939453,29.868751525878906,10.668750762939453
1779997445063559200,2.75555908203125,18.506250381469727,29.887500762939453,10.6875
1779997445083634200,2.77563427734375,18.431251525878906,29.887500762939453,10.706250190734863
1779997445103565600,2.795565673828125,18.525001525878906,29.868751525878906,10.6875
1779997445124002000,2.816001953125,18.65625,29.887500762939453,10.668750762939453
1779997445143782000,2.835781982421875,18.618751525878906,29.887500762939453,10.668750762939453
1779997445163639800,2.855639892578125,18.600000381469727,29.906251907348633,10.6875
1779997445184101600,2.8761015625,18.525001525878906,29.92500114440918,10.706250190734863
1779997445204022800,2.896022705078125,18.412500381469727,29.906251907348633,10.725000381469727
1779997445223736300,2.915736328125,18.337501525878906,29.887500762939453,10.74375057220459
1779997445243851000,2.93585107421875,18.39375114440918,29.906251907348633,10.725000381469727
1779997445263853000,2.95585302734375,18.46875,29.906251907348633,10.6875
1779997445283941000,2.975941162109375,18.39375114440918,29.887500762939453,10.668750762939453
1779997445303723500,2.9957236328125,18.431251525878906,29.887500762939453,10.668750762939453
1779997445324056000,3.01605615234375,18.506250381469727,29.887500762939453,10.6875
1779997445343778000,3.035778076171875,18.46875,29.887500762939453,10.706250190734863
1779997445363615000,3.055614990234375,18.543750762939453,29.868751525878906,10.706250190734863
1779997445383732500,3.075732421875,18.712501525878906,29.868751525878906,10.668750762939453
1779997445403604500,3.0956044921875,18.618751525878906,29.868751525878906,10.668750762939453
1779997445423546400,3.11554638671875,18.506250381469727,29.83125114440918,10.65000057220459
1779997445443527400,3.13552734375,18.431251525878906,29.83125114440918,10.631250381469727
1779997445463632600,3.155632568359375,18.30000114440918,29.83125114440918,10.631250381469727
1779997445483584800,3.175584716796875,18.28125,29.812501907348633,10.65000057220459
1779997445503560200,3.195560302734375,18.243751525878906,29.812501907348633,10.65000057220459
1779997445523757800,3.2157578125,18.150001525878906,29.812501907348633,10.631250381469727
1779997445543913700,3.235913818359375,18.168750762939453,29.793750762939453,10.612500190734863
1779997445563926500,3.255926513671875,18.225000381469727,29.775001525878906,10.612500190734863
1779997445583947000,3.275947021484375,18.28125,29.775001525878906,10.59375
1779997445603968800,3.29596875,18.225000381469727,29.756250381469727,10.612500190734863
1779997445624185300,3.316185302734375,18.056251525878906,29.73750114440918,10.631250381469727
1779997445644263200,3.33626318359375,17.962501525878906,29.718751907348633,10.631250381469727
1779997445663829500,3.35582958984375,17.887500762939453,29.718751907348633,10.631250381469727
1779997445683609000,3.375609130859375,17.8125,29.700000762939453,10.631250381469727
1779997445703768000,3.39576806640625,17.83125114440918,29.700000762939453,10.631250381469727
1779997445723626200,3.415626220703125,17.8125,29.718751907348633,10.631250381469727
1779997445743556900,3.435556884765625,17.73750114440918,29.718751907348633,10.65000057220459
1779997445763833900,3.455833740234375,17.662500381469727,29.718751907348633,10.668750762939453
1779997445783724500,3.475724609375,17.625,29.718751907348633,10.668750762939453
1779997445803624000,3.4956240234375,17.756250381469727,29.718751907348633,10.668750762939453
1779997445823825700,3.51582568359375,18,29.700000762939453,10.65000057220459
1779997445843835100,3.535835205078125,18,29.681251525878906,10.65000057220459
1779997445864141000,3.55614111328125,18,29.700000762939453,10.668750762939453
1779997445883825000,3.575824951171875,17.92500114440918,29.681251525878906,10.668750762939453
1779997445903857000,3.59585693359375,17.8125,29.681251525878906,10.6875
1779997445923855400,3.61585546875,17.8125,29.700000762939453,10.6875
1779997445943651000,3.635651123046875,17.868751525878906,29.718751907348633,10.706250190734863
1779997445963601000,3.655600830078125,18.037500381469727,29.73750114440918,10.706250190734863
1779997445983800600,3.675800537109375,18,29.756250381469727,10.668750762939453
1779997446003657500,3.695657470703125,17.887500762939453,29.73750114440918,10.65000057220459
1779997446024029000,3.71602880859375,17.850000381469727,29.756250381469727,10.6875
1779997446043781600,3.73578173828125,17.793750762939453,29.756250381469727,10.6875
1779997446063891000,3.755890869140625,17.73750114440918,29.756250381469727,10.668750762939453
1779997446083981300,3.775981201171875,17.887500762939453,29.756250381469727,10.65000057220459
1779997446103765800,3.795765869140625,17.90625,29.756250381469727,10.631250381469727
1779997446123812900,3.815812744140625,18.09375,29.775001525878906,10.631250381469727
1779997446143640600,3.835640625,18.168750762939453,29.775001525878906,10.65000057220459
1779997446163600600,3.8556005859375,18.150001525878906,29.775001525878906,10.668750762939453
1779997446183740200,3.875740234375,18.150001525878906,29.793750762939453,10.6875
1779997446204087800,3.896087890625,18.131250381469727,29.793750762939453,10.6875
1779997446223995100,3.9159951171875,18.11250114440918,29.775001525878906,10.668750762939453
1779997446243732500,3.935732421875,18.1875,29.775001525878906,10.65000057220459
1779997446263579100,3.9555791015625,18.30000114440918,29.775001525878906,10.612500190734863
1779997446283716600,3.975716552734375,18.318750381469727,29.793750762939453,10.631250381469727
1779997446368768500,4.0607685546875,18.412500381469727,29.812501907348633,10.668750762939453
1779997446465565200,4.157565185546875,18.600000381469727,29.793750762939453,10.668750762939453
1779997446651893200,4.343893310546875,18.637500762939453,29.83125114440918,10.668750762939453
1779997446698444300,4.3904443359375,18.506250381469727,29.850000381469727,10.6875
1779997446744965400,4.43696533203125,18.262500762939453,29.83125114440918,10.668750762939453
1779997446791442400,4.4834423828125,18.20625114440918,29.83125114440918,10.668750762939453
1779997446837857300,4.529857177734375,18.150001525878906,29.812501907348633,10.668750762939453
1779997446884187600,4.576187744140625,18.39375114440918,29.83125114440918,10.668750762939453
1779997446930406400,4.622406494140625,18.506250381469727,29.850000381469727,10.65000057220459
1779997446976482000,4.66848193359375,18.412500381469727,29.83125114440918,10.706250190734863
1779997447022376700,4.714376708984375,18.412500381469727,29.793750762939453,10.74375057220459
1779997447068046600,4.760046630859375,18.48750114440918,29.793750762939453,10.800000190734863
1779997447113444000,4.805444091796875,18.39375114440918,29.793750762939453,10.83750057220459
1779997447158513200,4.85051318359375,18.30000114440918,29.812501907348633,10.875
1779997447203191600,4.895191650390625,18.20625114440918,29.775001525878906,10.912500381469727
1779997447247413200,4.939413330078125,18.01875114440918,29.775001525878906,10.950000762939453
1779997447291104500,4.9831044921875,17.868751525878906,29.73750114440918,10.950000762939453
1779997447334187000,5.02618701171875,17.793750762939453,29.718751907348633,11.006250381469727
1779997447376576000,5.068575927734375,17.83125114440918,29.700000762939453,11.043750762939453
1779997447418185500,5.110185546875,17.887500762939453,29.700000762939453,11.081250190734863
1779997447458921200,5.150921142578125,17.83125114440918,29.700000762939453,11.100000381469727
1779997447498686000,5.19068603515625,17.887500762939453,29.700000762939453,11.100000381469727
1779997447537387500,5.229387451171875,17.756250381469727,29.681251525878906,11.100000381469727
1779997447574926300,5.26692626953125,17.568750381469727,29.662500381469727,11.11875057220459
1779997447611203000,5.303203125,17.475000381469727,29.681251525878906,11.11875057220459
1779997447646125800,5.338125732421875,17.418750762939453,29.700000762939453,11.100000381469727
1779997447679612200,5.371612060546875,17.193750381469727,29.700000762939453,11.0625
1779997447711562200,5.403562255859375,17.26875114440918,29.718751907348633,11.006250381469727
1779997447741905200,5.4339052734375,17.34375,29.73750114440918,10.987500190734863
1779997447770580500,5.46258056640625,17.512500762939453,29.756250381469727,10.93125057220459
1779997447797526000,5.489526123046875,17.83125114440918,29.756250381469727,10.912500381469727
1779997447822689000,5.51468896484375,17.850000381469727,29.775001525878906,10.893750190734863
1779997447846042600,5.538042724609375,17.83125114440918,29.793750762939453,10.875
1779997447867566300,5.55956640625,17.850000381469727,29.812501907348633,10.83750057220459
1779997447887256000,5.579256103515625,17.962501525878906,29.812501907348633,10.83750057220459
1779997447905137700,5.5971376953125,18.056251525878906,29.812501907348633,10.818750381469727
1779997447921206800,5.613206787109375,18.11250114440918,29.83125114440918,10.800000190734863
1779997447935518000,5.62751806640625,18.1875,29.83125114440918,10.800000190734863
1779997447948119000,5.640119140625,18.243751525878906,29.850000381469727,10.78125
1779997447959084800,5.651084716796875,18.262500762939453,29.83125114440918,10.762500762939453
1779997447976354300,5.668354248046875,18.337501525878906,29.812501907348633,10.74375057220459
1779997447988091600,5.680091552734375,18.506250381469727,29.793750762939453,10.725000381469727
1779997448000607200,5.692607177734375,18.150001525878906,29.812501907348633,10.6875
1779997448011994400,5.703994384765625,18.11250114440918,29.887500762939453,10.725000381469727
1779997448021860400,5.7138603515625,18.30000114440918,29.868751525878906,10.725000381469727
1779997448033728800,5.725728759765625,18.39375114440918,29.83125114440918,10.725000381469727
1779997448047635000,5.739635009765625,18.243751525878906,29.812501907348633,10.706250190734863
1779997448063510300,5.75551025390625,18.150001525878906,29.756250381469727,10.762500762939453
1779997448081224200,5.77322412109375,18.225000381469727,29.793750762939453,10.762500762939453
1779997448090769700,5.782769775390625,18.318750381469727,29.793750762939453,10.74375057220459
1779997448100777500,5.792777587890625,18.30000114440918,29.756250381469727,10.6875
1779997448111225000,5.80322509765625,18.30000114440918,29.73750114440918,10.6875
1779997448122117600,5.81411767578125,18.20625114440918,29.73750114440918,10.706250190734863
1779997448133411300,5.825411376953125,18.131250381469727,29.73750114440918,10.74375057220459
1779997448145096000,5.837095947265625,18.056251525878906,29.756250381469727,10.74375057220459
1779997448157173200,5.84917333984375,18,29.756250381469727,10.74375057220459
1779997448172198700,5.86419873046875,17.868751525878906,29.756250381469727,10.725000381469727
1779997448194300700,5.88630078125,17.962501525878906,29.775001525878906,10.725000381469727
1779997448219384600,5.911384521484375,17.943750381469727,29.775001525878906,10.74375057220459
1779997448242738700,5.93473876953125,17.962501525878906,29.793750762939453,10.706250190734863
1779997448264170000,5.956169921875,17.850000381469727,29.793750762939453,10.706250190734863
1779997448284787500,5.976787353515625,17.8125,29.775001525878906,10.668750762939453
1779997448304866000,5.996865966796875,17.868751525878906,29.756250381469727,10.6875
1779997448324687600,6.0166875,17.943750381469727,29.73750114440918,10.668750762939453
1779997448344367000,6.0363671875,17.92500114440918,29.73750114440918,10.65000057220459
1779997448364181800,6.056181640625,17.943750381469727,29.756250381469727,10.668750762939453
1779997448383847200,6.07584716796875,18,29.775001525878906,10.6875
1779997448404065500,6.0960654296875,17.962501525878906,29.793750762939453,10.6875
1779997448424208400,6.11620849609375,18,29.793750762939453,10.6875
1779997448444003800,6.13600390625,17.850000381469727,29.793750762939453,10.668750762939453
1779997448463683600,6.15568359375,17.73750114440918,29.812501907348633,10.668750762939453
1779997448483729000,6.17572900390625,17.775001525878906,29.793750762939453,10.65000057220459
1779997448503636700,6.19563671875,17.71875,29.775001525878906,10.65000057220459
1779997448523811300,6.215811279296875,17.71875,29.775001525878906,10.65000057220459
1779997448543859700,6.235859619140625,17.868751525878906,29.775001525878906,10.668750762939453
1779997448564015400,6.256015380859375,18.075000762939453,29.793750762939453,10.668750762939453
1779997448583753200,6.275753173828125,18.150001525878906,29.812501907348633,10.706250190734863
1779997448603593700,6.29559375,18.131250381469727,29.83125114440918,10.6875
1779997448623785200,6.31578515625,18.1875,29.83125114440918,10.6875
1779997448684203000,6.376203125,18.20625114440918,29.812501907348633,10.6875
1779997448794687000,6.48668701171875,18.375,29.793750762939453,10.668750762939453
1779997448841640700,6.533640625,6.993750095367432,33.243751525878906,9.693750381469727
1779997448888593400,6.580593505859375,-4.331250190734863,36.75,8.737500190734863
1779997449029408500,6.721408447265625,-3.4875001907348633,36.78750228881836,8.71875
1779997449076309200,6.768309326171875,-3.450000047683716,36.78750228881836,8.71875
1779997449123172600,6.815172607421875,-3.450000047683716,36.76875305175781,8.737500190734863
1779997449169982700,6.861982666015625,-3.637500047683716,36.76875305175781,8.737500190734863
1779997449216718800,6.90871875,-3.843750238418579,36.76875305175781,8.737500190734863
1779997449263356000,6.95535595703125,-3.8812501430511475,36.76875305175781,8.737500190734863
1779997449309864000,7.001864013671875,-3.8812501430511475,36.76875305175781,8.756250381469727
1779997449356207600,7.04820751953125,-3.9750001430511475,36.76875305175781,8.793750762939453
1779997449402346200,7.09434619140625,-4.143750190734863,36.78750228881836,8.793750762939453
1779997449448233500,7.1402333984375,-4.350000381469727,36.806251525878906,8.793750762939453
1779997449493815000,7.18581494140625,-4.537500381469727,36.82500076293945,8.793750762939453
1779997449539033600,7.23103369140625,6.731250286102295,33.35625076293945,9.75
1779997449583822000,7.275822021484375,18.150001525878906,29.868751525878906,10.706250190734863
1779997449628109800,7.32010986328125,17.887500762939453,29.812501907348633,10.706250190734863
1779997449671821000,7.363821044921875,17.606250762939453,29.83125114440918,10.725000381469727
1779997449714870500,7.40687060546875,17.4375,29.812501907348633,10.706250190734863
1779997449757173800,7.449173828125,17.418750762939453,29.812501907348633,10.706250190734863
1779997449798640000,7.49064013671875,17.325000762939453,29.83125114440918,10.706250190734863
1779997449839166700,7.531166748046875,17.475000381469727,29.83125114440918,10.6875
1779997449878660600,7.57066064453125,17.64375114440918,29.83125114440918,10.668750762939453
1779997449917023500,7.6090234375,17.775001525878906,29.83125114440918,10.65000057220459
1779997449954156300,7.64615625,17.71875,29.812501907348633,10.612500190734863
1779997449989970200,7.68197021484375,17.756250381469727,29.793750762939453,10.612500190734863
1779997450024361700,7.71636181640625,17.887500762939453,29.812501907348633,10.631250381469727
1779997450057245200,7.7492451171875,17.943750381469727,29.793750762939453,10.612500190734863
1779997450088534300,7.7805341796875,18.037500381469727,29.793750762939453,10.631250381469727
1779997450118159600,7.81015966796875,18.150001525878906,29.793750762939453,10.631250381469727
1779997450146061300,7.838061279296875,18.075000762939453,29.793750762939453,10.612500190734863
1779997450172179000,7.864178955078125,18.150001525878906,29.793750762939453,10.612500190734863
1779997450196476200,7.88847607421875,18.131250381469727,29.793750762939453,10.631250381469727
1779997450218933200,7.910933349609375,18.318750381469727,29.812501907348633,10.668750762939453
1779997450239523800,7.93152392578125,18.243751525878906,29.793750762939453,10.668750762939453
1779997450258257200,7.950257080078125,18.243751525878906,29.812501907348633,10.6875
1779997450275150600,7.967150634765625,18.150001525878906,29.812501907348633,10.65000057220459
1779997450290237700,7.98223779296875,18.20625114440918,29.812501907348633,10.668750762939453
1779997450303569400,7.9955693359375,18.318750381469727,29.83125114440918,10.668750762939453
1779997450315190000,8.00718994140625,18.356250762939453,29.850000381469727,10.6875
1779997450325185300,8.017185302734376,18.337501525878906,29.850000381469727,10.6875
1779997450340608300,8.032608154296875,18.09375,29.868751525878906,10.668750762939453
1779997450350626800,8.042626708984375,18.1875,29.850000381469727,10.65000057220459
1779997450364574000,8.056573974609375,17.92500114440918,29.793750762939453,10.706250190734863
1779997450376035800,8.068035888671876,17.681251525878906,29.793750762939453,10.6875
1779997450389535500,8.081535400390624,17.90625,29.812501907348633,10.65000057220459
1779997450405015000,8.09701513671875,17.943750381469727,29.775001525878906,10.6875
1779997450422412500,8.11441259765625,18.01875114440918,29.756250381469727,10.6875
1779997450441657300,8.1336572265625,18,29.775001525878906,10.668750762939453
1779997450451941400,8.14394140625,17.962501525878906,29.756250381469727,10.6875
1779997450462660400,8.154660400390625,18.01875114440918,29.756250381469727,10.6875
1779997450473820000,8.16581982421875,18.056251525878906,29.775001525878906,10.725000381469727
1779997450485377500,8.17737744140625,18.11250114440918,29.775001525878906,10.74375057220459
1779997450497336000,8.189336181640625,18.11250114440918,29.775001525878906,10.74375057220459
1779997450512304000,8.20430419921875,18.28125,29.775001525878906,10.725000381469727
1779997450534332200,8.226332275390625,18.28125,29.775001525878906,10.725000381469727
1779997450559174700,8.251174560546875,18.225000381469727,29.775001525878906,10.725000381469727
1779997450582818000,8.274818115234375,18.243751525878906,29.756250381469727,10.725000381469727
1779997450604301800,8.2963017578125,18.056251525878906,29.775001525878906,10.74375057220459
1779997450624851500,8.3168515625,18.075000762939453,29.793750762939453,10.725000381469727
1779997450644618000,8.336617919921874,17.981250762939453,29.793750762939453,10.725000381469727
1779997450664451800,8.356451904296875,18,29.812501907348633,10.706250190734863
1779997450684039200,8.3760390625,18,29.83125114440918,10.725000381469727
1779997450703749600,8.39574951171875,18.01875114440918,29.812501907348633,10.725000381469727
1779997450723849200,8.41584912109375,18.11250114440918,29.850000381469727,10.725000381469727
1779997450743655200,8.4356552734375,18.168750762939453,29.850000381469727,10.762500762939453
1779997450763548200,8.455548095703126,18.150001525878906,29.83125114440918,10.762500762939453
1779997450783509500,8.475509521484375,18.075000762939453,29.83125114440918,10.762500762939453
1779997450803510500,8.495510498046874,18.20625114440918,29.812501907348633,10.74375057220459
1779997450823781600,8.51578173828125,18.318750381469727,29.812501907348633,10.74375057220459
1779997450844170800,8.536170654296875,18.46875,29.793750762939453,10.706250190734863
1779997450864139500,8.556139404296875,18.46875,29.812501907348633,10.725000381469727
1779997450883820300,8.5758203125,18.48750114440918,29.812501907348633,10.74375057220459
1779997450903957200,8.595957275390624,18.58125114440918,29.812501907348633,10.762500762939453
1779997450923720200,8.61572021484375,18.618751525878906,29.812501907348633,10.762500762939453
1779997450943586800,8.6355869140625,18.67500114440918,29.812501907348633,10.762500762939453
1779997450963531300,8.65553125,18.787500381469727,29.793750762939453,10.762500762939453
1779997450983602000,8.675601806640625,18.712501525878906,29.756250381469727,10.74375057220459
1779997451003826400,8.695826416015626,18.693750381469727,29.775001525878906,10.74375057220459
1779997451024163800,8.716163818359375,18.525001525878906,29.775001525878906,10.74375057220459
1779997451043855400,8.73585546875,18.46875,29.775001525878906,10.706250190734863
1779997451063657500,8.755657470703126,18.39375114440918,29.793750762939453,10.6875
1779997451083748600,8.77574853515625,18.5625,29.812501907348633,10.6875
1779997451103649500,8.7956494140625,18.600000381469727,29.83125114440918,10.6875
1779997451123780400,8.8157802734375,18.600000381469727,29.83125114440918,10.725000381469727
1779997451143637800,8.8356376953125,18.543750762939453,29.850000381469727,10.74375057220459
1779997451163554000,8.855553955078125,18.5625,29.83125114440918,10.74375057220459
1779997451183533300,8.875533203125,18.618751525878906,29.83125114440918,10.706250190734863
1779997451203527700,8.895527587890625,18.5625,29.83125114440918,10.6875
1779997451223790000,8.9157900390625,18.525001525878906,29.850000381469727,10.668750762939453
1779997451243691500,8.93569140625,18.525001525878906,29.850000381469727,10.668750762939453
1779997451263613700,8.95561376953125,18.48750114440918,29.850000381469727,10.668750762939453
1779997451283772700,8.975772705078125,18.48750114440918,29.868751525878906,10.668750762939453
1779997451303655400,8.995655517578125,18.412500381469727,29.868751525878906,10.668750762939453
1779997451323842600,9.015842529296876,18.412500381469727,29.887500762939453,10.668750762939453
1779997451343885300,9.03588525390625,18.412500381469727,29.887500762939453,10.6875
1779997451363814700,9.055814697265625,18.431251525878906,29.887500762939453,10.6875
1779997451383640800,9.075640869140624,18.337501525878906,29.868751525878906,10.6875
1779997451403550200,9.09555029296875,18.262500762939453,29.868751525878906,10.6875
1779997451423711200,9.115711181640625,17.962501525878906,29.868751525878906,10.668750762939453
1779997451443808300,9.135808349609375,17.943750381469727,29.887500762939453,10.65000057220459
1779997451463652900,9.15565283203125,17.83125114440918,29.906251907348633,10.65000057220459
1779997451483771100,9.175771240234376,17.606250762939453,29.906251907348633,10.65000057220459
1779997451503635500,9.195635498046874,17.71875,29.906251907348633,10.65000057220459
1779997451523566300,9.21556640625,17.868751525878906,29.906251907348633,10.65000057220459
1779997451543897000,9.23589697265625,17.92500114440918,29.887500762939453,10.65000057220459
1779997451563990800,9.25599072265625,17.92500114440918,29.906251907348633,10.65000057220459
1779997451583762700,9.2757626953125,17.943750381469727,29.887500762939453,10.631250381469727
1779997451603614200,9.2956142578125,17.943750381469727,29.906251907348633,10.631250381469727
1779997451623805000,9.315804931640624,17.83125114440918,29.887500762939453,10.631250381469727
1779997451644133600,9.336133544921875,17.8125,29.868751525878906,10.631250381469727
1779997451664316200,9.356316162109374,18.01875114440918,29.850000381469727,10.631250381469727
1779997451683913700,9.375913818359376,18.11250114440918,29.850000381469727,10.612500190734863
1779997451703657000,9.395656982421874,18.056251525878906,29.850000381469727,10.612500190734863
1779997451723795500,9.41579541015625,18.20625114440918,29.83125114440918,10.59375
1779997451743732500,9.435732421875,18.168750762939453,29.83125114440918,10.59375
1779997451763597300,9.455597412109375,18.1875,29.812501907348633,10.612500190734863
1779997451784000800,9.476000732421875,18.262500762939453,29.83125114440918,10.631250381469727
1779997451803960800,9.4959609375,18.243751525878906,29.850000381469727,10.612500190734863
1779997451823915800,9.515915771484375,18.28125,29.83125114440918,10.612500190734863
1779997451843677200,9.53567724609375,18.1875,29.812501907348633,10.612500190734863
1779997451863878000,9.5558779296875,18.28125,29.83125114440918,10.631250381469727
1779997451883944400,9.5759443359375,18.46875,29.83125114440918,10.65000057220459
1779997451903692800,9.59569287109375,18.543750762939453,29.812501907348633,10.65000057220459
1779997451923959600,9.61595947265625,18.75,29.793750762939453,10.631250381469727
1779997451943969800,9.6359697265625,18.86250114440918,29.793750762939453,10.631250381469727
1779997451963719200,9.65571923828125,18.618751525878906,29.793750762939453,10.631250381469727
1779997451983783200,9.675783203125,18.543750762939453,29.793750762939453,10.668750762939453
1779997452003622400,9.695622314453125,18.5625,29.83125114440918,10.6875
1779997452023546400,9.71554638671875,18.431251525878906,29.83125114440918,10.6875
1779997452043514400,9.735514404296875,18.412500381469727,29.812501907348633,10.6875
1779997452063515000,9.755514892578125,18.506250381469727,29.793750762939453,10.668750762939453
1779997452083528700,9.77552880859375,18.543750762939453,29.793750762939453,10.668750762939453
1779997452103536400,9.795536376953125,18.506250381469727,29.775001525878906,10.668750762939453
1779997452123707000,9.815706787109375,18.375,29.775001525878906,10.6875
1779997452143636500,9.835636474609375,18.356250762939453,29.775001525878906,10.6875
1779997452163591000,9.8555908203125,18.168750762939453,29.756250381469727,10.6875
1779997452183773000,9.87577294921875,17.92500114440918,29.775001525878906,10.6875
1779997452203656000,9.895656005859376,17.90625,29.775001525878906,10.668750762939453
1779997452224053000,9.916052978515625,17.943750381469727,29.793750762939453,10.668750762939453
1779997452243805400,9.935805419921875,17.8125,29.812501907348633,10.668750762939453
1779997452263640800,9.955640869140625,18.01875114440918,29.812501907348633,10.668750762939453
1779997452283757600,9.975757568359375,17.981250762939453,29.812501907348633,10.65000057220459
1779997452304070400,9.9960703125,18,29.775001525878906,10.65000057220459
1779997452323797800,10.0157978515625,18.131250381469727,29.775001525878906,10.65000057220459
1779997452343623000,10.035622802734375,18.1875,29.775001525878906,10.668750762939453
1779997452363804200,10.05580419921875,18.225000381469727,29.775001525878906,10.65000057220459
1779997452383671800,10.075671875,18.243751525878906,29.756250381469727,10.631250381469727
1779997452403589400,10.09558935546875,18.168750762939453,29.775001525878906,10.631250381469727
1779997452423545000,10.115545166015625,18.037500381469727,29.793750762939453,10.65000057220459
1779997452443533000,10.135532958984374,18.1875,29.775001525878906,10.668750762939453
1779997452463539500,10.15553955078125,18.262500762939453,29.775001525878906,10.668750762939453
1779997452484009200,10.17600927734375,18.39375114440918,29.775001525878906,10.65000057220459
1779997452503975400,10.195975341796874,18.412500381469727,29.775001525878906,10.668750762939453
1779997452523747000,10.2157470703125,18.356250762939453,29.756250381469727,10.668750762939453
1779997452543603200,10.235603271484376,18.30000114440918,29.756250381469727,10.668750762939453
1779997452563789800,10.255789794921874,18.075000762939453,29.756250381469727,10.6875
1779997452583647500,10.2756474609375,18.075000762939453,29.756250381469727,10.6875
1779997452603562200,10.295562255859375,18.037500381469727,29.793750762939453,10.668750762939453
1779997452623900400,10.315900390625,18.20625114440918,29.793750762939453,10.668750762939453
1779997452643716600,10.335716552734375,18.262500762939453,29.812501907348633,10.668750762939453
1779997452663597000,10.35559716796875,18.337501525878906,29.83125114440918,10.668750762939453
1779997452683741700,10.37574169921875,18.356250762939453,29.83125114440918,10.6875
1779997452703624400,10.39562451171875,18.48750114440918,29.83125114440918,10.706250190734863
1779997452723563000,10.41556298828125,18.506250381469727,29.83125114440918,10.706250190734863
1779997452743542300,10.435542236328125,18.431251525878906,29.83125114440918,10.6875
1779997452763581000,10.455580810546875,18.412500381469727,29.83125114440918,10.668750762939453
1779997452783562200,10.475562255859375,18.450000762939453,29.83125114440918,10.668750762939453
1779997452803557400,10.495557373046875,18.46875,29.83125114440918,10.668750762939453
1779997452823632100,10.515632080078126,18.506250381469727,29.83125114440918,10.65000057220459
1779997452843591000,10.5355908203125,18.67500114440918,29.83125114440918,10.65000057220459
1779997452863569700,10.555569580078124,18.787500381469727,29.83125114440918,10.631250381469727
1779997452883756000,10.575756103515625,18.86250114440918,29.83125114440918,10.631250381469727
1779997452904115200,10.596115234375,18.900001525878906,29.83125114440918,10.631250381469727
1779997452923836400,10.61583642578125,18.75,29.812501907348633,10.59375
1779997452943907300,10.6359072265625,18.84375,29.775001525878906,10.612500190734863
1779997452963946800,10.65594677734375,18.712501525878906,29.775001525878906,10.631250381469727
1779997452983713000,10.675713134765624,18.65625,29.775001525878906,10.631250381469727
1779997453003926500,10.695926513671875,18.600000381469727,29.756250381469727,10.612500190734863
1779997453023973000,10.71597314453125,18.65625,29.73750114440918,10.612500190734863
1779997453043929600,10.7359296875,18.693750381469727,29.73750114440918,10.612500190734863
1779997453064177200,10.75617724609375,18.67500114440918,29.756250381469727,10.612500190734863
1779997453083825700,10.77582568359375,18.693750381469727,29.73750114440918,10.631250381469727
1779997453103612000,10.79561181640625,18.787500381469727,29.718751907348633,10.631250381469727
1779997453123777300,10.81577734375,18.618751525878906,29.73750114440918,10.631250381469727
1779997453143636500,10.835636474609375,18.46875,29.718751907348633,10.65000057220459
1779997453163563000,10.85556298828125,18.375,29.73750114440918,10.668750762939453
1779997453183729200,10.875729248046875,18.431251525878906,29.756250381469727,10.668750762939453
1779997453203624000,10.8956240234375,18.46875,29.73750114440918,10.65000057220459
1779997453223761400,10.915761474609376,18.58125114440918,29.756250381469727,10.6875
1779997453243644400,10.93564453125,18.5625,29.793750762939453,10.6875
1779997453263571200,10.9555712890625,18.67500114440918,29.793750762939453,10.6875
1779997453283742500,10.975742431640626,18.806251525878906,29.83125114440918,10.6875
1779997453303638300,10.99563818359375,18.75,29.850000381469727,10.6875
1779997453323773200,11.015773193359376,18.712501525878906,29.850000381469727,10.668750762939453
1779997453343642400,11.035642333984375,18.506250381469727,29.850000381469727,10.65000057220459
1779997453363572700,11.05557275390625,18.525001525878906,29.83125114440918,10.668750762939453
1779997453383738000,11.075738037109375,18.506250381469727,29.812501907348633,10.668750762939453
1779997453403628500,11.095628662109375,18.318750381469727,29.83125114440918,10.668750762939453
1779997453423569400,11.1155693359375,18.375,29.812501907348633,10.668750762939453
1779997453443545000,11.135545166015625,18.39375114440918,29.812501907348633,10.65000057220459
1779997453463533000,11.155532958984375,18.450000762939453,29.83125114440918,10.65000057220459
1779997453484003000,11.176003173828125,18.506250381469727,29.83125114440918,10.65000057220459
1779997453504049700,11.196049560546875,18.48750114440918,29.812501907348633,10.668750762939453
1779997453523799300,11.21579931640625,18.412500381469727,29.83125114440918,10.65000057220459
1779997453543633700,11.235633544921875,18.431251525878906,29.812501907348633,10.65000057220459
1779997453563761700,11.25576171875,18.318750381469727,29.812501907348633,10.631250381469727
1779997453583753200,11.275753173828125,18.243751525878906,29.812501907348633,10.631250381469727
1779997453603614500,11.295614501953125,18.30000114440918,29.793750762939453,10.612500190734863
1779997453623809000,11.31580908203125,18.375,29.793750762939453,10.631250381469727
1779997453643672000,11.335672119140625,18.450000762939453,29.812501907348633,10.631250381469727
1779997453663785200,11.35578515625,18.318750381469727,29.812501907348633,10.65000057220459
1779997453683642000,11.37564208984375,18.168750762939453,29.850000381469727,10.65000057220459
1779997453703773700,11.395773681640625,18.150001525878906,29.850000381469727,10.631250381469727
1779997453723894300,11.415894287109374,18.150001525878906,29.850000381469727,10.612500190734863
1779997453743698000,11.435697998046875,18.225000381469727,29.868751525878906,10.631250381469727
1779997453763753500,11.45575341796875,18.150001525878906,29.850000381469727,10.59375
1779997453783635000,11.475635009765625,17.943750381469727,29.83125114440918,10.575000762939453
1779997453803566800,11.49556689453125,18,29.850000381469727,10.575000762939453
1779997453824140000,11.51614013671875,17.92500114440918,29.850000381469727,10.59375
1779997453843850800,11.535850830078125,17.587501525878906,29.868751525878906,10.59375
1779997453863664600,11.55566455078125,17.475000381469727,29.868751525878906,10.575000762939453
1779997453883760400,11.575760498046876,17.587501525878906,29.868751525878906,10.59375
1779997453903616800,11.59561669921875,17.625,29.887500762939453,10.612500190734863
1779997453923548200,11.615548095703126,17.8125,29.868751525878906,10.59375
1779997453943524900,11.63552490234375,17.92500114440918,29.850000381469727,10.612500190734863
1779997453963629300,11.65562939453125,18,29.850000381469727,10.59375
1779997453983581700,11.675581787109374,17.981250762939453,29.850000381469727,10.59375
1779997454003558400,11.695558349609374,18.01875114440918,29.868751525878906,10.612500190734863
1779997454023756500,11.715756591796875,18.037500381469727,29.868751525878906,10.612500190734863
1779997454043649500,11.7356494140625,18.01875114440918,29.850000381469727,10.612500190734863
1779997454063584500,11.75558447265625,18.075000762939453,29.868751525878906,10.65000057220459
1779997454083785700,11.77578564453125,18.243751525878906,29.868751525878906,10.6875
1779997454103656400,11.795656494140625,18.131250381469727,29.887500762939453,10.6875
1779997454124046600,11.816046630859375,18.075000762939453,29.868751525878906,10.6875
1779997454144195300,11.8361953125,18.20625114440918,29.850000381469727,10.6875
1779997454163835400,11.85583544921875,18.337501525878906,29.850000381469727,10.6875
1779997454183626000,11.8756259765625,18.375,29.83125114440918,10.706250190734863
1779997454204005000,11.896005126953124,18.20625114440918,29.83125114440918,10.668750762939453
1779997454223754200,11.915754150390624,17.962501525878906,29.868751525878906,10.668750762939453
1779997454243608800,11.93560888671875,17.868751525878906,29.887500762939453,10.668750762939453
1779997454263831000,11.9558310546875,18.01875114440918,29.868751525878906,10.668750762939453
1779997454283707400,11.975707275390626,18.168750762939453,29.868751525878906,10.668750762939453
1779997454303605200,11.995605224609376,18.39375114440918,29.868751525878906,10.668750762939453
1779997454323811000,12.01581103515625,18.46875,29.868751525878906,10.668750762939453
1779997454343667000,12.0356669921875,18.431251525878906,29.868751525878906,10.6875
1779997454363591000,12.0555908203125,18.525001525878906,29.850000381469727,10.668750762939453
1779997454383546400,12.07554638671875,18.58125114440918,29.83125114440918,10.668750762939453
1779997454403795500,12.09579541015625,18.65625,29.812501907348633,10.668750762939453
1779997454424149200,12.116149169921876,18.731250762939453,29.793750762939453,10.65000057220459
1779997454443849500,12.135849365234375,18.712501525878906,29.812501907348633,10.631250381469727
1779997454464054300,12.15605419921875,18.67500114440918,29.793750762939453,10.612500190734863
1779997454484030700,12.17603076171875,18.5625,29.812501907348633,10.59375
1779997454503748900,12.195748779296874,18.67500114440918,29.793750762939453,10.612500190734863
1779997454524025000,12.216025146484375,18.76875114440918,29.793750762939453,10.612500190734863
1779997454544101400,12.236101318359376,18.76875114440918,29.812501907348633,10.631250381469727
1779997454563990300,12.255990234375,18.76875114440918,29.812501907348633,10.631250381469727
1779997454583987500,12.275987548828125,18.600000381469727,29.83125114440918,10.631250381469727
1779997454603692500,12.295692626953125,18.46875,29.812501907348633,10.631250381469727
1779997454623541500,12.31554150390625,18.48750114440918,29.83125114440918,10.631250381469727
1779997454643488800,12.33548876953125,18.46875,29.83125114440918,10.631250381469727
1779997454663577900,12.355577880859375,18.48750114440918,29.850000381469727,10.612500190734863
1779997454683556000,12.37555615234375,18.356250762939453,29.83125114440918,10.612500190734863
1779997454703543600,12.39554345703125,18.356250762939453,29.83125114440918,10.59375
1779997454723730200,12.415730224609375,18.412500381469727,29.850000381469727,10.612500190734863
1779997454743646200,12.435646240234375,18.506250381469727,29.812501907348633,10.612500190734863
1779997454763585500,12.45558544921875,18.450000762939453,29.812501907348633,10.65000057220459
1779997454783807000,12.475806884765625,18.48750114440918,29.812501907348633,10.6875
1779997454803942000,12.49594189453125,18.46875,29.83125114440918,10.706250190734863
1779997454823941000,12.515941162109375,18.356250762939453,29.850000381469727,10.6875
1779997454844101400,12.536101318359375,18.375,29.850000381469727,10.668750762939453
1779997454864056300,12.556056396484376,18.1875,29.83125114440918,10.65000057220459
1779997454884218400,12.57621826171875,18.20625114440918,29.83125114440918,10.631250381469727
1779997454904319200,12.5963193359375,18.1875,29.850000381469727,10.631250381469727
1779997454923872300,12.615872314453124,18.075000762939453,29.83125114440918,10.631250381469727
1779997454943616300,12.6356162109375,18.131250381469727,29.83125114440918,10.631250381469727
1779997454963768300,12.655768310546875,17.962501525878906,29.850000381469727,10.612500190734863
1779997454983933200,12.67593310546875,17.962501525878906,29.887500762939453,10.631250381469727
1779997455003972600,12.69597265625,17.981250762939453,29.887500762939453,10.631250381469727
1779997455024283600,12.71628369140625,17.943750381469727,29.887500762939453,10.65000057220459
1779997455043888400,12.735888427734375,17.868751525878906,29.906251907348633,10.668750762939453
1779997455063850800,12.755850830078124,17.962501525878906,29.906251907348633,10.668750762939453
1779997455083898600,12.775898681640625,17.90625,29.887500762939453,10.631250381469727
1779997455103874600,12.79587451171875,17.90625,29.887500762939453,10.631250381469727
1779997455123918300,12.81591845703125,18,29.887500762939453,10.631250381469727
1779997455143693000,12.835693115234376,18,29.868751525878906,10.65000057220459
1779997455163774500,12.8557744140625,18.131250381469727,29.887500762939453,10.6875
1779997455183627300,12.875627197265626,18.1875,29.868751525878906,10.668750762939453
1779997455203546600,12.895546630859375,18.056251525878906,29.868751525878906,10.668750762939453
1779997455223937000,12.91593701171875,17.962501525878906,29.868751525878906,10.6875
1779997455243740000,12.935739990234374,17.90625,29.868751525878906,10.706250190734863
1779997455263610600,12.955610595703124,17.981250762939453,29.868751525878906,10.706250190734863
1779997455283749600,12.97574951171875,18.037500381469727,29.850000381469727,10.706250190734863
1779997455303629800,12.9956298828125,18.075000762939453,29.850000381469727,10.706250190734863
1779997455323822600,13.015822509765625,18.168750762939453,29.868751525878906,10.725000381469727
1779997455344136200,13.03613623046875,18.28125,29.850000381469727,10.725000381469727
1779997455364125200,13.056125244140626,18.243751525878906,29.868751525878906,10.725000381469727
1779997455383804200,13.07580419921875,18.28125,29.868751525878906,10.725000381469727
1779997455403613700,13.09561376953125,18.243751525878906,29.868751525878906,10.706250190734863
1779997455423634400,13.115634521484376,18.20625114440918,29.868751525878906,10.706250190734863
1779997455443556000,13.13555615234375,18.375,29.850000381469727,10.706250190734863
1779997455463519700,13.155519775390625,18.375,29.83125114440918,10.6875
1779997455483720000,13.175719970703126,18.375,29.850000381469727,10.706250190734863
1779997455503621000,13.19562109375,18.506250381469727,29.850000381469727,10.725000381469727
1779997455523778000,13.215778076171874,18.600000381469727,29.868751525878906,10.725000381469727
1779997455543649500,13.2356494140625,18.693750381469727,29.850000381469727,10.725000381469727
1779997455564085500,13.25608544921875,18.787500381469727,29.850000381469727,10.725000381469727
1779997455584271600,13.276271728515624,18.618751525878906,29.850000381469727,10.706250190734863
1779997455604032500,13.296032470703125,18.46875,29.83125114440918,10.6875
1779997455623729700,13.315729736328125,18.356250762939453,29.83125114440918,10.668750762939453
1779997455643568000,13.335568115234375,18.450000762939453,29.812501907348633,10.65000057220459
1779997455663758800,13.3557587890625,18.39375114440918,29.812501907348633,10.631250381469727
1779997455683621600,13.37562158203125,18.337501525878906,29.812501907348633,10.612500190734863
1779997455703558400,13.395558349609376,18.375,29.812501907348633,10.612500190734863
1779997455723798800,13.415798828125,18.431251525878906,29.812501907348633,10.631250381469727
1779997455743673600,13.435673583984375,18.318750381469727,29.812501907348633,10.631250381469727
1779997455763596300,13.45559619140625,18.318750381469727,29.812501907348633,10.612500190734863
1779997455783820800,13.47582080078125,18.39375114440918,29.812501907348633,10.612500190734863
1779997455803784700,13.49578466796875,18.337501525878906,29.793750762939453,10.631250381469727
1779997455823857700,13.515857666015625,18.412500381469727,29.756250381469727,10.59375
1779997455843675400,13.53567529296875,18.431251525878906,29.775001525878906,10.59375
1779997455863777300,13.55577734375,18.20625114440918,29.775001525878906,10.575000762939453
1779997455883627000,13.575626953125,18.28125,29.775001525878906,10.612500190734863
1779997455903560400,13.595560546875,18.28125,29.812501907348633,10.612500190734863
1779997455923529500,13.615529541015626,18.262500762939453,29.812501907348633,10.612500190734863
1779997455943526700,13.635526611328125,18.150001525878906,29.812501907348633,10.612500190734863
1779997455963538400,13.655538330078125,18.30000114440918,29.812501907348633,10.59375
1779997455983544300,13.67554443359375,18.431251525878906,29.793750762939453,10.612500190734863
1779997456003551200,13.69555126953125,18.543750762939453,29.793750762939453,10.612500190734863
1779997456023824100,13.71582421875,18.525001525878906,29.812501907348633,10.612500190734863
1779997456044183800,13.736183837890625,18.431251525878906,29.83125114440918,10.631250381469727
1779997456063870200,13.7558701171875,18.30000114440918,29.812501907348633,10.631250381469727
1779997456084141300,13.776141357421874,18.28125,29.793750762939453,10.612500190734863
1779997456104300000,13.796300048828124,18.243751525878906,29.812501907348633,10.612500190734863
1779997456124252700,13.816252685546875,18.225000381469727,29.812501907348633,10.65000057220459
1779997456144042800,13.836042724609374,18.28125,29.812501907348633,10.65000057220459
1779997456164174600,13.856174560546876,18.225000381469727,29.812501907348633,10.6875
1779997456183922400,13.87592236328125,18.20625114440918,29.793750762939453,10.706250190734863
1779997456203640600,13.895640625,18.28125,29.775001525878906,10.74375057220459
1779997456224067800,13.91606787109375,18.225000381469727,29.775001525878906,10.74375057220459
1779997456243967000,13.935967041015624,18.243751525878906,29.775001525878906,10.78125
1779997456263958300,13.955958251953126,18.225000381469727,29.793750762939453,10.83750057220459
1779997456283902200,13.975902099609375,18.037500381469727,29.793750762939453,10.83750057220459
1779997456303705300,13.995705322265625,17.850000381469727,29.812501907348633,10.83750057220459
1779997456323562500,14.0155625,17.887500762939453,29.793750762939453,10.83750057220459
1779997456343504400,14.03550439453125,17.92500114440918,29.775001525878906,10.83750057220459
1779997456363705900,14.055705810546876,18,29.775001525878906,10.83750057220459
1779997456383623400,14.07562353515625,17.943750381469727,29.793750762939453,10.83750057220459
1779997456403573000,14.095572998046874,18.09375,29.793750762939453,10.83750057220459
1779997456423815700,14.115815673828125,18.131250381469727,29.775001525878906,10.83750057220459
1779997456443695900,14.13569580078125,18.09375,29.793750762939453,10.818750381469727
1779997456463809000,14.15580908203125,18.356250762939453,29.793750762939453,10.818750381469727
1779997456483662300,14.175662353515625,18.318750381469727,29.812501907348633,10.78125
1779997456503617800,14.19561767578125,18.412500381469727,29.812501907348633,10.762500762939453
1779997456523564500,14.215564453125,18.543750762939453,29.793750762939453,10.725000381469727
1779997456543537000,14.235536865234375,18.543750762939453,29.793750762939453,10.725000381469727
1779997456563720700,14.255720703125,18.450000762939453,29.812501907348633,10.706250190734863
1779997456584102100,14.27610205078125,18.543750762939453,29.83125114440918,10.706250190734863
1779997456604291800,14.296291748046874,18.5625,29.83125114440918,10.725000381469727
1779997456624123000,14.316122802734375,18.506250381469727,29.850000381469727,10.706250190734863
1779997456643772200,14.335772216796874,18.525001525878906,29.868751525878906,10.706250190734863
1779997456663774500,14.3557744140625,18.600000381469727,29.850000381469727,10.6875
1779997456683792100,14.375792236328126,18.75,29.868751525878906,10.668750762939453
1779997456703612400,14.3956123046875,18.75,29.868751525878906,10.668750762939453
1779997456723528400,14.415528564453124,18.618751525878906,29.887500762939453,10.65000057220459
1779997456743748600,14.43574853515625,18.600000381469727,29.868751525878906,10.668750762939453
1779997456763651800,14.45565185546875,18.600000381469727,29.868751525878906,10.65000057220459
1779997456783585000,14.4755849609375,18.600000381469727,29.868751525878906,10.631250381469727
1779997456803834000,14.495834228515625,18.525001525878906,29.868751525878906,10.631250381469727
1779997456823985000,14.51598486328125,18.525001525878906,29.868751525878906,10.65000057220459
1779997456843766000,14.53576611328125,18.412500381469727,29.887500762939453,10.631250381469727
1779997456864129800,14.5561298828125,18.375,29.887500762939453,10.631250381469727
1779997456883892500,14.575892578125,18.318750381469727,29.868751525878906,10.631250381469727
1779997456903666000,14.595666015625,18.225000381469727,29.850000381469727,10.612500190734863
1779997456923815200,14.615815185546875,18.225000381469727,29.850000381469727,10.612500190734863
1779997456943648500,14.6356484375,18.318750381469727,29.850000381469727,10.65000057220459
1779997456963569700,14.655569580078126,18.1875,29.868751525878906,10.668750762939453
1779997456983531300,14.67553125,18.075000762939453,29.850000381469727,10.6875
1779997457003585500,14.69558544921875,18,29.83125114440918,10.6875
1779997457024044000,14.7160439453125,18.075000762939453,29.83125114440918,10.706250190734863
1779997457043808300,14.735808349609375,18.168750762939453,29.812501907348633,10.6875
1779997457064039200,14.7560390625,18.075000762939453,29.812501907348633,10.6875
1779997457083774500,14.7757744140625,18.037500381469727,29.850000381469727,10.706250190734863
1779997457103811300,14.795811279296874,18.056251525878906,29.850000381469727,10.74375057220459
1779997457124157400,14.816157470703125,18.056251525878906,29.83125114440918,10.725000381469727
1779997457143826400,14.835826416015625,18.11250114440918,29.812501907348633,10.74375057220459
1779997457163628300,14.855628173828125,18.1875,29.793750762939453,10.762500762939453
1779997457183728400,14.875728271484375,18.243751525878906,29.793750762939453,10.74375057220459
1779997457203596800,14.8955966796875,18.525001525878906,29.812501907348633,10.74375057220459
1779997457223739400,14.915739501953125,18.600000381469727,29.812501907348633,10.725000381469727
1779997457243624400,14.93562451171875,18.506250381469727,29.793750762939453,10.706250190734863
1779997457263647500,14.9556474609375,18.525001525878906,29.775001525878906,10.706250190734863
1779997457284043300,14.976043212890625,18.48750114440918,29.793750762939453,10.6875
1779997457304263700,14.996263671875,18.506250381469727,29.793750762939453,10.6875
1779997457324085800,15.016085693359376,18.525001525878906,29.812501907348633,10.6875
1779997457344217000,15.036217041015625,18.30000114440918,29.812501907348633,10.706250190734863
1779997457364287500,15.05628759765625,18.225000381469727,29.793750762939453,10.706250190734863
1779997457384042200,15.076042236328124,18.28125,29.775001525878906,10.706250190734863
1779997457403920400,15.09592041015625,18.337501525878906,29.756250381469727,10.706250190734863
1779997457423899400,15.1158994140625,18.28125,29.756250381469727,10.706250190734863
1779997457443643600,15.1356435546875,18.262500762939453,29.756250381469727,10.6875
1779997457463519700,15.155519775390625,18.243751525878906,29.775001525878906,10.668750762939453
1779997457483684900,15.175684814453126,18.39375114440918,29.775001525878906,10.668750762939453
1779997457504047400,15.19604736328125,18.20625114440918,29.775001525878906,10.668750762939453
1779997457524057000,15.21605712890625,18.150001525878906,29.775001525878906,10.6875
1779997457544039000,15.236038818359376,18.168750762939453,29.775001525878906,10.706250190734863
1779997457564282600,15.25628271484375,18.225000381469727,29.793750762939453,10.725000381469727
1779997457583877000,15.275877197265626,18.39375114440918,29.793750762939453,10.725000381469727
1779997457603629300,15.29562939453125,18.243751525878906,29.793750762939453,10.725000381469727
1779997457623978800,15.315978759765626,18.225000381469727,29.793750762939453,10.725000381469727
1779997457643846000,15.335845947265625,18.356250762939453,29.812501907348633,10.706250190734863
1779997457663841800,15.355841796875,18.46875,29.83125114440918,10.706250190734863
1779997457684103700,15.376103759765625,18.48750114440918,29.850000381469727,10.706250190734863
1779997457703990500,15.395990478515625,18.318750381469727,29.887500762939453,10.6875
1779997457723962400,15.41596240234375,18.225000381469727,29.887500762939453,10.6875
1779997457744171000,15.4361708984375,18.243751525878906,29.887500762939453,10.6875
1779997457764012000,15.456011962890624,18.28125,29.868751525878906,10.6875
1779997457783704600,15.47570458984375,18.225000381469727,29.868751525878906,10.6875
1779997457803549200,15.495549072265625,18.1875,29.868751525878906,10.65000057220459
1779997457823647500,15.5156474609375,18.075000762939453,29.868751525878906,10.65000057220459
1779997457843569400,15.5355693359375,18.056251525878906,29.868751525878906,10.631250381469727
1779997457864004900,15.5560048828125,17.92500114440918,29.850000381469727,10.65000057220459
1779997457884240600,15.57624072265625,17.83125114440918,29.868751525878906,10.65000057220459
1779997457903877600,15.595877685546874,17.943750381469727,29.868751525878906,10.631250381469727
1779997457923654700,15.615654541015624,17.962501525878906,29.868751525878906,10.612500190734863
1779997457943798800,15.635798828125,17.92500114440918,29.868751525878906,10.612500190734863
1779997457963644400,15.65564453125,17.92500114440918,29.850000381469727,10.612500190734863
1779997457983560700,15.675560791015625,18,29.83125114440918,10.631250381469727
1779997458003528200,15.695528076171875,17.962501525878906,29.83125114440918,10.631250381469727
1779997458023672000,15.715672119140624,18,29.83125114440918,10.631250381469727
1779997458043805400,15.735805419921874,17.92500114440918,29.850000381469727,10.65000057220459
1779997458064132900,15.7561328125,17.981250762939453,29.850000381469727,10.65000057220459
1779997458084039700,15.776039794921875,18,29.850000381469727,10.65000057220459
1779997458103946500,15.795946533203125,18.150001525878906,29.850000381469727,10.668750762939453
1779997458123883500,15.815883544921874,18.318750381469727,29.83125114440918,10.6875
1779997458143867400,15.835867431640626,18.375,29.850000381469727,10.6875
1779997458163637000,15.855636962890625,18.5625,29.850000381469727,10.6875
1779997458183990800,15.87599072265625,18.46875,29.850000381469727,10.668750762939453
1779997458204138800,15.896138671875,18.48750114440918,29.850000381469727,10.6875
1779997458223783700,15.91578369140625,18.431251525878906,29.850000381469727,10.6875
1779997458243605000,15.93560498046875,18.318750381469727,29.868751525878906,10.706250190734863
1779997458263781000,15.955781005859375,18.28125,29.850000381469727,10.706250190734863
1779997458283642400,15.975642333984375,18.20625114440918,29.850000381469727,10.706250190734863
1779997458303569200,15.995569091796876,18.375,29.83125114440918,10.706250190734863
1779997458323796000,16.0157958984375,18.506250381469727,29.83125114440918,10.6875
1779997458343702300,16.035702392578123,18.600000381469727,29.850000381469727,10.6875
1779997458363815400,16.0558154296875,18.450000762939453,29.83125114440918,10.706250190734863
1779997458383659300,16.0756591796875,18.30000114440918,29.812501907348633,10.706250190734863
1779997458403722200,16.09572216796875,18.28125,29.812501907348633,10.706250190734863
1779997458423874800,16.115874755859377,18.225000381469727,29.83125114440918,10.6875
1779997458443694600,16.135694580078123,18.20625114440918,29.812501907348633,10.6875
1779997458463802000,16.155802001953123,18.225000381469727,29.83125114440918,10.6875
1779997458483647700,16.175647705078124,18.525001525878906,29.83125114440918,10.706250190734863
1779997458503565000,16.19556494140625,18.65625,29.83125114440918,10.706250190734863
1779997458523856400,16.2158564453125,18.75,29.83125114440918,10.74375057220459
1779997458543688000,16.23568798828125,18.9375,29.812501907348633,10.725000381469727
1779997458563588600,16.255588623046876,18.9375,29.83125114440918,10.725000381469727
1779997458583736300,16.275736328125,19.087501525878906,29.850000381469727,10.725000381469727
1779997458603620400,16.295620361328126,19.181251525878906,29.850000381469727,10.725000381469727
1779997458623558700,16.31555859375,19.200000762939453,29.850000381469727,10.74375057220459
1779997458643537200,16.335537109375,19.200000762939453,29.868751525878906,10.762500762939453
1779997458663994400,16.355994384765626,19.275001525878906,29.868751525878906,10.762500762939453
1779997458684246800,16.376246826171876,19.462501525878906,29.850000381469727,10.762500762939453
1779997458704402000,16.39640185546875,19.443750381469727,29.868751525878906,10.78125
1779997458723988000,16.415988037109376,19.5,29.887500762939453,10.78125
1779997458743677700,16.435677734375,19.462501525878906,29.868751525878906,10.78125
1779997458763789300,16.455789306640625,19.350000381469727,29.868751525878906,10.78125
1779997458783799300,16.47579931640625,19.162500381469727,29.850000381469727,10.74375057220459
1779997458803632600,16.495632568359376,18.95625114440918,29.868751525878906,10.725000381469727
1779997458823745300,16.515745361328126,18.9375,29.887500762939453,10.725000381469727
1779997458843658200,16.535658203125,18.881250381469727,29.887500762939453,10.706250190734863
1779997458863839000,16.5558388671875,18.825000762939453,29.850000381469727,10.706250190734863
1779997458884145400,16.5761455078125,18.67500114440918,29.850000381469727,10.706250190734863
1779997458904120000,16.5961201171875,18.46875,29.850000381469727,10.706250190734863
1779997458924055000,16.616054931640626,18.46875,29.850000381469727,10.706250190734863
1779997458943742500,16.635742431640626,18.450000762939453,29.868751525878906,10.706250190734863
1779997458964036600,16.65603662109375,18.30000114440918,29.850000381469727,10.706250190734863
1779997458984014300,16.676014404296875,18.168750762939453,29.887500762939453,10.706250190734863
1779997459004194300,16.6961943359375,18.075000762939453,29.887500762939453,10.706250190734863
1779997459024307500,16.716307373046874,17.943750381469727,29.868751525878906,10.725000381469727
1779997459043866600,16.73586669921875,18.056251525878906,29.850000381469727,10.725000381469727
1779997459063877000,16.755877197265626,17.981250762939453,29.83125114440918,10.74375057220459
1779997459084105200,16.776105224609374,17.90625,29.850000381469727,10.762500762939453
1779997459103854800,16.795854736328124,17.943750381469727,29.83125114440918,10.762500762939453
1779997459123892000,16.81589208984375,17.90625,29.83125114440918,10.74375057220459
1779997459144137200,16.83613720703125,17.868751525878906,29.850000381469727,10.762500762939453
1779997459164000500,16.85600048828125,17.962501525878906,29.868751525878906,10.762500762939453
1779997459183714000,16.875714111328126,17.92500114440918,29.850000381469727,10.762500762939453
1779997459203556000,16.89555615234375,18.09375,29.83125114440918,10.762500762939453
1779997459223766500,16.9157666015625,18.056251525878906,29.83125114440918,10.762500762939453
1779997459243895800,16.935895751953126,18.037500381469727,29.83125114440918,10.762500762939453
1779997459263703300,16.955703369140625,18.225000381469727,29.83125114440918,10.74375057220459
1779997459283793200,16.975793212890625,18.150001525878906,29.83125114440918,10.762500762939453
1779997459303906800,16.99590673828125,18.11250114440918,29.850000381469727,10.74375057220459
1779997459323906800,17.01590673828125,18.150001525878906,29.850000381469727,10.74375057220459
1779997459344199400,17.036199462890625,18.075000762939453,29.868751525878906,10.74375057220459
1779997459364110600,17.056110595703124,18.131250381469727,29.868751525878906,10.74375057220459
1779997459383776000,17.07577587890625,18.11250114440918,29.887500762939453,10.74375057220459
1779997459403962600,17.095962646484374,18.168750762939453,29.887500762939453,10.74375057220459
1779997459423718000,17.1157177734375,18.243751525878906,29.887500762939453,10.762500762939453
1779997459443581700,17.135581787109373,18.243751525878906,29.868751525878906,10.762500762939453
1779997459463536000,17.1555361328125,18.168750762939453,29.868751525878906,10.762500762939453
1779997459483613000,17.175613037109375,18.1875,29.868751525878906,10.762500762939453
1779997459503566800,17.19556689453125,17.943750381469727,29.868751525878906,10.725000381469727
1779997459523552300,17.21555224609375,18.01875114440918,29.887500762939453,10.74375057220459
1779997459543543300,17.235543212890626,18.131250381469727,29.868751525878906,10.74375057220459
1779997459563544300,17.25554443359375,18.037500381469727,29.887500762939453,10.762500762939453
1779997459583552300,17.27555224609375,18.09375,29.868751525878906,10.762500762939453
1779997459603753700,17.295753662109377,18.20625114440918,29.868751525878906,10.74375057220459
1779997459623918300,17.31591845703125,18.28125,29.868751525878906,10.74375057220459
1779997459643969800,17.3359697265625,18.318750381469727,29.868751525878906,10.74375057220459
1779997459664075000,17.356074951171873,18.48750114440918,29.868751525878906,10.762500762939453
1779997459684037400,17.376037353515624,18.46875,29.868751525878906,10.74375057220459
1779997459704013000,17.396012939453126,18.412500381469727,29.868751525878906,10.74375057220459
1779997459724193300,17.416193359375,18.318750381469727,29.887500762939453,10.74375057220459
1779997459743819000,17.435819091796876,18.412500381469727,29.887500762939453,10.74375057220459
1779997459763869200,17.455869140625,18.5625,29.906251907348633,10.74375057220459
1779997459783657200,17.4756572265625,18.58125114440918,29.906251907348633,10.74375057220459
1779997459803552300,17.49555224609375,18.693750381469727,29.943750381469727,10.762500762939453
1779997459823506400,17.51550634765625,18.731250762939453,29.92500114440918,10.74375057220459
1779997459843501800,17.535501708984373,18.65625,29.92500114440918,10.725000381469727
1779997459863654400,17.555654296875,18.731250762939453,29.906251907348633,10.706250190734863
1779997459883599400,17.575599365234375,18.712501525878906,29.943750381469727,10.6875
1779997459903565800,17.59556591796875,18.67500114440918,29.962501525878906,10.6875
1779997459923745500,17.61574560546875,18.693750381469727,29.962501525878906,10.6875
1779997459943841500,17.635841552734377,18.637500762939453,29.962501525878906,10.6875
1779997459963677000,17.655677001953126,18.67500114440918,29.943750381469727,10.65000057220459
1779997459983786000,17.675785888671875,18.600000381469727,29.943750381469727,10.65000057220459
1779997460003642600,17.695642578125,18.58125114440918,29.92500114440918,10.631250381469727
1779997460023568400,17.715568359375,18.48750114440918,29.92500114440918,10.631250381469727
1779997460043750100,17.735750244140625,18.39375114440918,29.906251907348633,10.612500190734863
1779997460063878700,17.755878662109374,18.318750381469727,29.887500762939453,10.612500190734863
1779997460084184800,17.776184814453124,18.168750762939453,29.887500762939453,10.631250381469727
1779997460104324000,17.796323974609376,18.168750762939453,29.868751525878906,10.631250381469727
1779997460123893200,17.815893310546876,17.90625,29.906251907348633,10.612500190734863
1779997460144111400,17.836111328125,17.962501525878906,29.887500762939453,10.612500190734863
1779997460164267000,17.85626708984375,18.01875114440918,29.887500762939453,10.65000057220459
1779997460183857200,17.875857177734375,18.150001525878906,29.850000381469727,10.668750762939453
1779997460203613000,17.895613037109374,18.225000381469727,29.868751525878906,10.6875
1779997460224084700,17.916084716796874,18.150001525878906,29.850000381469727,10.6875
1779997460243903500,17.935903564453124,18.225000381469727,29.850000381469727,10.6875
1779997460263666200,17.955666259765625,18,29.83125114440918,10.706250190734863
1779997460283545600,17.975545654296877,18.168750762939453,29.812501907348633,10.725000381469727
1779997460303748600,17.99574853515625,18.225000381469727,29.83125114440918,10.74375057220459
1779997460323618800,18.015618896484376,18.375,29.850000381469727,10.762500762939453
1779997460343551700,18.0355517578125,18.450000762939453,29.868751525878906,10.78125
1779997460363572000,18.055572021484377,18.450000762939453,29.868751525878906,10.762500762939453
1779997460383545900,18.0755458984375,18.58125114440918,29.868751525878906,10.74375057220459
1779997460403538400,18.095538330078124,18.48750114440918,29.850000381469727,10.74375057220459
1779997460423750700,18.115750732421876,18.637500762939453,29.850000381469727,10.762500762939453
1779997460443658800,18.13565869140625,18.48750114440918,29.868751525878906,10.78125
1779997460463607000,18.15560693359375,18.450000762939453,29.887500762939453,10.74375057220459
1779997460483772400,18.1757724609375,18.243751525878906,29.887500762939453,10.74375057220459
1779997460503655200,18.1956552734375,18.20625114440918,29.850000381469727,10.725000381469727
1779997460523851800,18.215851806640625,18.20625114440918,29.850000381469727,10.725000381469727
1779997460544162800,18.236162841796876,18.11250114440918,29.850000381469727,10.725000381469727
1779997460563879700,18.255879638671875,18.1875,29.83125114440918,10.725000381469727
1779997460583670500,18.27567041015625,18.075000762939453,29.850000381469727,10.725000381469727
1779997460603776300,18.2957763671875,18.056251525878906,29.83125114440918,10.706250190734863
1779997460623800600,18.315800537109375,18.056251525878906,29.812501907348633,10.668750762939453
1779997460643636500,18.335636474609377,17.943750381469727,29.775001525878906,10.65000057220459
1779997460663545000,18.355545166015624,17.981250762939453,29.775001525878906,10.668750762939453
1779997460683714600,18.375714599609374,18,29.775001525878906,10.668750762939453
1779997460703614200,18.3956142578125,18.056251525878906,29.775001525878906,10.668750762939453
1779997460724028200,18.416028076171877,17.981250762939453,29.756250381469727,10.668750762939453
1779997460743793700,18.435793701171875,18.150001525878906,29.73750114440918,10.668750762939453
1779997460763636500,18.455636474609374,18.225000381469727,29.73750114440918,10.6875
1779997460784021200,18.476021240234374,18.28125,29.73750114440918,10.6875
1779997460804209000,18.496208984375,18.262500762939453,29.756250381469727,10.6875
1779997460823858000,18.51585791015625,18.243751525878906,29.775001525878906,10.668750762939453
1779997460843636700,18.53563671875,18.450000762939453,29.775001525878906,10.668750762939453
1779997460863796000,18.5557958984375,18.431251525878906,29.793750762939453,10.65000057220459
1779997460883667000,18.5756669921875,18.5625,29.793750762939453,10.65000057220459
1779997460903570000,18.59556982421875,18.600000381469727,29.793750762939453,10.65000057220459
1779997460923795000,18.615794921875,18.618751525878906,29.775001525878906,10.65000057220459
1779997460943663900,18.635663818359376,18.75,29.793750762939453,10.668750762939453
1779997460963584800,18.655584716796874,18.84375,29.793750762939453,10.65000057220459
1779997460983548700,18.675548583984376,18.918750762939453,29.812501907348633,10.668750762939453
1779997461003538000,18.695537841796874,19.05000114440918,29.793750762939453,10.6875
1779997461024009700,18.716009765625,19.05000114440918,29.793750762939453,10.6875
1779997461043793200,18.735793212890623,18.900001525878906,29.793750762939453,10.668750762939453
1779997461063897000,18.75589697265625,18.76875114440918,29.775001525878906,10.668750762939453
1779997461083699200,18.77569921875,18.881250381469727,29.793750762939453,10.668750762939453
1779997461103579000,18.795578857421877,18.900001525878906,29.793750762939453,10.668750762939453
1779997461123631600,18.815631591796876,18.712501525878906,29.775001525878906,10.668750762939453
1779997461143574800,18.83557470703125,18.58125114440918,29.756250381469727,10.65000057220459
1779997461163550500,18.855550537109377,18.693750381469727,29.775001525878906,10.668750762939453
1779997461183739600,18.87573974609375,18.618751525878906,29.775001525878906,10.6875
1779997461203640800,18.895640869140625,18.67500114440918,29.756250381469727,10.706250190734863
1779997461223582500,18.91558251953125,18.58125114440918,29.756250381469727,10.706250190734863
1779997461243821800,18.93582177734375,18.39375114440918,29.775001525878906,10.706250190734863
1779997461263735600,18.955735595703125,18.1875,29.775001525878906,10.706250190734863
1779997461283620600,18.97562060546875,18.037500381469727,29.775001525878906,10.706250190734863
1779997461303568400,18.995568359375,17.943750381469727,29.775001525878906,10.725000381469727
1779997461323630000,19.015630126953123,18,29.775001525878906,10.725000381469727
1779997461343579100,19.0355791015625,17.962501525878906,29.775001525878906,10.725000381469727
1779997461363820500,19.055820556640626,17.981250762939453,29.793750762939453,10.74375057220459
1779997461383892700,19.075892822265626,17.868751525878906,29.775001525878906,10.762500762939453
1779997461403705900,19.095705810546875,17.887500762939453,29.775001525878906,10.762500762939453
1779997461423597000,19.11559716796875,18.056251525878906,29.775001525878906,10.78125
1779997461443537700,19.13553759765625,18.075000762939453,29.775001525878906,10.800000190734863
1779997461463530000,19.155530029296877,18,29.756250381469727,10.78125
1779997461483793400,19.17579345703125,18.150001525878906,29.756250381469727,10.762500762939453
1779997461504031000,19.196031005859375,18.20625114440918,29.775001525878906,10.762500762939453
1779997461523797200,19.21579736328125,18.30000114440918,29.793750762939453,10.762500762939453
1779997461543638500,19.235638427734376,18.337501525878906,29.793750762939453,10.762500762939453
1779997461563819300,19.2558193359375,18.375,29.793750762939453,10.78125
1779997461583675400,19.27567529296875,18.356250762939453,29.812501907348633,10.762500762939453
1779997461603582500,19.29558251953125,18.375,29.812501907348633,10.762500762939453
1779997461623803100,19.31580322265625,18.356250762939453,29.83125114440918,10.78125
1779997461643678200,19.33567822265625,18.525001525878906,29.83125114440918,10.78125
1779997461663591700,19.355591796875,18.412500381469727,29.850000381469727,10.78125
1779997461683812000,19.37581201171875,18.450000762939453,29.868751525878906,10.762500762939453
1779997461703791000,19.395791015625,18.412500381469727,29.868751525878906,10.762500762939453
1779997461723912000,19.415911865234374,18.450000762939453,29.887500762939453,10.78125
1779997461743726000,19.43572607421875,18.356250762939453,29.887500762939453,10.74375057220459
1779997461763808500,19.45580859375,18.243751525878906,29.92500114440918,10.74375057220459
1779997461783648500,19.4756484375,18.11250114440918,29.92500114440918,10.762500762939453
1779997461804032000,19.496031982421876,18,29.92500114440918,10.762500762939453
1779997461823977200,19.515977294921875,18.037500381469727,29.92500114440918,10.762500762939453
1779997461843719700,19.5357197265625,18.075000762939453,29.943750381469727,10.762500762939453
1779997461863580000,19.555579833984375,18.168750762939453,29.92500114440918,10.74375057220459
1779997461883911400,19.575911376953126,18.318750381469727,29.92500114440918,10.762500762939453
1779997461903972600,19.59597265625,18.450000762939453,29.943750381469727,10.74375057220459
1779997461924206600,19.61620654296875,18.412500381469727,29.92500114440918,10.706250190734863
1779997461944198100,19.6361982421875,18.262500762939453,29.906251907348633,10.6875
1779997461964089300,19.65608935546875,18.243751525878906,29.906251907348633,10.668750762939453
1779997461983759400,19.67575927734375,18.262500762939453,29.906251907348633,10.6875
1779997462003954700,19.69595458984375,18.318750381469727,29.906251907348633,10.6875
1779997462023716900,19.715716796875,18.30000114440918,29.92500114440918,10.6875
1779997462043576800,19.735576904296874,18.356250762939453,29.92500114440918,10.6875
1779997462063518000,19.75551806640625,18.525001525878906,29.906251907348633,10.6875
1779997462083653000,19.775653076171874,18.5625,29.906251907348633,10.65000057220459
1779997462104050700,19.79605078125,18.65625,29.887500762939453,10.65000057220459
1779997462124063500,19.8160634765625,18.525001525878906,29.887500762939453,10.65000057220459
1779997462143789600,19.83578955078125,18.506250381469727,29.850000381469727,10.65000057220459
1779997462163624400,19.85562451171875,18.431251525878906,29.850000381469727,10.65000057220459
1779997462184002300,19.876002197265624,18.375,29.83125114440918,10.65000057220459
1779997462203965400,19.89596533203125,18.375,29.83125114440918,10.668750762939453
1779997462223987700,19.91598779296875,18.431251525878906,29.850000381469727,10.6875
1779997462243707400,19.935707275390627,18.450000762939453,29.868751525878906,10.706250190734863
1779997462263969000,19.955968994140626,18.356250762939453,29.868751525878906,10.74375057220459
1779997462283686400,19.975686279296873,18.1875,29.850000381469727,10.725000381469727
1779997462303566000,19.995566162109377,17.981250762939453,29.868751525878906,10.74375057220459
1779997462323774500,20.0157744140625,17.92500114440918,29.850000381469727,10.725000381469727
1779997462343649300,20.035649169921875,17.850000381469727,29.83125114440918,10.706250190734863
1779997462363843600,20.055843505859375,17.662500381469727,29.83125114440918,10.725000381469727
1779997462383891000,20.075890869140625,17.493751525878906,29.812501907348633,10.725000381469727
1779997462403695000,20.095695068359376,17.418750762939453,29.850000381469727,10.74375057220459
1779997462423788800,20.115788818359373,17.55000114440918,29.850000381469727,10.74375057220459
1779997462443638800,20.135638671875,17.4375,29.850000381469727,10.74375057220459
1779997462463683600,20.15568359375,17.512500762939453,29.868751525878906,10.725000381469727
1779997462483789000,20.1757890625,17.55000114440918,29.887500762939453,10.725000381469727
1779997462503847400,20.195847412109377,17.55000114440918,29.868751525878906,10.6875
1779997462523874000,20.2158740234375,17.512500762939453,29.850000381469727,10.6875
1779997462543933000,20.235932861328124,17.64375114440918,29.83125114440918,10.6875
1779997462563699200,20.25569921875,17.868751525878906,29.83125114440918,10.6875
1779997462583820800,20.27582080078125,17.943750381469727,29.83125114440918,10.668750762939453
1779997462603644400,20.29564453125,18.056251525878906,29.850000381469727,10.65000057220459
1779997462623755000,20.315755126953125,17.92500114440918,29.850000381469727,10.631250381469727
1779997462644032000,20.336031982421876,18,29.850000381469727,10.65000057220459
1779997462663757600,20.355757568359376,18,29.850000381469727,10.65000057220459
1779997462683804400,20.375804443359375,18.150001525878906,29.83125114440918,10.65000057220459
1779997462704099000,20.39609912109375,18.243751525878906,29.812501907348633,10.631250381469727
1779997462723806000,20.415805908203126,18.150001525878906,29.793750762939453,10.631250381469727
1779997462743625000,20.435625,18.243751525878906,29.793750762939453,10.631250381469727
1779997462763829000,20.4558291015625,18.30000114440918,29.793750762939453,10.631250381469727
1779997462783707400,20.475707275390626,18.412500381469727,29.793750762939453,10.65000057220459
1779997462803864300,20.4958642578125,18.375,29.793750762939453,10.668750762939453
1779997462824156000,20.516156005859376,18.337501525878906,29.812501907348633,10.668750762939453
1779997462844013600,20.536013671875,18.20625114440918,29.812501907348633,10.668750762939453
1779997462863994600,20.55599462890625,18.131250381469727,29.812501907348633,10.668750762939453
1779997462883717600,20.575717529296874,18.30000114440918,29.793750762939453,10.668750762939453
1779997462903803400,20.595803466796873,18.46875,29.793750762939453,10.668750762939453
1779997462923830300,20.615830322265627,18.731250762939453,29.775001525878906,10.668750762939453
1779997462943643600,20.6356435546875,18.787500381469727,29.775001525878906,10.65000057220459
1779997462963625000,20.655625,18.86250114440918,29.775001525878906,10.668750762939453
1779997462983554000,20.675553955078126,18.825000762939453,29.793750762939453,10.668750762939453
1779997463003528200,20.695528076171875,18.712501525878906,29.812501907348633,10.668750762939453
1779997463023771600,20.715771728515627,18.75,29.83125114440918,10.65000057220459
1779997463043932400,20.735932373046875,18.731250762939453,29.850000381469727,10.65000057220459
1779997463064214500,20.756214599609375,18.525001525878906,29.850000381469727,10.65000057220459
1779997463084070400,20.7760703125,18.337501525878906,29.850000381469727,10.65000057220459
1779997463103753700,20.795753662109377,18.30000114440918,29.850000381469727,10.631250381469727
1779997463123578600,20.81557861328125,18.46875,29.850000381469727,10.631250381469727
1779997463143770600,20.8357705078125,18.543750762939453,29.850000381469727,10.631250381469727
1779997463163800800,20.85580078125,18.525001525878906,29.850000381469727,10.631250381469727
1779997463183654100,20.875654052734376,18.46875,29.850000381469727,10.631250381469727
1779997463203567400,20.8955673828125,18.375,29.812501907348633,10.65000057220459
1779997463223727000,20.91572705078125,18.375,29.83125114440918,10.65000057220459
1779997463243627000,20.935626953125,18.375,29.850000381469727,10.6875
1779997463263829000,20.9558291015625,18.337501525878906,29.850000381469727,10.668750762939453
1779997463283949800,20.97594970703125,18.243751525878906,29.850000381469727,10.668750762939453
1779997463303738400,20.99573828125,18.131250381469727,29.850000381469727,10.6875
1779997463324069400,21.0160693359375,18.150001525878906,29.850000381469727,10.6875
1779997463343779000,21.035779052734377,18.150001525878906,29.812501907348633,10.6875
1779997463363616300,21.0556162109375,18.30000114440918,29.775001525878906,10.706250190734863
1779997463383733500,21.0757333984375,18.39375114440918,29.793750762939453,10.706250190734863
1779997463403869000,21.095868896484376,18.30000114440918,29.793750762939453,10.706250190734863
1779997463423693600,21.115693603515624,18.20625114440918,29.812501907348633,10.706250190734863
1779997463443591000,21.1355908203125,18.150001525878906,29.812501907348633,10.706250190734863
1779997463463810800,21.155810791015625,18.168750762939453,29.812501907348633,10.706250190734863
1779997463483676200,21.17567626953125,18,29.83125114440918,10.706250190734863
1779997463503585500,21.19558544921875,17.943750381469727,29.850000381469727,10.725000381469727
1779997463523816200,21.215816162109373,17.71875,29.850000381469727,10.725000381469727
1779997463543683300,21.235683349609374,17.625,29.812501907348633,10.706250190734863
1779997463563600100,21.25560009765625,17.568750381469727,29.812501907348633,10.706250190734863
1779997463583560000,21.275559814453125,17.625,29.83125114440918,10.6875
1779997463603538000,21.295537841796875,17.700000762939453,29.812501907348633,10.6875
1779997463623737300,21.3157373046875,17.73750114440918,29.793750762939453,10.6875
1779997463643644200,21.33564404296875,17.775001525878906,29.793750762939453,10.6875
1779997463663850800,21.355850830078126,17.662500381469727,29.812501907348633,10.6875
1779997463684184300,21.376184326171874,17.568750381469727,29.793750762939453,10.706250190734863
1779997463704056600,21.396056640625,17.475000381469727,29.793750762939453,10.725000381469727
1779997463724140500,21.416140625,17.34375,29.775001525878906,10.725000381469727
1779997463743792000,21.435792236328126,17.36250114440918,29.775001525878906,10.725000381469727
1779997463763589400,21.45558935546875,17.418750762939453,29.793750762939453,10.725000381469727
1779997463783968000,21.475968017578126,17.55000114440918,29.775001525878906,10.725000381469727
1779997463803735300,21.4957353515625,17.64375114440918,29.793750762939453,10.706250190734863
1779997463823855600,21.515855712890627,17.83125114440918,29.775001525878906,10.706250190734863
1779997463843665700,21.535665771484375,17.943750381469727,29.793750762939453,10.706250190734863
1779997463863880700,21.555880615234376,18.11250114440918,29.83125114440918,10.725000381469727
1779997463883901000,21.57590087890625,18.131250381469727,29.83125114440918,10.725000381469727
1779997463903955500,21.59595556640625,18.168750762939453,29.850000381469727,10.725000381469727
1779997463923841500,21.615841552734373,18.075000762939453,29.868751525878906,10.725000381469727
1779997463943651300,21.6356513671875,17.962501525878906,29.887500762939453,10.725000381469727
1779997463963557000,21.65555712890625,17.962501525878906,29.906251907348633,10.6875
1779997463983718000,21.6757177734375,17.962501525878906,29.906251907348633,10.65000057220459
1779997464003612200,21.695612060546875,18.150001525878906,29.887500762939453,10.65000057220459
1779997464023824600,21.71582470703125,18.262500762939453,29.887500762939453,10.65000057220459
1779997464043682300,21.735682373046874,18.168750762939453,29.887500762939453,10.631250381469727
1779997464063595500,21.755595458984374,18.01875114440918,29.887500762939453,10.612500190734863
1779997464084010200,21.77601025390625,18,29.887500762939453,10.612500190734863
1779997464104186600,21.7961865234375,18.01875114440918,29.887500762939453,10.612500190734863
1779997464123856000,21.81585595703125,17.868751525878906,29.887500762939453,10.59375
1779997464143646700,21.835646728515623,17.793750762939453,29.868751525878906,10.59375
1779997464163806700,21.855806640625,17.756250381469727,29.868751525878906,10.575000762939453
1779997464183650300,21.875650390625,17.793750762939453,29.850000381469727,10.575000762939453
1779997464203565600,21.895565673828123,17.793750762939453,29.868751525878906,10.575000762939453
1779997464223795700,21.915795654296875,17.700000762939453,29.887500762939453,10.575000762939453
1779997464243677700,21.935677734375,17.71875,29.868751525878906,10.59375
1779997464263595800,21.955595703125,17.793750762939453,29.850000381469727,10.612500190734863
1779997464283818800,21.97581884765625,17.756250381469727,29.887500762939453,10.612500190734863
1779997464303793700,21.995793701171873,17.756250381469727,29.887500762939453,10.612500190734863
1779997464324117000,22.016116943359375,17.71875,29.887500762939453,10.612500190734863
1779997464343811800,22.035811767578124,17.793750762939453,29.887500762939453,10.631250381469727
1779997464363826700,22.05582666015625,17.775001525878906,29.887500762939453,10.65000057220459
1779997464383635000,22.075635009765627,17.775001525878906,29.887500762939453,10.668750762939453
1779997464403539000,22.0955390625,17.8125,29.868751525878906,10.6875
1779997464423753200,22.115753173828125,17.90625,29.868751525878906,10.6875
1779997464443626200,22.135626220703124,17.868751525878906,29.887500762939453,10.706250190734863
1779997464463821800,22.15582177734375,17.90625,29.887500762939453,10.725000381469727
1779997464483883000,22.175883056640625,17.850000381469727,29.887500762939453,10.725000381469727
1779997464503696400,22.1956962890625,17.73750114440918,29.868751525878906,10.725000381469727
1779997464523591400,22.21559130859375,17.83125114440918,29.850000381469727,10.74375057220459
1779997464543536400,22.235536376953124,17.83125114440918,29.868751525878906,10.725000381469727
1779997464563723800,22.255723876953127,17.756250381469727,29.887500762939453,10.74375057220459
1779997464583629800,22.2756298828125,17.868751525878906,29.868751525878906,10.74375057220459
1779997464603612400,22.2956123046875,17.775001525878906,29.868751525878906,10.74375057220459
1779997464623596300,22.31559619140625,17.850000381469727,29.887500762939453,10.74375057220459
1779997464643565000,22.33556494140625,17.868751525878906,29.887500762939453,10.74375057220459
1779997464663543800,22.355543701171875,17.868751525878906,29.868751525878906,10.74375057220459
1779997464683700500,22.375700439453126,17.700000762939453,29.868751525878906,10.706250190734863
1779997464703828200,22.395828125,17.53125,29.868751525878906,10.706250190734863
1779997464723937000,22.41593701171875,17.55000114440918,29.887500762939453,10.706250190734863
1779997464743740400,22.435740478515626,17.606250762939453,29.887500762939453,10.706250190734863
1779997464763611100,22.455611083984376,17.606250762939453,29.868751525878906,10.6875
1779997464783750000,22.47575,17.55000114440918,29.887500762939453,10.6875
1779997464803680000,22.495679931640623,17.606250762939453,29.887500762939453,10.6875
1779997464823850800,22.515850830078126,17.64375114440918,29.906251907348633,10.6875
1779997464843691500,22.53569140625,17.756250381469727,29.887500762939453,10.725000381469727
1779997464864018700,22.556018798828124,17.775001525878906,29.868751525878906,10.706250190734863
1779997464883777300,22.57577734375,17.606250762939453,29.868751525878906,10.706250190734863
1779997464904086000,22.5960859375,17.493751525878906,29.868751525878906,10.706250190734863
1779997464924259300,22.61625927734375,17.4375,29.850000381469727,10.668750762939453
1779997464943859500,22.635859375,17.625,29.83125114440918,10.668750762939453
1779997464963898400,22.6558984375,17.793750762939453,29.850000381469727,10.65000057220459
1779997464983668700,22.675668701171876,18.056251525878906,29.868751525878906,10.65000057220459
1779997465003598600,22.6955986328125,18.356250762939453,29.868751525878906,10.65000057220459
1779997465023534300,22.715534423828124,18.356250762939453,29.850000381469727,10.65000057220459
1779997465043976200,22.73597607421875,18.375,29.850000381469727,10.65000057220459
1779997465063959300,22.755959228515625,18.30000114440918,29.868751525878906,10.65000057220459
1779997465083728400,22.775728271484375,18.337501525878906,29.850000381469727,10.631250381469727
1779997465103587800,22.795587890625,18.375,29.83125114440918,10.631250381469727
1779997465123761700,22.81576171875,18.337501525878906,29.83125114440918,10.612500190734863
1779997465143632100,22.835632080078124,18.412500381469727,29.83125114440918,10.59375
1779997465163564000,22.85556396484375,18.431251525878906,29.83125114440918,10.575000762939453
1779997465183732500,22.875732421875,18.58125114440918,29.83125114440918,10.55625057220459
1779997465203627000,22.895626953125,18.787500381469727,29.83125114440918,10.55625057220459
1779997465223569400,22.9155693359375,18.86250114440918,29.850000381469727,10.575000762939453
1779997465243548200,22.935548095703126,18.806251525878906,29.850000381469727,10.59375
1779997465263538200,22.9555380859375,18.731250762939453,29.850000381469727,10.612500190734863
1779997465283540700,22.975540771484376,18.600000381469727,29.83125114440918,10.612500190734863
1779997465303903700,22.99590380859375,18.262500762939453,29.83125114440918,10.612500190734863
1779997465324081400,23.016081298828126,18.28125,29.83125114440918,10.631250381469727
1779997465344289500,23.03628955078125,18.28125,29.850000381469727,10.612500190734863
1779997465364183600,23.05618359375,18.20625114440918,29.850000381469727,10.631250381469727
1779997465383895800,23.075895751953126,18.1875,29.868751525878906,10.65000057220459
1779997465403907000,23.095906982421877,18.168750762939453,29.887500762939453,10.668750762939453
1779997465423935500,23.115935546875,18.28125,29.868751525878906,10.668750762939453
1779997465443690200,23.135690185546874,18.11250114440918,29.868751525878906,10.65000057220459
1779997465463569400,23.1555693359375,18.01875114440918,29.868751525878906,10.668750762939453
1779997465483514400,23.175514404296877,17.943750381469727,29.868751525878906,10.668750762939453
1779997465503505000,23.1955048828125,17.92500114440918,29.887500762939453,10.706250190734863
1779997465523519700,23.215519775390625,18.056251525878906,29.868751525878906,10.6875
1779997465543530000,23.235530029296875,18.01875114440918,29.850000381469727,10.6875
1779997465563659300,23.2556591796875,17.962501525878906,29.868751525878906,10.668750762939453
1779997465583620900,23.275620849609375,17.92500114440918,29.887500762939453,10.6875
1779997465603584000,23.295583984375,17.981250762939453,29.887500762939453,10.6875
1779997465623826700,23.31582666015625,17.981250762939453,29.887500762939453,10.668750762939453
1779997465643704300,23.335704345703125,18.01875114440918,29.887500762939453,10.65000057220459
1779997465664011500,23.356011474609375,18.243751525878906,29.850000381469727,10.631250381469727
1779997465684049200,23.376049072265626,18.337501525878906,29.850000381469727,10.631250381469727
1779997465704096500,23.396096435546873,18.412500381469727,29.850000381469727,10.59375
1779997465723994600,23.41599462890625,18.225000381469727,29.850000381469727,10.59375
1779997465743723000,23.435722900390626,18.243751525878906,29.850000381469727,10.59375
1779997465763667200,23.455667236328125,18.30000114440918,29.850000381469727,10.59375
1779997465783555000,23.47555517578125,18.375,29.850000381469727,10.59375
1779997465803515100,23.49551513671875,18.337501525878906,29.83125114440918,10.575000762939453
1779997465823708200,23.515708251953125,18.09375,29.83125114440918,10.59375
1779997465843616800,23.53561669921875,18.037500381469727,29.83125114440918,10.575000762939453
1779997465863568600,23.555568603515624,18.1875,29.83125114440918,10.575000762939453
1779997465883743700,23.57574365234375,18.1875,29.812501907348633,10.575000762939453
1779997465903636000,23.595635986328126,18.20625114440918,29.812501907348633,10.575000762939453
1779997465923575800,23.615575927734376,18.243751525878906,29.793750762939453,10.59375
1779997465943541000,23.635541015625,18.20625114440918,29.812501907348633,10.612500190734863
1779997465963795200,23.655795166015626,18.01875114440918,29.812501907348633,10.631250381469727
1779997465983684400,23.675684326171876,17.962501525878906,29.812501907348633,10.631250381469727
1779997466003874000,23.6958740234375,17.887500762939453,29.793750762939453,10.65000057220459
1779997466023720000,23.715719970703127,18.11250114440918,29.793750762939453,10.668750762939453
1779997466043612200,23.735612060546874,18.262500762939453,29.775001525878906,10.668750762939453
1779997466063820300,23.7558203125,18.243751525878906,29.793750762939453,10.6875
1779997466083686400,23.775686279296874,18.243751525878906,29.793750762939453,10.706250190734863
1779997466103595300,23.79559521484375,18.243751525878906,29.793750762939453,10.725000381469727
1779997466123813600,23.815813720703126,18.225000381469727,29.793750762939453,10.725000381469727
1779997466143810000,23.83581005859375,18.243751525878906,29.812501907348633,10.74375057220459
1779997466163922000,23.855921875,18.262500762939453,29.812501907348633,10.762500762939453
1779997466183983600,23.875983642578124,18.337501525878906,29.83125114440918,10.762500762939453
1779997466203951900,23.895951904296876,18.431251525878906,29.83125114440918,10.78125
1779997466223904300,23.915904296875,18.450000762939453,29.83125114440918,10.78125
1779997466243677000,23.935677001953124,18.337501525878906,29.812501907348633,10.762500762939453
1779997466263862800,23.95586279296875,18.412500381469727,29.812501907348633,10.762500762939453
1779997466283923700,23.975923828125,18.356250762939453,29.812501907348633,10.762500762939453
1779997466303892700,23.995892822265624,18.450000762939453,29.83125114440918,10.762500762939453
1779997466324035800,24.016035888671876,18.318750381469727,29.850000381469727,10.762500762939453
1779997466344013000,24.036012939453126,18.243751525878906,29.83125114440918,10.78125
1779997466363934500,24.0559345703125,18.375,29.83125114440918,10.78125
1779997466384172300,24.07617236328125,18.337501525878906,29.83125114440918,10.762500762939453
1779997466403805400,24.095805419921874,18.337501525878906,29.83125114440918,10.74375057220459
1779997466423599000,24.11559912109375,18.356250762939453,29.83125114440918,10.725000381469727
1779997466443508700,24.1355087890625,18.356250762939453,29.850000381469727,10.725000381469727
1779997466463856600,24.155856689453124,18.09375,29.850000381469727,10.725000381469727
1779997466484166100,24.176166259765626,18.075000762939453,29.850000381469727,10.706250190734863
1779997466504107300,24.196107177734376,17.962501525878906,29.850000381469727,10.706250190734863
1779997466523900200,24.215900146484376,17.962501525878906,29.850000381469727,10.706250190734863
1779997466543659800,24.23565966796875,17.981250762939453,29.868751525878906,10.725000381469727
1779997466563583200,24.255583251953126,18.037500381469727,29.868751525878906,10.725000381469727
1779997466583726800,24.275726806640623,18.056251525878906,29.868751525878906,10.725000381469727
1779997466603604500,24.2956044921875,18,29.850000381469727,10.725000381469727
1779997466623747300,24.315747314453127,17.962501525878906,29.83125114440918,10.706250190734863
1779997466643859000,24.33585888671875,17.887500762939453,29.868751525878906,10.706250190734863
1779997466663938600,24.3559384765625,17.850000381469727,29.887500762939453,10.725000381469727
1779997466683731200,24.375731201171874,17.850000381469727,29.887500762939453,10.74375057220459
1779997466703807700,24.395807861328127,17.793750762939453,29.887500762939453,10.74375057220459
1779997466723640800,24.415640869140624,17.662500381469727,29.887500762939453,10.762500762939453
1779997466743568000,24.43556787109375,17.512500762939453,29.868751525878906,10.762500762939453
1779997466763795200,24.455795166015626,17.606250762939453,29.868751525878906,10.74375057220459
1779997466783937000,24.47593701171875,17.55000114440918,29.868751525878906,10.762500762939453
1779997466803747600,24.49574755859375,17.512500762939453,29.868751525878906,10.762500762939453
1779997466823882500,24.515882568359373,17.45625114440918,29.868751525878906,10.74375057220459
1779997466843742700,24.53574267578125,17.64375114440918,29.887500762939453,10.74375057220459
1779997466864083200,24.556083251953126,17.64375114440918,29.868751525878906,10.725000381469727
1779997466884261400,24.576261474609375,17.64375114440918,29.868751525878906,10.762500762939453
1779997466904038000,24.596037841796875,17.64375114440918,29.868751525878906,10.78125
1779997466924188000,24.61618798828125,17.625,29.83125114440918,10.818750381469727
1779997466944263000,24.636262939453125,17.625,29.812501907348633,10.83750057220459
1779997466964046000,24.656046142578123,17.662500381469727,29.812501907348633,10.83750057220459
1779997466984166100,24.676166259765626,17.73750114440918,29.812501907348633,10.856250762939453
1779997467004234000,24.69623388671875,17.73750114440918,29.83125114440918,10.875
1779997467024078600,24.71607861328125,17.83125114440918,29.812501907348633,10.893750190734863
1779997467043714300,24.73571435546875,18.075000762939453,29.812501907348633,10.912500381469727
1779997467063733000,24.75573291015625,18.09375,29.83125114440918,10.912500381469727
1779997467083760600,24.7757607421875,18.225000381469727,29.812501907348633,10.950000762939453
1779997467103590700,24.795590576171875,18.356250762939453,29.793750762939453,10.950000762939453
1779997467123515100,24.81551513671875,18.262500762939453,29.775001525878906,10.950000762939453
1779997467143499000,24.8354990234375,18.20625114440918,29.775001525878906,10.96875
1779997467163786500,24.855786376953127,18.20625114440918,29.775001525878906,10.987500190734863
1779997467183962000,24.875962158203127,18.318750381469727,29.793750762939453,10.96875
1779997467204230400,24.89623046875,18.1875,29.793750762939453,10.987500190734863
1779997467223939600,24.915939697265625,18.11250114440918,29.793750762939453,10.950000762939453
1779997467243948800,24.93594873046875,18.075000762939453,29.775001525878906,10.950000762939453
1779997467264167200,24.956167236328124,18.037500381469727,29.793750762939453,10.912500381469727
1779997467284001300,24.976001220703125,18,29.793750762939453,10.893750190734863
1779997467303707600,24.995707763671874,18.037500381469727,29.775001525878906,10.856250762939453
1779997467323811600,25.0158115234375,18.20625114440918,29.775001525878906,10.83750057220459
1779997467343626500,25.03562646484375,18.28125,29.756250381469727,10.818750381469727
1779997467363808300,25.055808349609375,18.375,29.756250381469727,10.818750381469727
1779997467384123400,25.076123291015627,18.39375114440918,29.775001525878906,10.800000190734863
1779997467404118300,25.0961181640625,18.262500762939453,29.812501907348633,10.818750381469727
1779997467423791400,25.115791259765626,18.262500762939453,29.83125114440918,10.800000190734863
1779997467443604000,25.13560400390625,18.243751525878906,29.812501907348633,10.800000190734863
1779997467463786800,25.155786865234376,18.225000381469727,29.83125114440918,10.78125
1779997467483907300,25.1759072265625,18.243751525878906,29.812501907348633,10.762500762939453
1779997467503907600,25.195907470703126,18.318750381469727,29.83125114440918,10.706250190734863
1779997467524153600,25.216153564453126,18.318750381469727,29.850000381469727,10.706250190734863
1779997467544145400,25.2361455078125,18.318750381469727,29.868751525878906,10.706250190734863
1779997467564265500,25.256265380859375,18.28125,29.868751525878906,10.706250190734863
1779997467584044300,25.276044189453124,18.356250762939453,29.868751525878906,10.706250190734863
1779997467603794000,25.2957939453125,18.543750762939453,29.868751525878906,10.706250190734863
1779997467624043000,25.31604296875,18.412500381469727,29.850000381469727,10.6875
1779997467644203800,25.336203857421875,18.375,29.850000381469727,10.668750762939453
1779997467664016600,25.3560166015625,18.375,29.812501907348633,10.65000057220459
1779997467684161000,25.3761611328125,18.375,29.793750762939453,10.59375
1779997467704047400,25.39604736328125,18.65625,29.793750762939453,10.55625057220459
1779997467723919400,25.41591943359375,18.75,29.793750762939453,10.55625057220459
1779997467743865300,25.435865234375,18.75,29.793750762939453,10.537500381469727
1779997467764092200,25.456092041015626,18.84375,29.793750762939453,10.537500381469727
1779997467784086500,25.47608642578125,18.84375,29.793750762939453,10.537500381469727
1779997467804018000,25.496017822265625,18.9375,29.793750762939453,10.55625057220459
1779997467824181000,25.516180908203125,19.012500762939453,29.793750762939453,10.518750190734863
1779997467844261400,25.536261474609375,19.087501525878906,29.793750762939453,10.518750190734863
1779997467864104000,25.55610400390625,19.21875,29.775001525878906,10.5
1779997467884208600,25.576208740234375,19.293750762939453,29.756250381469727,10.481250762939453
1779997467904266800,25.596266845703123,19.21875,29.756250381469727,10.46250057220459
1779997467924126200,25.616126220703126,19.368751525878906,29.756250381469727,10.481250762939453
1779997467944211700,25.636211669921874,19.556251525878906,29.775001525878906,10.46250057220459
1779997467964261000,25.65626123046875,19.556251525878906,29.775001525878906,10.46250057220459
1779997467983927800,25.675927734375,19.537500381469727,29.756250381469727,10.46250057220459
1779997468004091400,25.69609130859375,19.537500381469727,29.73750114440918,10.481250762939453
1779997468024212700,25.716212646484376,19.631250381469727,29.73750114440918,10.481250762939453
1779997468044008700,25.7360087890625,19.78125,29.756250381469727,10.46250057220459
1779997468063947300,25.755947265625,19.70625114440918,29.756250381469727,10.443750381469727
1779997468084128800,25.776128662109375,19.650001525878906,29.756250381469727,10.40625
1779997468103975200,25.79597509765625,19.650001525878906,29.756250381469727,10.36875057220459
1779997468124178700,25.8161787109375,19.837501525878906,29.756250381469727,10.350000381469727
1779997468144265200,25.83626513671875,20.006250381469727,29.73750114440918,10.3125
1779997468164183000,25.85618310546875,19.96875,29.775001525878906,10.293750762939453
1779997468220652500,25.912652587890626,20.006250381469727,29.775001525878906,10.256250381469727
1779997468374024000,26.06602392578125,8.4375,33.26250076293945,9.1875
1779997468510788900,26.202788818359377,-14.381250381469727,40.33125305175781,7.162500381469727
1779997468556356400,26.2483564453125,-14.325000762939453,40.35000228881836,7.106250286102295
1779997468601900500,26.293900634765624,-14.268750190734863,40.33125305175781,7.050000190734863
1779997468647409400,26.339409423828126,-14.156250953674316,40.33125305175781,7.012500286102295
1779997468692887600,26.384887451171874,-13.856250762939453,40.33125305175781,6.956250190734863
1779997468873987000,26.565987060546874,-12.881250381469727,40.40625,6.768750190734863
1779997469007806500,26.699806396484377,-12.375000953674316,40.462501525878906,6.712500095367432
1779997469051785500,26.743785400390625,-0.768750011920929,36.993751525878906,7.593750476837158
1779997469095356400,26.7873564453125,22.40625,30.056251525878906,9.393750190734863
1779997469138451500,26.830451416015624,22.350000381469727,30.000001907348633,9.393750190734863
1779997469180999000,26.8729990234375,22.3125,29.92500114440918,9.375
1779997469222918000,26.91491796875,22.275001525878906,29.906251907348633,9.375
1779997469264126500,26.95612646484375,22.293750762939453,29.887500762939453,9.375
1779997469304537300,26.996537353515624,22.33125114440918,29.868751525878906,9.356250762939453
1779997469344063700,27.036063720703126,22.23750114440918,29.868751525878906,9.356250762939453
1779997469382611200,27.074611083984376,22.068750381469727,29.850000381469727,9.356250762939453
1779997469420085000,27.1120849609375,21.900001525878906,29.83125114440918,9.375
1779997469456387600,27.1483876953125,21.67500114440918,29.793750762939453,9.375
1779997469491427800,27.183427734375,21.375,29.793750762939453,9.356250762939453
1779997469525123600,27.21712353515625,21.243751525878906,29.775001525878906,9.375
1779997469557388000,27.249387939453126,21.131250381469727,29.775001525878906,9.393750190734863
1779997469588146400,27.280146484375,21.1875,29.756250381469727,9.375
1779997469617320000,27.30931982421875,21.243751525878906,29.756250381469727,9.393750190734863
1779997469644853800,27.336853759765624,21.225000381469727,29.775001525878906,9.393750190734863
1779997469670698500,27.362698486328124,21.46875,29.793750762939453,9.393750190734863
1779997469694818000,27.386818115234377,21.618751525878906,29.812501907348633,9.375
1779997469717183000,27.409182861328127,21.67500114440918,29.83125114440918,9.375
1779997469737775600,27.429775634765626,21.712501525878906,29.850000381469727,9.356250762939453
1779997469756611300,27.448611328125,21.787500381469727,29.850000381469727,9.33750057220459
1779997469773703000,27.465702880859375,21.787500381469727,29.850000381469727,9.33750057220459
1779997469789064700,27.481064697265627,21.825000762939453,29.83125114440918,9.318750381469727
1779997469802761200,27.49476123046875,21.918750762939453,29.812501907348633,9.28125
1779997469814839800,27.50683984375,22.05000114440918,29.812501907348633,9.28125
1779997469825350400,27.517350341796874,22.256250381469727,29.812501907348633,9.28125
1779997469842081800,27.534081787109375,22.3125,29.775001525878906,9.206250190734863
1779997469857166300,27.549166259765624,22.481250762939453,29.775001525878906,9.1875
1779997469869627100,27.561627197265626,22.61250114440918,29.718751907348633,9.168750762939453
1779997469881919700,27.573919677734374,-12.131250381469727,40.10625076293945,6.431250095367432
1779997469897034200,27.5890341796875,-11.981250762939453,40.23750305175781,6.393750190734863
1779997469907633000,27.5996328125,-12.131250381469727,40.275001525878906,6.412500381469727
1779997469917443300,27.609443359375,-0.4125000238418579,36.806251525878906,7.350000381469727
1779997469931732700,27.623732666015623,22.575000762939453,29.850000381469727,9.15000057220459
1779997469943739100,27.6357392578125,22.575000762939453,29.83125114440918,9.15000057220459
1779997469957649700,27.649649658203124,22.42500114440918,29.793750762939453,9.131250381469727
1779997469973510000,27.665510009765626,22.51875114440918,29.775001525878906,9.131250381469727
1779997469991179500,27.683179443359375,22.51875114440918,29.73750114440918,9.131250381469727
1779997470010615300,27.702615234375,22.537500381469727,29.700000762939453,9.09375
1779997470020980700,27.712980712890626,22.537500381469727,29.73750114440918,9.09375
1779997470031775200,27.723775146484375,22.59375,29.73750114440918,9.075000762939453
1779997470042971100,27.73497119140625,22.725000381469727,29.73750114440918,9.09375
1779997470054568000,27.74656787109375,22.575000762939453,29.718751907348633,9.05625057220459
1779997470066574600,27.75857470703125,22.42500114440918,29.700000762939453,9.037500381469727
1779997470078955500,27.77095556640625,22.275001525878906,29.700000762939453,9.037500381469727
1779997470093821000,27.785821044921875,22.23750114440918,29.718751907348633,9.05625057220459
1779997470115282200,27.8072822265625,22.256250381469727,29.718751907348633,9.075000762939453
1779997470139168800,27.831168701171876,22.21875,29.73750114440918,9.112500190734863
1779997470162360000,27.854360107421876,22.14375114440918,29.73750114440918,9.15000057220459
1779997470184072400,27.876072509765624,21.900001525878906,29.756250381469727,9.225000381469727
1779997470204633900,27.8966337890625,21.65625,29.775001525878906,9.300000190734863
1779997470224478200,27.916478271484376,21.318750381469727,29.793750762939453,9.375
1779997470244192500,27.936192626953126,21.11250114440918,29.793750762939453,9.487500190734863
1779997470264116000,27.956115966796876,20.73750114440918,29.775001525878906,9.600000381469727
1779997470283806500,27.975806396484376,20.568750381469727,29.756250381469727,9.693750381469727
1779997470303629600,27.995629638671875,20.36250114440918,29.756250381469727,9.787500381469727
1779997470323739000,28.01573876953125,20.212501525878906,29.775001525878906,9.862500190734863
1779997470343606800,28.035606689453125,20.025001525878906,29.793750762939453,9.975000381469727
1779997470363747800,28.055747802734373,19.78125,29.812501907348633,10.106250762939453
1779997470383822300,28.075822265625,19.5,29.812501907348633,10.21875
1779997470468819000,28.16081884765625,19.162500381469727,29.83125114440918,10.331250190734863
1779997470518996200,28.210996337890624,18.806251525878906,29.83125114440918,10.40625
1779997470612159200,28.3041591796875,18.20625114440918,29.850000381469727,10.55625057220459
1779997470658738400,28.350738525390625,17.90625,29.850000381469727,10.59375
1779997470705312000,28.39731201171875,6.337500095367432,33.30000305175781,9.675000190734863
1779997470798416600,28.490416748046876,-16.481250762939453,40.23750305175781,7.781250476837158
1779997470844929300,28.53692919921875,-16.575000762939453,40.25625228881836,7.762500286102295
1779997470891398100,28.583398193359375,-16.650001525878906,40.275001525878906,7.762500286102295
1779997470937826000,28.629825927734377,-16.668750762939453,40.275001525878906,7.762500286102295
1779997471030467000,28.722467041015626,-16.98750114440918,40.3125,7.800000190734863
1779997471122541600,28.81454150390625,-16.78125,40.29375076293945,7.687500476837158
1779997471168258800,28.8602587890625,-28.200000762939453,43.743751525878906,6.731250286102295
1779997471258772700,28.950772705078126,-50.94375228881836,50.681251525878906,4.818750381469727
1779997471303470800,28.995470947265623,-50.75625228881836,50.70000076293945,4.800000190734863
1779997471347711700,29.039711669921875,-50.531253814697266,50.681251525878906,4.800000190734863
1779997471391421400,29.08342138671875,-39.07500076293945,47.212501525878906,5.775000095367432
1779997471434521600,29.126521484375,-16.200000762939453,40.29375076293945,7.706250190734863
1779997471476927500,29.168927490234374,-16.256250381469727,40.33125305175781,7.725000381469727
1779997471518551300,29.21055126953125,-16.03125,40.33125305175781,7.687500476837158
1779997471559300000,29.251300048828124,-15.99375057220459,40.3125,7.687500476837158
1779997471599079000,29.291078857421876,-16.05000114440918,40.3125,7.687500476837158
1779997471637790700,29.329790771484376,-16.068750381469727,40.29375076293945,7.706250190734863
1779997471675338200,29.367338134765625,-16.106250762939453,40.29375076293945,7.743750095367432
1779997471711625200,29.403625244140624,-16.21875,40.33125305175781,7.781250476837158
1779997471746557200,29.43855712890625,-16.181251525878906,40.33125305175781,7.818750381469727
1779997471780044500,29.47204443359375,-4.537500381469727,36.88125228881836,8.793750762939453
1779997471812003300,29.50400341796875,18.525001525878906,29.962501525878906,10.668750762939453
1779997471842355700,29.534355712890626,18.46875,29.962501525878906,10.65000057220459
1779997471871034000,29.5630341796875,18.412500381469727,29.943750381469727,10.6875
1779997471897986600,29.589986572265627,18.318750381469727,29.943750381469727,10.706250190734863
1779997471924956400,29.616956298828125,18.168750762939453,29.943750381469727,10.6875
1779997471972935700,29.664935791015626,17.793750762939453,29.906251907348633,10.631250381469727
1779997471993703000,29.685702880859374,17.662500381469727,29.906251907348633,10.65000057220459
1779997472028996600,29.72099658203125,17.325000762939453,29.943750381469727,10.706250190734863
1779997472056150800,29.74815087890625,-5.418750286102295,36.88125228881836,8.756250381469727
1779997472067133400,29.759133544921873,-5.193750381469727,36.86250305175781,8.71875
1779997472084418600,29.77641845703125,-5.306250095367432,36.82500076293945,8.662500381469727
1779997472096085800,29.788085693359374,-5.418750286102295,36.82500076293945,8.71875
1779997472114164700,29.806164794921877,-5.193750381469727,36.900001525878906,8.77500057220459
1779997472125044200,29.817044189453124,17.83125114440918,29.906251907348633,10.65000057220459
1779997472136622000,29.8286220703125,17.662500381469727,29.887500762939453,10.612500190734863
1779997472150227000,29.84222705078125,17.493751525878906,29.887500762939453,10.612500190734863
1779997472165773000,29.85777294921875,17.793750762939453,29.850000381469727,10.59375
1779997472183260700,29.8752607421875,18.20625114440918,29.812501907348633,10.631250381469727
1779997472202585900,29.8945859375,18.225000381469727,29.83125114440918,10.65000057220459
1779997472212935700,29.904935791015625,18.168750762939453,29.850000381469727,10.668750762939453
1779997472223678500,29.915678466796876,18.30000114440918,29.850000381469727,10.6875
1779997472234872600,29.92687255859375,18.39375114440918,29.850000381469727,10.668750762939453
1779997472246450000,29.938449951171876,18.46875,29.850000381469727,10.668750762939453
1779997472258436600,29.9504365234375,18.46875,29.83125114440918,10.65000057220459
1779997472273134300,29.96513427734375,18.5625,29.83125114440918,10.65000057220459
1779997472294645200,29.986645263671875,18.693750381469727,29.850000381469727,10.65000057220459
1779997472319315000,30.01131494140625,18.787500381469727,29.83125114440918,10.6875
1779997472342271500,30.034271484375,18.787500381469727,29.812501907348633,10.706250190734863
1779997472363806700,30.055806640625,18.712501525878906,29.83125114440918,10.74375057220459
1779997472384356600,30.076356689453124,18.712501525878906,29.83125114440918,10.725000381469727
1779997472404374800,30.096374755859376,18.637500762939453,29.850000381469727,10.6875
1779997472424269000,30.11626904296875,18.543750762939453,29.868751525878906,10.668750762939453
1779997472444242400,30.136242431640625,18.431251525878906,29.868751525878906,10.668750762939453
1779997472463933000,30.155932861328125,18.506250381469727,29.868751525878906,10.6875
1779997472483891700,30.1758916015625,18.58125114440918,29.868751525878906,10.6875
1779997472504125700,30.196125732421876,18.525001525878906,29.868751525878906,10.6875
1779997472524002800,30.2160029296875,18.543750762939453,29.868751525878906,10.668750762939453
1779997472543722000,30.235721923828127,18.712501525878906,29.868751525878906,10.65000057220459
1779997472563823900,30.255823974609374,19.012500762939453,29.868751525878906,10.668750762939453
1779997472583647200,30.275647216796877,18.918750762939453,29.887500762939453,10.6875
1779997472603936000,30.29593603515625,18.787500381469727,29.887500762939453,10.706250190734863
1779997472623956700,30.315956787109375,18.712501525878906,29.887500762939453,10.706250190734863
1779997472643728400,30.335728271484374,18.637500762939453,29.887500762939453,10.65000057220459
1779997472664054500,30.356054443359376,18.58125114440918,29.868751525878906,10.612500190734863
1779997472683765500,30.375765625,18.5625,29.868751525878906,10.59375
1779997472704072000,30.396072021484375,18.637500762939453,29.850000381469727,10.59375
1779997472723974700,30.415974609375,18.525001525878906,29.850000381469727,10.612500190734863
1779997472743710500,30.43571044921875,18.450000762939453,29.868751525878906,10.631250381469727
1779997472763562000,30.45556201171875,18.375,29.850000381469727,10.612500190734863
1779997472783503000,30.475503173828123,18.356250762939453,29.850000381469727,10.59375
1779997472803646200,30.495646240234375,18.337501525878906,29.850000381469727,10.575000762939453
1779997472823842600,30.515842529296876,18.262500762939453,29.868751525878906,10.59375
1779997472843686400,30.535686279296876,18.1875,29.887500762939453,10.575000762939453
1779997472863793000,30.55579296875,18,29.887500762939453,10.59375
1779997472883909600,30.57590966796875,17.8125,29.887500762939453,10.612500190734863
1779997472904178700,30.5961787109375,17.73750114440918,29.906251907348633,10.612500190734863
1779997472924189200,30.616189208984373,17.662500381469727,29.906251907348633,10.631250381469727
1779997472944078300,30.636078369140623,17.64375114440918,29.906251907348633,10.631250381469727
1779997472963739000,30.65573876953125,17.662500381469727,29.92500114440918,10.631250381469727
1779997472983768300,30.675768310546875,17.493751525878906,29.943750381469727,10.612500190734863
1779997473003597600,30.69559765625,17.306251525878906,29.943750381469727,10.631250381469727
1779997473023524000,30.715524169921874,17.212501525878906,29.981250762939453,10.631250381469727
1779997473043498500,30.73549853515625,17.15625,29.962501525878906,10.631250381469727
1779997473063505000,30.7555048828125,17.193750381469727,29.981250762939453,10.65000057220459
1779997473083524000,30.775524169921876,17.193750381469727,29.962501525878906,10.65000057220459
1779997473103536000,30.7955361328125,17.231250762939453,29.981250762939453,10.65000057220459
1779997473123585000,30.8155849609375,17.231250762939453,29.981250762939453,10.668750762939453
1779997473143575800,30.835575927734375,17.193750381469727,29.962501525878906,10.6875
1779997473163561200,30.855561279296875,17.17500114440918,29.943750381469727,10.706250190734863
1779997473183731200,30.875731201171874,17.15625,29.92500114440918,10.668750762939453
1779997473203643600,30.8956435546875,17.26875114440918,29.906251907348633,10.668750762939453
1779997473223853000,30.91585302734375,17.381250381469727,29.887500762939453,10.65000057220459
1779997473243926800,30.9359267578125,17.45625114440918,29.887500762939453,10.631250381469727
1779997473263721000,30.955720947265625,17.587501525878906,29.850000381469727,10.631250381469727
1779997473284064800,30.976064697265624,17.775001525878906,29.850000381469727,10.668750762939453
1779997473304174800,30.9961748046875,17.756250381469727,29.83125114440918,10.6875
1779997473323820500,31.015820556640627,17.850000381469727,29.793750762939453,10.6875
1779997473343613700,31.03561376953125,17.868751525878906,29.793750762939453,10.668750762939453
1779997473363761700,31.05576171875,17.850000381469727,29.793750762939453,10.631250381469727
1779997473383631400,31.07563134765625,18.01875114440918,29.775001525878906,10.59375
1779997473403555000,31.09555517578125,18.09375,29.775001525878906,10.59375
1779997473423791900,31.1157919921875,18.131250381469727,29.775001525878906,10.59375
1779997473443976400,31.1359765625,18.037500381469727,29.775001525878906,10.612500190734863
