time,seconds_elapsed,z,y,x
1779997442573517300,0.265517333984375,348.07501220703125,-103.96875762939453,27.356250762939453
1779997442593833500,0.28583349609375,348.0375061035156,-103.96875762939453,27.337501525878906
1779997442614024000,0.30602392578125,348.1875,-103.96875762939453,27.318750381469727
1779997442634281500,0.326281494140625,348.2062683105469,-103.96875762939453,27.281251907348633
1779997442654385000,0.346385009765625,348.2250061035156,-103.95000457763672,27.262500762939453
1779997442674046500,0.36604638671875,348.2437744140625,-103.9312515258789,27.262500762939453
1779997442758524200,0.450524169921875,348.1875,-103.9312515258789,27.225000381469727
1779997442854924500,0.546924560546875,348.1125183105469,-103.9312515258789,27.131250381469727
1779997443040267800,0.732267822265625,348.2250061035156,-103.85625457763672,27.01875114440918
1779997443086572800,0.77857275390625,348.35626220703125,-103.85625457763672,27.000001907348633
1779997443132848000,0.82484814453125,348.4125061035156,-103.85625457763672,26.962501525878906
1779997443179079400,0.871079345703125,348.3375244140625,-103.8375015258789,26.92500114440918
1779997443225249500,0.91724951171875,348.4125061035156,-103.81875610351562,26.906251907348633
1779997443271335700,0.963335693359375,348.26251220703125,-103.81875610351562,26.887500762939453
1779997443317311200,1.009311279296875,348.3000183105469,-103.81875610351562,26.906251907348633
1779997443363144700,1.055144775390625,348.3000183105469,-103.8375015258789,26.887500762939453
1779997443408798700,1.100798828125,348.4125061035156,-103.85625457763672,26.868751525878906
1779997443454230000,1.14622998046875,348.5250244140625,-103.85625457763672,26.887500762939453
1779997443499390200,1.19139013671875,348.6187744140625,-103.85625457763672,26.887500762939453
1779997443544225500,1.2362255859375,348.7875061035156,-103.85625457763672,26.906251907348633
1779997443588673500,1.280673583984375,348.8812561035156,-103.87500762939453,26.906251907348633
1779997443632669400,1.32466943359375,348.9000244140625,-103.89375305175781,26.92500114440918
1779997443676486000,1.36848583984375,348.9000244140625,-103.9312515258789,26.906251907348633
1779997443762280700,1.45428076171875,348.75,-103.96875762939453,26.887500762939453
1779997443804002300,1.496002197265625,348.7687683105469,-103.96875762939453,26.887500762939453
1779997443884581000,1.5765810546875,348.9750061035156,-103.98750305175781,26.92500114440918
1779997443923193900,1.61519384765625,349.0500183105469,-103.98750305175781,26.92500114440918
1779997443960652300,1.65265234375,348.9375,-104.00625610351562,26.92500114440918
1779997443996856000,1.68885595703125,348.8062744140625,-103.98750305175781,26.962501525878906
1779997444031718100,1.72371826171875,348.6187744140625,-104.00625610351562,26.981250762939453
1779997444065145900,1.757145751953125,348.5250244140625,-104.0250015258789,27.01875114440918
1779997444097050000,1.789050048828125,348.46875,-104.0250015258789,27.037500381469727
1779997444127364400,1.8193642578125,348.375,-104.04375457763672,27.056251525878906
1779997444156015600,1.848015625,348.28125,-104.06250762939453,27.093751907348633
1779997444182944300,1.8749443359375,348.3187561035156,-104.06250762939453,27.131250381469727
1779997444208110000,1.900110107421875,348.3937683105469,-104.08125305175781,27.168750762939453
1779997444231477000,1.92347705078125,348.26251220703125,-104.1187515258789,27.20625114440918
1779997444253016000,1.94501611328125,348.28125,-104.1187515258789,27.262500762939453
1779997444272733400,1.9647333984375,348.3375244140625,-104.13750457763672,27.281251907348633
1779997444290644200,1.982644287109375,348.1125183105469,-104.13750457763672,27.318750381469727
1779997444306756000,1.998756103515625,348,-104.15625762939453,27.337501525878906
1779997444321115600,2.01311572265625,348,-104.17500305175781,27.356250762939453
1779997444333783000,2.025782958984375,348.07501220703125,-104.19375610351562,27.375001907348633
1779997444344806100,2.03680615234375,348.1875,-104.2125015258789,27.375001907348633
1779997444362244400,2.054244384765625,348.35626220703125,-104.23125457763672,27.356250762939453
1779997444374172700,2.066172607421875,348.375,-104.25000762939453,27.337501525878906
1779997444384902400,2.07690234375,348.3187561035156,-104.23125457763672,27.262500762939453
1779997444394760700,2.0867607421875,336.375,-100.68750762939453,26.26875114440918
1779997444407950300,2.099950439453125,345.6937561035156,-104.10000610351562,28.125001907348633
1779997444432779300,2.124779296875,321.9000244140625,-97.01250457763672,26.475000381469727
1779997444444958000,2.1369580078125,321.63751220703125,-96.9937515258789,26.55000114440918
1779997444459111700,2.151111572265625,321.46875,-96.95625305175781,26.625001907348633
1779997444475189500,2.167189453125,321.35626220703125,-96.93750762939453,26.64375114440918
1779997444493130800,2.185130859375,321.7687683105469,-96.91875457763672,26.625001907348633
1779997444502779000,2.19477880859375,321.7687683105469,-96.93750762939453,26.568750381469727
1779997444512867300,2.204867431640625,321.9562683105469,-96.93750762939453,26.55000114440918
1779997444523387000,2.215386962890625,322.10626220703125,-96.9000015258789,26.55000114440918
1779997444534327300,2.226327392578125,333.6000061035156,-100.3687515258789,27.506250381469727
1779997444545680000,2.237679931640625,344.98126220703125,-103.85625457763672,28.500001907348633
1779997444557435400,2.249435302734375,344.88751220703125,-103.91250610351562,28.556251525878906
1779997444569600800,2.261600830078125,344.8312683105469,-103.96875762939453,28.593751907348633
1779997444584093200,2.27609326171875,344.7375183105469,-103.96875762939453,28.61250114440918
1779997444604887000,2.296886962890625,344.71875,-103.96875762939453,28.631250381469727
1779997444628772400,2.3207724609375,344.6625061035156,-103.98750305175781,28.650001525878906
1779997444651814100,2.343814208984375,344.5687561035156,-103.98750305175781,28.650001525878906
1779997444673694200,2.365694091796875,344.6812744140625,-103.98750305175781,28.631250381469727
1779997444694483500,2.3864833984375,344.7562561035156,-103.98750305175781,28.61250114440918
1779997444714446000,2.406446044921875,344.71875,-103.98750305175781,28.593751907348633
1779997444734208000,2.4262080078125,344.70001220703125,-104.00625610351562,28.575000762939453
1779997444754213000,2.446213134765625,344.70001220703125,-103.98750305175781,28.593751907348633
1779997444774163500,2.46616357421875,344.53125,-103.98750305175781,28.61250114440918
1779997444793831200,2.4858310546875,344.4750061035156,-103.98750305175781,28.61250114440918
1779997444813894400,2.505894287109375,344.4562683105469,-103.96875762939453,28.61250114440918
1779997444833684000,2.52568408203125,344.5687561035156,-103.98750305175781,28.593751907348633
1779997444853562600,2.545562744140625,344.71875,-103.96875762939453,28.575000762939453
1779997444873777200,2.565777099609375,344.71875,-103.98750305175781,28.575000762939453
1779997444893656000,2.585656005859375,344.8500061035156,-103.98750305175781,28.593751907348633
1779997444913577700,2.60557763671875,344.79376220703125,-103.96875762939453,28.61250114440918
1779997444933551900,2.6255517578125,344.7750244140625,-103.95000457763672,28.631250381469727
1779997444953802800,2.645802734375,344.7562561035156,-103.95000457763672,28.650001525878906
1779997444974145800,2.666145751953125,344.7375183105469,-103.9312515258789,28.650001525878906
1779997444994050800,2.68605078125,344.8500061035156,-103.9312515258789,28.631250381469727
1779997445013962000,2.7059619140625,344.8500061035156,-103.95000457763672,28.61250114440918
1779997445033695200,2.7256953125,344.7375183105469,-103.9312515258789,28.61250114440918
1779997445053557800,2.745557861328125,344.79376220703125,-103.91250610351562,28.631250381469727
1779997445073681700,2.765681640625,344.6812744140625,-103.91250610351562,28.650001525878906
1779997445093591600,2.785591552734375,344.70001220703125,-103.91250610351562,28.650001525878906
1779997445113815000,2.80581494140625,344.8687744140625,-103.9312515258789,28.631250381469727
1779997445133880600,2.825880615234375,344.8500061035156,-103.89375305175781,28.61250114440918
1779997445153705700,2.845705810546875,344.8687744140625,-103.91250610351562,28.631250381469727
1779997445173858800,2.86585888671875,344.8312683105469,-103.87500762939453,28.650001525878906
1779997445194209500,2.88620947265625,344.6812744140625,-103.87500762939453,28.668750762939453
1779997445213860400,2.9058603515625,344.60626220703125,-103.89375305175781,28.687501907348633
1779997445233646800,2.925646728515625,344.60626220703125,-103.89375305175781,28.687501907348633
1779997445253763800,2.945763916015625,344.6812744140625,-103.87500762939453,28.668750762939453
1779997445273765000,2.96576513671875,344.6812744140625,-103.89375305175781,28.650001525878906
1779997445293818000,2.985818115234375,344.6625061035156,-103.91250610351562,28.61250114440918
1779997445313907700,3.00590771484375,344.6812744140625,-103.89375305175781,28.631250381469727
1779997445333907000,3.025906982421875,344.7562561035156,-103.89375305175781,28.650001525878906
1779997445353681700,3.045681640625,344.70001220703125,-103.91250610351562,28.668750762939453
1779997445373825300,3.0658251953125,344.88751220703125,-103.9312515258789,28.650001525878906
1779997445393663500,3.08566357421875,344.9250183105469,-103.9312515258789,28.631250381469727
1779997445413566500,3.10556640625,344.7562561035156,-103.9312515258789,28.61250114440918
1779997445433538000,3.1255380859375,344.7562561035156,-103.96875762939453,28.593751907348633
1779997445453711600,3.145711669921875,344.5687561035156,-103.95000457763672,28.575000762939453
1779997445473603600,3.165603515625,344.51251220703125,-103.96875762939453,28.593751907348633
1779997445493574700,3.18557470703125,344.53125,-103.96875762939453,28.61250114440918
1779997445513817900,3.20581787109375,344.3812561035156,-103.96875762939453,28.593751907348633
1779997445533696800,3.22569677734375,344.3812561035156,-103.96875762939453,28.575000762939453
1779997445554072000,3.246072021484375,344.4375,-104.00625610351562,28.556251525878906
1779997445574071800,3.26607177734375,344.4937744140625,-104.0250015258789,28.556251525878906
1779997445593809400,3.285809326171875,344.4937744140625,-104.00625610351562,28.575000762939453
1779997445614097200,3.30609716796875,344.3812561035156,-104.04375457763672,28.575000762939453
1779997445634250800,3.326250732421875,344.23126220703125,-104.06250762939453,28.593751907348633
1779997445654008000,3.346008056640625,344.1750183105469,-104.06250762939453,28.593751907348633
1779997445673698800,3.36569873046875,344.0812683105469,-104.08125305175781,28.575000762939453
1779997445693542000,3.3855419921875,344.0625,-104.10000610351562,28.575000762939453
1779997445713692000,3.40569189453125,344.0812683105469,-104.06250762939453,28.575000762939453
1779997445733582800,3.425582763671875,344.0062561035156,-104.06250762939453,28.575000762939453
1779997445753534200,3.4455341796875,343.9312744140625,-104.08125305175781,28.61250114440918
1779997445773801200,3.46580126953125,343.875,-104.06250762939453,28.631250381469727
1779997445793665800,3.485665771484375,343.875,-104.06250762939453,28.61250114440918
1779997445813585400,3.50558544921875,344.1937561035156,-104.08125305175781,28.61250114440918
1779997445833960400,3.52596044921875,344.25,-104.10000610351562,28.61250114440918
1779997445854007600,3.546007568359375,344.25,-104.10000610351562,28.61250114440918
1779997445873965300,3.56596533203125,344.1937561035156,-104.10000610351562,28.61250114440918
1779997445893981700,3.585981689453125,344.13751220703125,-104.1187515258789,28.631250381469727
1779997445914002400,3.60600244140625,344.0062561035156,-104.10000610351562,28.650001525878906
1779997445933743000,3.6257431640625,344.1000061035156,-104.06250762939453,28.650001525878906
1779997445953588500,3.64558837890625,344.1937561035156,-104.06250762939453,28.668750762939453
1779997445973559800,3.665559814453125,344.2687683105469,-104.04375457763672,28.650001525878906
1779997445993719300,3.68571923828125,344.1937561035156,-104.0250015258789,28.61250114440918
1779997446013877500,3.70587744140625,344.1000061035156,-104.04375457763672,28.61250114440918
1779997446033891800,3.725891845703125,344.0812683105469,-104.0250015258789,28.650001525878906
1779997446053698000,3.745697998046875,343.96875,-104.04375457763672,28.631250381469727
1779997446073805800,3.765805908203125,344.0625,-104.04375457763672,28.61250114440918
1779997446093879300,3.78587939453125,344.13751220703125,-104.04375457763672,28.593751907348633
1779997446113944600,3.805944580078125,344.23126220703125,-104.04375457763672,28.593751907348633
1779997446133713400,3.82571337890625,344.4000244140625,-104.00625610351562,28.593751907348633
1779997446153653800,3.84565380859375,344.3625183105469,-104.00625610351562,28.61250114440918
1779997446173830400,3.865830322265625,344.4562683105469,-104.00625610351562,28.631250381469727
1779997446193934600,3.8859345703125,344.3625183105469,-103.98750305175781,28.650001525878906
1779997446214180900,3.906180908203125,344.3812561035156,-104.00625610351562,28.631250381469727
1779997446233845800,3.925845703125,344.32501220703125,-104.0250015258789,28.61250114440918
1779997446253640400,3.945640380859375,344.51251220703125,-104.0250015258789,28.593751907348633
1779997446273806300,3.965806396484375,344.53125,-104.00625610351562,28.575000762939453
1779997446330520800,4.022520751953125,344.5875244140625,-103.98750305175781,28.593751907348633
1779997446442270200,4.134270263671875,344.7375183105469,-104.00625610351562,28.61250114440918
1779997446488860000,4.18085986328125,344.9625244140625,-104.00625610351562,28.61250114440918
1779997446675171800,4.367171875,344.79376220703125,-103.95000457763672,28.631250381469727
1779997446721709300,4.413709228515625,344.6812744140625,-103.95000457763672,28.631250381469727
1779997446768210400,4.46021044921875,344.4375,-103.95000457763672,28.631250381469727
1779997446814658800,4.506658935546875,344.41876220703125,-103.96875762939453,28.61250114440918
1779997446861034500,4.553034423828125,344.4937744140625,-103.96875762939453,28.61250114440918
1779997446907313000,4.59931298828125,344.71875,-103.95000457763672,28.61250114440918
1779997446953464300,4.64546435546875,344.70001220703125,-103.9312515258789,28.631250381469727
1779997446999454500,4.691454345703125,344.6812744140625,-103.96875762939453,28.668750762939453
1779997447045243000,4.737242919921875,344.6812744140625,-103.98750305175781,28.725000381469727
1779997447090782700,4.78278271484375,344.70001220703125,-103.98750305175781,28.781251907348633
1779997447136023300,4.828023193359375,344.625,-103.98750305175781,28.818750381469727
1779997447180905500,4.872905517578125,344.4937744140625,-103.98750305175781,28.837501525878906
1779997447225364500,4.917364501953125,344.34375,-104.00625610351562,28.875001907348633
1779997447269329200,4.9613291015625,344.15625,-104.0250015258789,28.912500381469727
1779997447312727300,5.004727294921875,344.04376220703125,-104.06250762939453,28.931251525878906
1779997447355473000,5.047472900390625,344.1000061035156,-104.10000610351562,28.98750114440918
1779997447397484000,5.089484130859375,344.1000061035156,-104.10000610351562,29.025001525878906
1779997447438668500,5.13066845703125,344.0812683105469,-104.08125305175781,29.043750762939453
1779997447478929400,5.170929443359375,344.1187744140625,-104.10000610351562,29.043750762939453
1779997447518176000,5.210176025390625,344.0812683105469,-104.10000610351562,29.043750762939453
1779997447556308200,5.24830810546875,343.9312744140625,-104.1187515258789,29.062501907348633
1779997447593226200,5.285226318359375,343.7437744140625,-104.1187515258789,29.062501907348633
1779997447628841200,5.32084130859375,343.66876220703125,-104.10000610351562,29.062501907348633
1779997447663053800,5.3550537109375,343.57501220703125,-104.08125305175781,29.025001525878906
1779997447695784200,5.3877841796875,343.4250183105469,-104.08125305175781,28.98750114440918
1779997447726938600,5.418938720703125,343.5187683105469,-104.06250762939453,28.950000762939453
1779997447756453000,5.448453125,343.66876220703125,-104.04375457763672,28.912500381469727
1779997447784275700,5.476275634765625,343.9312744140625,-104.0250015258789,28.875001907348633
1779997447810332200,5.502332275390625,344.1000061035156,-104.0250015258789,28.856250762939453
1779997447834593500,5.526593505859375,344.0812683105469,-104.00625610351562,28.837501525878906
1779997447857033700,5.54903369140625,344.04376220703125,-103.98750305175781,28.818750381469727
1779997447877640400,5.569640380859375,344.13751220703125,-103.96875762939453,28.781251907348633
1779997447896424000,5.588423828125,344.25,-103.96875762939453,28.781251907348633
1779997447913392600,5.605392578125,344.32501220703125,-103.96875762939453,28.762500762939453
1779997447928575200,5.6205751953125,344.4000244140625,-103.96875762939453,28.762500762939453
1779997447942023700,5.634023681640625,344.4375,-103.95000457763672,28.743751525878906
1779997447953803000,5.645802978515625,344.53125,-103.95000457763672,28.725000381469727
1779997447963963600,5.655963623046875,344.4937744140625,-103.96875762939453,28.70625114440918
1779997447979774500,5.6717744140625,344.6625061035156,-103.98750305175781,28.687501907348633
1779997447990253000,5.682253173828125,344.6625061035156,-104.00625610351562,28.668750762939453
1779997448005999900,5.697999755859375,344.2875061035156,-103.95000457763672,28.575000762939453
1779997448019196700,5.71119677734375,344.4750061035156,-103.91250610351562,28.687501907348633
1779997448030572500,5.722572509765625,344.6625061035156,-103.95000457763672,28.687501907348633
1779997448043964400,5.73596435546875,344.625,-103.96875762939453,28.650001525878906
1779997448059357200,5.751357177734375,344.3625183105469,-104.0250015258789,28.70625114440918
1779997448076621600,5.76862158203125,344.4937744140625,-104.00625610351562,28.70625114440918
1779997448095725300,5.787725341796875,344.5500183105469,-104.0250015258789,28.668750762939453
1779997448105955800,5.797955810546875,344.5500183105469,-104.04375457763672,28.631250381469727
1779997448116618500,5.808618408203125,344.53125,-104.04375457763672,28.650001525878906
1779997448127721500,5.819721435546875,344.41876220703125,-104.04375457763672,28.687501907348633
1779997448139203000,5.831203125,344.3062744140625,-104.04375457763672,28.687501907348633
1779997448151051800,5.8430517578125,344.2875061035156,-104.04375457763672,28.70625114440918
1779997448163975200,5.85597509765625,344.1937561035156,-104.0250015258789,28.668750762939453
1779997448182355700,5.874355712890625,344.1187744140625,-104.0250015258789,28.687501907348633
1779997448206896000,5.898896240234375,344.2125244140625,-104.0250015258789,28.668750762939453
1779997448231172000,5.923172119140625,344.1937561035156,-104.00625610351562,28.687501907348633
1779997448253615000,5.945614990234375,344.1750183105469,-104.00625610351562,28.668750762939453
1779997448274729500,5.9667294921875,344.0625,-103.98750305175781,28.650001525878906
1779997448294729500,5.9867294921875,344.0625,-104.0250015258789,28.631250381469727
1779997448314658600,6.006658447265625,344.15625,-104.04375457763672,28.631250381469727
1779997448334676500,6.026676513671875,344.15625,-104.04375457763672,28.593751907348633
1779997448354123800,6.046123779296875,344.1750183105469,-104.04375457763672,28.593751907348633
1779997448374038500,6.06603857421875,344.2125244140625,-104.0250015258789,28.631250381469727
1779997448393970700,6.085970703125,344.1750183105469,-104.00625610351562,28.631250381469727
1779997448414144800,6.106144775390625,344.23126220703125,-104.00625610351562,28.631250381469727
1779997448434235100,6.126235107421875,344.2125244140625,-104.00625610351562,28.631250381469727
1779997448453824800,6.14582470703125,343.95001220703125,-103.98750305175781,28.631250381469727
1779997448473850600,6.1658505859375,344.0250244140625,-103.98750305175781,28.61250114440918
1779997448493663500,6.18566357421875,343.9875183105469,-104.00625610351562,28.593751907348633
1779997448513580800,6.205580810546875,343.9312744140625,-104.0250015258789,28.593751907348633
1779997448533986800,6.22598681640625,344.0250244140625,-104.0250015258789,28.61250114440918
1779997448554023000,6.24602294921875,344.2125244140625,-104.00625610351562,28.61250114440918
1779997448573867800,6.26586767578125,344.3812561035156,-103.98750305175781,28.650001525878906
1779997448593658400,6.285658447265625,344.3625183105469,-103.96875762939453,28.650001525878906
1779997448613553400,6.305553466796875,344.4000244140625,-103.95000457763672,28.650001525878906
1779997448633709300,6.325709228515625,344.4000244140625,-103.96875762939453,28.631250381469727
1779997448721590500,6.413590576171875,344.4750061035156,-103.96875762939453,28.650001525878906
1779997448818164000,6.5101640625,344.71875,-104.00625610351562,28.61250114440918
1779997448912068600,6.604068603515625,322.0875244140625,-97.01250457763672,26.681251525878906
1779997449005948200,6.6979482421875,322.8000183105469,-97.01250457763672,26.662500381469727
1779997449052862700,6.74486279296875,322.76251220703125,-96.9937515258789,26.681251525878906
1779997449099746600,6.79174658203125,322.8187561035156,-97.01250457763672,26.681251525878906
1779997449146585600,6.838585693359375,322.6875,-97.01250457763672,26.700000762939453
1779997449193361400,6.885361328125,322.4625244140625,-97.03125762939453,26.700000762939453
1779997449240051500,6.932051513671875,322.3687744140625,-97.03125762939453,26.681251525878906
1779997449286628000,6.978628173828125,322.3687744140625,-97.01250457763672,26.700000762939453
1779997449333058800,7.025058837890625,322.3312683105469,-97.01250457763672,26.718751907348633
1779997449379305200,7.07130517578125,322.20001220703125,-97.01250457763672,26.756250381469727
1779997449425324000,7.117323974609375,321.9937744140625,-96.9937515258789,26.756250381469727
1779997449471065900,7.16306591796875,321.7875061035156,-96.97500610351562,26.756250381469727
1779997449516473300,7.208473388671875,321.5625,-96.95625305175781,26.756250381469727
1779997449561485800,7.25348583984375,344.4562683105469,-103.89375305175781,28.650001525878906
1779997449606033200,7.298033203125,344.2875061035156,-103.95000457763672,28.668750762939453
1779997449650042000,7.3420419921875,344.0062561035156,-103.96875762939453,28.668750762939453
1779997449693433900,7.385433837890625,343.6500244140625,-103.96875762939453,28.668750762939453
1779997449736122000,7.4281220703125,343.6875,-103.96875762939453,28.668750762939453
1779997449778017300,7.470017333984375,343.5375061035156,-103.96875762939453,28.668750762939453
1779997449819026400,7.5110263671875,343.6312561035156,-103.96875762939453,28.650001525878906
1779997449859049000,7.551049072265625,343.8375244140625,-103.96875762939453,28.631250381469727
1779997449897989600,7.58998974609375,343.9875183105469,-103.95000457763672,28.61250114440918
1779997449935749600,7.62774951171875,343.95001220703125,-103.96875762939453,28.575000762939453
1779997449972235000,7.664235107421875,343.9312744140625,-103.98750305175781,28.575000762939453
1779997450007347000,7.699346923828125,344.0812683105469,-103.98750305175781,28.575000762939453
1779997450040999200,7.732999267578125,344.13751220703125,-103.98750305175781,28.575000762939453
1779997450073093400,7.76509326171875,344.25,-103.98750305175781,28.575000762939453
1779997450103559200,7.79555908203125,344.32501220703125,-103.98750305175781,28.575000762939453
1779997450132328400,7.824328369140625,344.3625183105469,-103.98750305175781,28.575000762939453
1779997450159345400,7.851345458984375,344.32501220703125,-103.98750305175781,28.575000762939453
1779997450184557000,7.87655712890625,344.4000244140625,-103.98750305175781,28.575000762939453
1779997450207940000,7.899940185546875,344.4562683105469,-103.98750305175781,28.593751907348633
1779997450229461200,7.921461181640625,344.51251220703125,-103.98750305175781,28.61250114440918
1779997450249122000,7.9411220703125,344.51251220703125,-103.98750305175781,28.631250381469727
1779997450266932500,7.958932373046875,344.4562683105469,-103.96875762939453,28.631250381469727
1779997450282919000,7.9749189453125,344.4000244140625,-103.96875762939453,28.61250114440918
1779997450297124900,7.989124755859375,344.51251220703125,-103.96875762939453,28.61250114440918
1779997450309587500,8.00158740234375,344.60626220703125,-103.95000457763672,28.631250381469727
1779997450320389400,8.012389404296876,344.625,-103.95000457763672,28.631250381469727
1779997450337292500,8.02929248046875,344.3062744140625,-103.9312515258789,28.631250381469727
1779997450348586500,8.04058642578125,344.4375,-103.9312515258789,28.593751907348633
1779997450362030000,8.054030029296875,344.1750183105469,-103.98750305175781,28.650001525878906
1779997450372979500,8.0649794921875,343.9312744140625,-103.98750305175781,28.650001525878906
1779997450385977000,8.07797705078125,344.0812683105469,-103.98750305175781,28.61250114440918
1779997450400949800,8.09294970703125,344.23126220703125,-104.00625610351562,28.631250381469727
1779997450417891600,8.1098916015625,344.2687683105469,-104.04375457763672,28.650001525878906
1779997450436681500,8.128681396484374,344.25,-104.0250015258789,28.631250381469727
1779997450446744300,8.138744384765625,344.23126220703125,-104.0250015258789,28.631250381469727
1779997450457247500,8.14924755859375,344.2125244140625,-104.04375457763672,28.631250381469727
1779997450468179500,8.160179443359375,344.2687683105469,-104.0250015258789,28.668750762939453
1779997450479547400,8.17154736328125,344.32501220703125,-104.0250015258789,28.687501907348633
1779997450491275300,8.183275146484375,344.34375,-104.0250015258789,28.687501907348633
1779997450504072700,8.19607275390625,344.4562683105469,-104.00625610351562,28.687501907348633
1779997450522435000,8.21443505859375,344.53125,-104.00625610351562,28.687501907348633
1779997450546665700,8.238665771484374,344.4750061035156,-104.0250015258789,28.668750762939453
1779997450571252500,8.26325244140625,344.4750061035156,-104.0250015258789,28.687501907348633
1779997450593796600,8.285796630859375,344.41876220703125,-104.0250015258789,28.687501907348633
1779997450614829300,8.306829345703125,344.2875061035156,-104.00625610351562,28.687501907348633
1779997450634765300,8.326765380859374,344.25,-103.98750305175781,28.687501907348633
1779997450654696200,8.3466962890625,344.25,-103.98750305175781,28.668750762939453
1779997450674229000,8.36622900390625,344.2125244140625,-103.96875762939453,28.668750762939453
1779997450693874200,8.385874267578124,344.25,-103.96875762939453,28.668750762939453
1779997450713911600,8.40591162109375,344.32501220703125,-103.96875762939453,28.668750762939453
1779997450733736700,8.42573681640625,344.3625183105469,-103.95000457763672,28.70625114440918
1779997450753589500,8.445589599609375,344.4375,-103.95000457763672,28.70625114440918
1779997450773526800,8.46552685546875,344.3625183105469,-103.96875762939453,28.70625114440918
1779997450793505300,8.48550537109375,344.34375,-103.96875762939453,28.70625114440918
1779997450813511000,8.505510986328124,344.4937744140625,-103.98750305175781,28.70625114440918
1779997450833984300,8.525984375,344.6625061035156,-104.00625610351562,28.668750762939453
1779997450854010000,8.546010009765626,344.71875,-103.98750305175781,28.668750762939453
1779997450873961000,8.5659609375,344.71875,-103.96875762939453,28.687501907348633
1779997450893713000,8.585712890625,344.71875,-103.96875762939453,28.70625114440918
1779997450913822700,8.60582275390625,344.8687744140625,-103.96875762939453,28.725000381469727
1779997450933646800,8.625646728515624,344.88751220703125,-103.98750305175781,28.725000381469727
1779997450953549800,8.6455498046875,344.9625244140625,-103.96875762939453,28.725000381469727
1779997450973632800,8.6656328125,345.0562744140625,-104.0250015258789,28.70625114440918
1779997450993583000,8.6855830078125,344.9250183105469,-104.0250015258789,28.70625114440918
1779997451014018600,8.7060185546875,344.8500061035156,-104.0250015258789,28.70625114440918
1779997451033994200,8.725994140625,344.71875,-104.00625610351562,28.668750762939453
1779997451053747200,8.745747314453125,344.6625061035156,-104.00625610351562,28.650001525878906
1779997451073859600,8.765859619140626,344.6812744140625,-103.98750305175781,28.650001525878906
1779997451093720600,8.785720458984375,344.8687744140625,-103.96875762939453,28.650001525878906
1779997451113887200,8.80588720703125,344.8500061035156,-103.95000457763672,28.650001525878906
1779997451133697300,8.825697265625,344.7750244140625,-103.95000457763672,28.687501907348633
1779997451153586400,8.84558642578125,344.7750244140625,-103.95000457763672,28.70625114440918
1779997451173537800,8.865537841796876,344.8687744140625,-103.96875762939453,28.668750762939453
1779997451193525500,8.885525390625,344.8500061035156,-103.95000457763672,28.650001525878906
1779997451213523500,8.9055234375,344.7750244140625,-103.96875762939453,28.631250381469727
1779997451233736200,8.925736083984376,344.7562561035156,-103.95000457763672,28.631250381469727
1779997451253646300,8.945646240234375,344.79376220703125,-103.95000457763672,28.61250114440918
1779997451273856500,8.9658564453125,344.70001220703125,-103.9312515258789,28.61250114440918
1779997451293705500,8.98570556640625,344.70001220703125,-103.91250610351562,28.631250381469727
1779997451313609000,9.00560888671875,344.6625061035156,-103.91250610351562,28.61250114440918
1779997451334016500,9.0260166015625,344.6437683105469,-103.91250610351562,28.650001525878906
1779997451353930200,9.04593017578125,344.6812744140625,-103.91250610351562,28.650001525878906
1779997451373714200,9.065714111328125,344.625,-103.91250610351562,28.650001525878906
1779997451393591300,9.08559130859375,344.5687561035156,-103.91250610351562,28.631250381469727
1779997451413791500,9.10579150390625,344.32501220703125,-103.91250610351562,28.631250381469727
1779997451433913300,9.125913330078125,344.1750183105469,-103.91250610351562,28.61250114440918
1779997451453725400,9.145725341796876,344.15625,-103.89375305175781,28.61250114440918
1779997451473865200,9.165865234375,343.9125061035156,-103.87500762939453,28.593751907348633
1779997451493698800,9.18569873046875,343.875,-103.89375305175781,28.61250114440918
1779997451513592600,9.205592529296876,344.0625,-103.89375305175781,28.61250114440918
1779997451533806600,9.225806640625,344.13751220703125,-103.89375305175781,28.593751907348633
1779997451553815000,9.24581494140625,344.13751220703125,-103.89375305175781,28.593751907348633
1779997451573863700,9.26586376953125,344.1750183105469,-103.89375305175781,28.593751907348633
1779997451593675500,9.285675537109375,344.1750183105469,-103.89375305175781,28.575000762939453
1779997451613574400,9.305574462890625,344.1000061035156,-103.89375305175781,28.593751907348633
1779997451633990700,9.32599072265625,344.0812683105469,-103.91250610351562,28.593751907348633
1779997451654228000,9.34622802734375,344.1000061035156,-103.9312515258789,28.593751907348633
1779997451674095600,9.366095703125,344.34375,-103.9312515258789,28.575000762939453
1779997451693764400,9.385764404296875,344.32501220703125,-103.9312515258789,28.575000762939453
1779997451713585400,9.40558544921875,344.3812561035156,-103.95000457763672,28.556251525878906
1779997451733879000,9.425879150390625,344.4375,-103.95000457763672,28.556251525878906
1779997451753652000,9.44565185546875,344.3625183105469,-103.96875762939453,28.556251525878906
1779997451773826800,9.465826904296875,344.4937744140625,-103.96875762939453,28.575000762939453
1779997451794135300,9.48613525390625,344.51251220703125,-103.95000457763672,28.575000762939453
1779997451814083800,9.506083740234375,344.4750061035156,-103.95000457763672,28.556251525878906
1779997451833784800,9.525784912109375,344.51251220703125,-103.96875762939453,28.575000762939453
1779997451854001400,9.54600146484375,344.41876220703125,-103.96875762939453,28.556251525878906
1779997451874120000,9.566119873046874,344.625,-103.95000457763672,28.593751907348633
1779997451893806600,9.585806640625,344.7750244140625,-103.96875762939453,28.61250114440918
1779997451913876200,9.605876220703125,344.88751220703125,-103.98750305175781,28.593751907348633
1779997451933811000,9.62581103515625,345.0562744140625,-103.98750305175781,28.575000762939453
1779997451953834000,9.645833984375,345.0187683105469,-103.98750305175781,28.575000762939453
1779997451973900000,9.665900146484375,344.7750244140625,-103.98750305175781,28.593751907348633
1779997451993695500,9.685695556640624,344.79376220703125,-103.98750305175781,28.61250114440918
1779997452013574400,9.705574462890626,344.7562561035156,-103.95000457763672,28.650001525878906
1779997452033523200,9.725523193359376,344.6437683105469,-103.96875762939453,28.650001525878906
1779997452053517300,9.745517333984376,344.6812744140625,-103.98750305175781,28.631250381469727
1779997452073519000,9.76551904296875,344.7750244140625,-104.00625610351562,28.631250381469727
1779997452093530400,9.7855302734375,344.7750244140625,-104.00625610351562,28.631250381469727
1779997452113752800,9.8057529296875,344.6812744140625,-104.0250015258789,28.631250381469727
1779997452133667000,9.8256669921875,344.60626220703125,-104.0250015258789,28.631250381469727
1779997452153615000,9.845614990234376,344.5500183105469,-104.0250015258789,28.650001525878906
1779997452173840400,9.86584033203125,344.2687683105469,-104.0250015258789,28.631250381469727
1779997452193706500,9.88570654296875,344.1187744140625,-104.0250015258789,28.631250381469727
1779997452213884400,9.905884521484374,344.1937561035156,-104.00625610351562,28.631250381469727
1779997452233916400,9.92591650390625,344.1187744140625,-103.98750305175781,28.61250114440918
1779997452253709300,9.945709228515625,344.1187744140625,-103.98750305175781,28.61250114440918
1779997452273857800,9.96585791015625,344.2687683105469,-103.98750305175781,28.61250114440918
1779997452293944800,9.98594482421875,344.2125244140625,-104.00625610351562,28.61250114440918
1779997452313925000,10.005925048828125,344.2875061035156,-104.0250015258789,28.61250114440918
1779997452333702000,10.025701904296875,344.41876220703125,-104.0250015258789,28.61250114440918
1779997452353570300,10.0455703125,344.4750061035156,-104.00625610351562,28.61250114440918
1779997452373741300,10.0657412109375,344.4562683105469,-104.00625610351562,28.593751907348633
1779997452393622000,10.0856220703125,344.4562683105469,-104.0250015258789,28.575000762939453
1779997452413560300,10.105560302734375,344.32501220703125,-104.00625610351562,28.593751907348633
1779997452433540900,10.125540771484374,344.34375,-104.00625610351562,28.593751907348633
1779997452453533200,10.145533203125,344.4562683105469,-104.00625610351562,28.61250114440918
1779997452473802500,10.165802490234375,344.60626220703125,-104.00625610351562,28.61250114440918
1779997452494130700,10.186130615234376,344.6625061035156,-104.00625610351562,28.61250114440918
1779997452513847000,10.205846923828124,344.60626220703125,-104.0250015258789,28.61250114440918
1779997452533662000,10.225661865234375,344.5687561035156,-104.0250015258789,28.631250381469727
1779997452553852700,10.245852783203125,344.4375,-104.04375457763672,28.631250381469727
1779997452573707500,10.26570751953125,344.32501220703125,-104.0250015258789,28.650001525878906
1779997452593595100,10.28559521484375,344.3062744140625,-104.00625610351562,28.631250381469727
1779997452613921000,10.305921142578125,344.32501220703125,-104.00625610351562,28.631250381469727
1779997452633797000,10.325797119140624,344.4937744140625,-103.98750305175781,28.61250114440918
1779997452653645800,10.345645751953125,344.53125,-103.96875762939453,28.61250114440918
1779997452673830100,10.365830078125,344.5875244140625,-103.96875762939453,28.631250381469727
1779997452693673500,10.385673583984374,344.625,-103.95000457763672,28.650001525878906
1779997452713592300,10.40559228515625,344.7562561035156,-103.96875762939453,28.650001525878906
1779997452733547500,10.425547607421874,344.7375183105469,-103.96875762939453,28.650001525878906
1779997452753595100,10.44559521484375,344.6437683105469,-103.96875762939453,28.631250381469727
1779997452773574700,10.46557470703125,344.6625061035156,-103.96875762939453,28.61250114440918
1779997452793556700,10.485556640625,344.6625061035156,-103.96875762939453,28.61250114440918
1779997452813657000,10.505656982421876,344.71875,-103.95000457763672,28.61250114440918
1779997452833613800,10.52561376953125,344.8125,-103.96875762939453,28.593751907348633
1779997452853576400,10.545576416015624,344.98126220703125,-103.95000457763672,28.593751907348633
1779997452873821400,10.565821533203126,345.0375061035156,-103.96875762939453,28.575000762939453
1779997452893965600,10.585965576171875,345.16876220703125,-103.96875762939453,28.593751907348633
1779997452913961500,10.60596142578125,345.0562744140625,-103.96875762939453,28.556251525878906
1779997452933991200,10.6259912109375,345.0375061035156,-104.00625610351562,28.556251525878906
1779997452953785600,10.64578564453125,345.0187683105469,-104.0250015258789,28.575000762939453
1779997452973813200,10.665813232421876,344.9437561035156,-104.0250015258789,28.575000762939453
1779997452993892900,10.685892822265625,344.8687744140625,-104.04375457763672,28.575000762939453
1779997453013803000,10.705802978515624,344.8687744140625,-104.04375457763672,28.575000762939453
1779997453034097700,10.72609765625,344.9250183105469,-104.04375457763672,28.575000762939453
1779997453054061300,10.746061279296875,344.9250183105469,-104.04375457763672,28.556251525878906
1779997453073980400,10.76598046875,344.9250183105469,-104.04375457763672,28.575000762939453
1779997453093699600,10.785699462890625,345.0375061035156,-104.06250762939453,28.575000762939453
1779997453113555700,10.8055556640625,344.9437561035156,-104.06250762939453,28.575000762939453
1779997453133695500,10.825695556640625,344.7562561035156,-104.06250762939453,28.593751907348633
1779997453153597000,10.845596923828126,344.6812744140625,-104.06250762939453,28.61250114440918
1779997453173808400,10.865808349609376,344.6625061035156,-104.04375457763672,28.631250381469727
1779997453193668000,10.885668212890625,344.625,-104.04375457763672,28.61250114440918
1779997453213847600,10.90584765625,344.79376220703125,-104.04375457763672,28.61250114440918
1779997453233694000,10.92569384765625,344.7750244140625,-104.0250015258789,28.631250381469727
1779997453253599700,10.945599853515626,344.90625,-103.98750305175781,28.650001525878906
1779997453273820000,10.96581982421875,344.9250183105469,-103.98750305175781,28.631250381469727
1779997453293682200,10.98568212890625,345.09375,-103.95000457763672,28.650001525878906
1779997453313860900,11.00586083984375,344.9437561035156,-103.9312515258789,28.650001525878906
1779997453333704200,11.0257041015625,344.8125,-103.95000457763672,28.61250114440918
1779997453353599500,11.045599609375,344.7562561035156,-103.95000457763672,28.61250114440918
1779997453373811700,11.065811767578126,344.7562561035156,-103.96875762939453,28.61250114440918
1779997453393680600,11.0856806640625,344.6437683105469,-103.96875762939453,28.61250114440918
1779997453413591800,11.105591796875,344.5500183105469,-103.96875762939453,28.631250381469727
1779997453433558300,11.125558349609374,344.6812744140625,-103.98750305175781,28.61250114440918
1779997453453540900,11.145540771484375,344.60626220703125,-103.96875762939453,28.61250114440918
1779997453473795800,11.1657958984375,344.7375183105469,-103.96875762939453,28.61250114440918
1779997453493884400,11.185884521484375,344.7750244140625,-103.96875762939453,28.61250114440918
1779997453513910800,11.205910888671875,344.6812744140625,-103.96875762939453,28.61250114440918
1779997453533703000,11.225702880859375,344.70001220703125,-103.96875762939453,28.61250114440918
1779997453553851400,11.245851318359374,344.53125,-103.98750305175781,28.575000762939453
1779997453573846500,11.265846435546875,344.5687561035156,-103.96875762939453,28.593751907348633
1779997453593672000,11.285671875,344.4562683105469,-103.98750305175781,28.575000762939453
1779997453613577000,11.305576904296874,344.625,-104.00625610351562,28.575000762939453
1779997453633731000,11.32573095703125,344.70001220703125,-103.98750305175781,28.593751907348633
1779997453653882400,11.34588232421875,344.5875244140625,-103.98750305175781,28.593751907348633
1779997453673709000,11.365708984375,344.4750061035156,-103.96875762939453,28.593751907348633
1779997453693859000,11.385859130859375,344.3812561035156,-103.95000457763672,28.593751907348633
1779997453714034000,11.406033935546875,344.3812561035156,-103.95000457763672,28.575000762939453
1779997453733782500,11.425782470703124,344.41876220703125,-103.9312515258789,28.575000762939453
1779997453753627000,11.445626953125,344.4750061035156,-103.9312515258789,28.556251525878906
1779997453773697000,11.465697021484376,344.2687683105469,-103.95000457763672,28.537500381469727
1779997453793592800,11.4855927734375,344.1937561035156,-103.95000457763672,28.51875114440918
1779997453813874200,11.505874267578125,344.23126220703125,-103.95000457763672,28.537500381469727
1779997453833988000,11.525988037109375,343.9875183105469,-103.9312515258789,28.537500381469727
1779997453853743400,11.545743408203125,343.8187561035156,-103.91250610351562,28.556251525878906
1779997453873863200,11.56586328125,343.7062683105469,-103.91250610351562,28.537500381469727
1779997453893682400,11.585682373046875,343.85626220703125,-103.91250610351562,28.556251525878906
1779997453913573000,11.605572998046876,343.95001220703125,-103.91250610351562,28.556251525878906
1779997453933536800,11.625536865234375,344.1000061035156,-103.9312515258789,28.556251525878906
1779997453953708500,11.64570849609375,344.2687683105469,-103.9312515258789,28.556251525878906
1779997453973600300,11.665600341796875,344.1937561035156,-103.95000457763672,28.556251525878906
1779997453993572000,11.685572021484376,344.25,-103.9312515258789,28.556251525878906
1779997454013816600,11.705816650390625,344.2687683105469,-103.9312515258789,28.575000762939453
1779997454033696000,11.725696044921875,344.2687683105469,-103.9312515258789,28.556251525878906
1779997454053617000,11.745616943359375,344.25,-103.9312515258789,28.593751907348633
1779997454073828900,11.765828857421875,344.4375,-103.9312515258789,28.61250114440918
1779997454093712100,11.785712158203125,344.4375,-103.91250610351562,28.631250381469727
1779997454113880800,11.805880859375,344.34375,-103.91250610351562,28.650001525878906
1779997454134172200,11.826172119140624,344.34375,-103.9312515258789,28.650001525878906
1779997454153990100,11.845990234375,344.51251220703125,-103.9312515258789,28.631250381469727
1779997454173719300,11.86571923828125,344.6437683105469,-103.95000457763672,28.650001525878906
1779997454193827800,11.885827880859376,344.53125,-103.95000457763672,28.631250381469727
1779997454213870800,11.905870849609375,344.32501220703125,-103.9312515258789,28.631250381469727
1779997454233668000,11.925668212890624,344.13751220703125,-103.91250610351562,28.61250114440918
1779997454253560800,11.945560791015625,344.1187744140625,-103.91250610351562,28.631250381469727
1779997454273789000,11.965788818359375,344.3812561035156,-103.91250610351562,28.61250114440918
1779997454293646600,11.985646484375,344.4937744140625,-103.91250610351562,28.61250114440918
1779997454313568300,12.005568359375,344.71875,-103.9312515258789,28.631250381469727
1779997454333729800,12.025729736328126,344.6812744140625,-103.91250610351562,28.631250381469727
1779997454353621000,12.04562109375,344.71875,-103.9312515258789,28.631250381469727
1779997454373562000,12.06556201171875,344.8125,-103.96875762939453,28.61250114440918
1779997454393540600,12.08554052734375,344.8687744140625,-103.96875762939453,28.631250381469727
1779997454413997000,12.1059970703125,344.90625,-103.98750305175781,28.61250114440918
1779997454433984800,12.12598486328125,345,-103.98750305175781,28.61250114440918
1779997454454007800,12.1460078125,344.9250183105469,-103.98750305175781,28.575000762939453
1779997454473892600,12.165892578125,344.8312683105469,-103.98750305175781,28.556251525878906
1779997454493877500,12.18587744140625,344.8687744140625,-103.98750305175781,28.575000762939453
1779997454513919200,12.205919189453125,344.9625244140625,-104.00625610351562,28.556251525878906
1779997454533868500,12.22586865234375,345.0187683105469,-103.98750305175781,28.575000762939453
1779997454554195200,12.2461953125,345.0375061035156,-103.98750305175781,28.593751907348633
1779997454574205700,12.266205810546875,344.90625,-103.96875762939453,28.593751907348633
1779997454593817600,12.285817626953126,344.7562561035156,-103.96875762939453,28.593751907348633
1779997454613606100,12.305606201171875,344.70001220703125,-103.96875762939453,28.575000762939453
1779997454633504500,12.32550439453125,344.70001220703125,-103.96875762939453,28.593751907348633
1779997454653606000,12.34560595703125,344.7562561035156,-103.95000457763672,28.575000762939453
1779997454673562000,12.36556201171875,344.625,-103.95000457763672,28.556251525878906
1779997454693545700,12.385545654296875,344.5875244140625,-103.95000457763672,28.556251525878906
1779997454713789000,12.405788818359374,344.60626220703125,-103.95000457763672,28.556251525878906
1779997454733682400,12.425682373046875,344.71875,-103.95000457763672,28.556251525878906
1779997454753609700,12.445609619140624,344.7375183105469,-103.96875762939453,28.593751907348633
1779997454773824800,12.46582470703125,344.70001220703125,-103.98750305175781,28.631250381469727
1779997454793734400,12.485734375,344.7562561035156,-103.96875762939453,28.650001525878906
1779997454814092500,12.506092529296875,344.6437683105469,-103.95000457763672,28.650001525878906
1779997454834082300,12.526082275390625,344.60626220703125,-103.95000457763672,28.631250381469727
1779997454853928000,12.545927978515625,344.53125,-103.95000457763672,28.593751907348633
1779997454874147800,12.56614794921875,344.4562683105469,-103.96875762939453,28.593751907348633
1779997454894270500,12.5862705078125,344.4562683105469,-103.95000457763672,28.593751907348633
1779997454914068200,12.606068115234375,344.3625183105469,-103.95000457763672,28.593751907348633
1779997454933727700,12.625727783203125,344.3625183105469,-103.95000457763672,28.575000762939453
1779997454953544400,12.64554443359375,344.3062744140625,-103.95000457763672,28.575000762939453
1779997454973748000,12.665748046875,344.1750183105469,-103.9312515258789,28.575000762939453
1779997454993806300,12.685806396484375,344.2125244140625,-103.91250610351562,28.575000762939453
1779997455014104600,12.7061044921875,344.25,-103.91250610351562,28.575000762939453
1779997455034064100,12.726064208984376,344.1187744140625,-103.89375305175781,28.61250114440918
1779997455054018600,12.7460185546875,344.1750183105469,-103.89375305175781,28.631250381469727
1779997455073724400,12.765724365234375,344.1750183105469,-103.89375305175781,28.593751907348633
1779997455094031600,12.786031494140625,344.1187744140625,-103.91250610351562,28.575000762939453
1779997455113753300,12.80575341796875,344.2125244140625,-103.89375305175781,28.593751907348633
1779997455133789400,12.82578955078125,344.2687683105469,-103.91250610351562,28.575000762939453
1779997455153889500,12.8458896484375,344.2875061035156,-103.91250610351562,28.61250114440918
1779997455173687800,12.865687744140626,344.4000244140625,-103.91250610351562,28.631250381469727
1779997455193577000,12.885576904296874,344.4000244140625,-103.9312515258789,28.631250381469727
1779997455213909000,12.905908935546876,344.25,-103.9312515258789,28.631250381469727
1779997455233826800,12.925826904296875,344.15625,-103.91250610351562,28.650001525878906
1779997455253663700,12.945663818359375,344.1937561035156,-103.91250610351562,28.650001525878906
1779997455273840400,12.96584033203125,344.2875061035156,-103.9312515258789,28.668750762939453
1779997455293679900,12.985679931640625,344.2687683105469,-103.9312515258789,28.650001525878906
1779997455313586000,13.0055859375,344.3625183105469,-103.9312515258789,28.668750762939453
1779997455334000000,13.026000244140626,344.4937744140625,-103.9312515258789,28.687501907348633
1779997455353972200,13.04597216796875,344.4562683105469,-103.95000457763672,28.668750762939453
1779997455373945600,13.065945556640624,344.53125,-103.91250610351562,28.668750762939453
1779997455393698300,13.0856982421875,344.51251220703125,-103.91250610351562,28.668750762939453
1779997455413698600,13.105698486328125,344.4375,-103.91250610351562,28.650001525878906
1779997455433591800,13.125591796875,344.4937744140625,-103.9312515258789,28.668750762939453
1779997455453537800,13.145537841796875,344.6437683105469,-103.95000457763672,28.650001525878906
1779997455473777700,13.165777587890625,344.60626220703125,-103.95000457763672,28.650001525878906
1779997455493663000,13.1856630859375,344.6625061035156,-103.9312515258789,28.668750762939453
1779997455513856500,13.2058564453125,344.8125,-103.91250610351562,28.687501907348633
1779997455533704700,13.22570458984375,344.8312683105469,-103.9312515258789,28.687501907348633
1779997455553931500,13.245931640625,344.98126220703125,-103.95000457763672,28.687501907348633
1779997455574200600,13.26620068359375,344.98126220703125,-103.95000457763672,28.668750762939453
1779997455594055000,13.286054931640624,344.7750244140625,-103.95000457763672,28.650001525878906
1779997455613866200,13.3058662109375,344.625,-103.95000457763672,28.631250381469727
1779997455633632000,13.325632080078124,344.6625061035156,-103.96875762939453,28.61250114440918
1779997455653519600,13.34551953125,344.70001220703125,-103.96875762939453,28.593751907348633
1779997455673680000,13.365679931640624,344.5687561035156,-103.98750305175781,28.575000762939453
1779997455693581800,13.385581787109375,344.5875244140625,-103.96875762939453,28.575000762939453
1779997455713547500,13.405547607421875,344.6437683105469,-103.98750305175781,28.575000762939453
1779997455733735200,13.425735107421875,344.60626220703125,-103.96875762939453,28.575000762939453
1779997455753627600,13.445627685546874,344.5875244140625,-103.96875762939453,28.575000762939453
1779997455773577200,13.4655771484375,344.60626220703125,-103.98750305175781,28.575000762939453
1779997455793923600,13.485923583984375,344.60626220703125,-103.98750305175781,28.575000762939453
1779997455813980400,13.50598046875,344.60626220703125,-104.0250015258789,28.575000762939453
1779997455833760000,13.525760009765625,344.7375183105469,-104.0250015258789,28.556251525878906
1779997455853890300,13.545890380859374,344.5500183105469,-104.00625610351562,28.537500381469727
1779997455873690000,13.565690185546876,344.4375,-104.00625610351562,28.537500381469727
1779997455893585000,13.5855849609375,344.5687561035156,-103.98750305175781,28.575000762939453
1779997455913538300,13.605538330078126,344.51251220703125,-103.98750305175781,28.556251525878906
1779997455933530000,13.625530029296876,344.3812561035156,-103.96875762939453,28.556251525878906
1779997455953530400,13.6455302734375,344.4937744140625,-103.96875762939453,28.556251525878906
1779997455973538800,13.665538818359375,344.60626220703125,-103.98750305175781,28.556251525878906
1779997455993552100,13.68555224609375,344.6812744140625,-103.98750305175781,28.575000762939453
1779997456013554200,13.70555419921875,344.8312683105469,-103.98750305175781,28.575000762939453
1779997456034023700,13.726023681640624,344.71875,-103.96875762939453,28.575000762939453
1779997456054012700,13.7460126953125,344.60626220703125,-103.96875762939453,28.575000762939453
1779997456074022000,13.76602197265625,344.5500183105469,-103.96875762939453,28.593751907348633
1779997456094220500,13.786220458984374,344.4750061035156,-104.00625610351562,28.556251525878906
1779997456114097700,13.80609765625,344.4562683105469,-103.98750305175781,28.593751907348633
1779997456134284000,13.826283935546876,344.51251220703125,-103.98750305175781,28.593751907348633
1779997456154120000,13.846119873046876,344.4937744140625,-103.98750305175781,28.61250114440918
1779997456174153000,13.866153076171875,344.4375,-103.98750305175781,28.668750762939453
1779997456193757400,13.88575732421875,344.4937744140625,-104.0250015258789,28.668750762939453
1779997456213816600,13.905816650390625,344.53125,-104.0250015258789,28.687501907348633
1779997456234166500,13.92616650390625,344.4937744140625,-104.0250015258789,28.725000381469727
1779997456253810400,13.945810546875,344.4562683105469,-104.00625610351562,28.743751525878906
1779997456274080300,13.966080322265626,344.41876220703125,-104.00625610351562,28.781251907348633
1779997456293765400,13.985765380859375,344.1750183105469,-103.98750305175781,28.781251907348633
1779997456313619000,14.005618896484375,344.0625,-103.98750305175781,28.781251907348633
1779997456333529600,14.025529541015626,344.15625,-104.0250015258789,28.781251907348633
1779997456353495600,14.04549560546875,344.1937561035156,-104.0250015258789,28.781251907348633
1779997456373659600,14.06565966796875,344.2125244140625,-104.00625610351562,28.80000114440918
1779997456393598700,14.0855986328125,344.25,-103.98750305175781,28.80000114440918
1779997456413557800,14.105557861328125,344.3812561035156,-104.00625610351562,28.781251907348633
1779997456433756200,14.125756103515625,344.32501220703125,-104.00625610351562,28.781251907348633
1779997456453913900,14.145913818359375,344.4375,-104.00625610351562,28.781251907348633
1779997456473725200,14.16572509765625,344.6437683105469,-103.98750305175781,28.743751525878906
1779997456493668400,14.18566845703125,344.5500183105469,-103.98750305175781,28.725000381469727
1779997456513584000,14.205584228515624,344.71875,-103.96875762939453,28.70625114440918
1779997456533545000,14.225544921875,344.79376220703125,-103.98750305175781,28.668750762939453
1779997456553767200,14.24576708984375,344.71875,-103.98750305175781,28.668750762939453
1779997456573935600,14.265935546875,344.70001220703125,-103.96875762939453,28.650001525878906
1779997456594214000,14.2862138671875,344.8500061035156,-103.96875762939453,28.668750762939453
1779997456614343400,14.306343505859376,344.7750244140625,-103.95000457763672,28.668750762939453
1779997456633923600,14.325923583984375,344.7750244140625,-103.9312515258789,28.668750762939453
1779997456653916200,14.345916259765625,344.8125,-103.9312515258789,28.650001525878906
1779997456673934800,14.365934814453125,344.88751220703125,-103.9312515258789,28.631250381469727
1779997456693685800,14.385685791015625,345.0187683105469,-103.9312515258789,28.631250381469727
1779997456713565200,14.405565185546875,344.9437561035156,-103.91250610351562,28.61250114440918
1779997456733510700,14.4255107421875,344.8312683105469,-103.91250610351562,28.593751907348633
1779997456753700000,14.4457001953125,344.8687744140625,-103.91250610351562,28.61250114440918
1779997456773617700,14.46561767578125,344.8312683105469,-103.9312515258789,28.593751907348633
1779997456793584400,14.48558447265625,344.8312683105469,-103.91250610351562,28.575000762939453
1779997456813791000,14.505791015625,344.7750244140625,-103.9312515258789,28.593751907348633
1779997456833870300,14.525870361328124,344.71875,-103.91250610351562,28.593751907348633
1779997456853950500,14.545950439453126,344.625,-103.89375305175781,28.575000762939453
1779997456874052000,14.566052001953125,344.5875244140625,-103.91250610351562,28.593751907348633
1779997456893768200,14.585768310546875,344.4750061035156,-103.9312515258789,28.575000762939453
1779997456913595400,14.605595458984375,344.4750061035156,-103.95000457763672,28.556251525878906
1779997456933719300,14.62571923828125,344.4937744140625,-103.9312515258789,28.593751907348633
1779997456953599700,14.645599853515625,344.4937744140625,-103.9312515258789,28.593751907348633
1779997456973543200,14.665543212890626,344.32501220703125,-103.9312515258789,28.631250381469727
1779997456993529600,14.685529541015624,344.3062744140625,-103.95000457763672,28.650001525878906
1779997457013848800,14.705848876953125,344.25,-103.96875762939453,28.650001525878906
1779997457033915000,14.725914794921875,344.3812561035156,-103.96875762939453,28.650001525878906
1779997457053988400,14.74598828125,344.3625183105469,-103.96875762939453,28.631250381469727
1779997457073891000,14.76589111328125,344.2687683105469,-103.95000457763672,28.668750762939453
1779997457093941000,14.78594091796875,344.2875061035156,-103.95000457763672,28.687501907348633
1779997457114010400,14.80601025390625,344.2687683105469,-103.95000457763672,28.687501907348633
1779997457133973500,14.825973388671875,344.34375,-103.96875762939453,28.687501907348633
1779997457153716500,14.845716552734375,344.3812561035156,-103.98750305175781,28.70625114440918
1779997457173834200,14.865834228515626,344.4562683105469,-103.98750305175781,28.70625114440918
1779997457193650200,14.885650146484375,344.6625061035156,-103.98750305175781,28.687501907348633
1779997457213828000,14.905828125,344.79376220703125,-103.96875762939453,28.70625114440918
1779997457233672000,14.925671875,344.8312683105469,-103.98750305175781,28.668750762939453
1779997457253700000,14.9457001953125,344.71875,-104.00625610351562,28.650001525878906
1779997457273874700,14.965874755859375,344.7750244140625,-104.00625610351562,28.650001525878906
1779997457294171000,14.9861708984375,344.70001220703125,-103.98750305175781,28.631250381469727
1779997457314316000,15.00631591796875,344.7750244140625,-103.98750305175781,28.631250381469727
1779997457334165200,15.026165283203126,344.625,-103.96875762939453,28.650001525878906
1779997457354257400,15.04625732421875,344.51251220703125,-103.98750305175781,28.650001525878906
1779997457374298400,15.06629833984375,344.4937744140625,-104.00625610351562,28.668750762939453
1779997457394143200,15.086143310546875,344.53125,-104.0250015258789,28.650001525878906
1779997457413753600,15.105753662109375,344.5687561035156,-104.04375457763672,28.650001525878906
1779997457433750500,15.12575048828125,344.4750061035156,-104.0250015258789,28.650001525878906
1779997457453572600,15.145572509765625,344.51251220703125,-104.0250015258789,28.631250381469727
1779997457473755400,15.16575537109375,344.5500183105469,-104.0250015258789,28.61250114440918
1779997457493886700,15.18588671875,344.5500183105469,-104.0250015258789,28.631250381469727
1779997457513906700,15.20590673828125,344.4000244140625,-104.0250015258789,28.631250381469727
1779997457533899000,15.22589892578125,344.3812561035156,-104.0250015258789,28.650001525878906
1779997457554228000,15.24622802734375,344.4562683105469,-104.00625610351562,28.668750762939453
1779997457574055700,15.2660556640625,344.5500183105469,-104.00625610351562,28.668750762939453
1779997457593732000,15.285732177734374,344.5687561035156,-104.00625610351562,28.687501907348633
1779997457613826000,15.305825927734375,344.4562683105469,-103.98750305175781,28.687501907348633
1779997457633989000,15.325989013671874,344.5500183105469,-103.98750305175781,28.668750762939453
1779997457653989600,15.34598974609375,344.60626220703125,-103.96875762939453,28.668750762939453
1779997457673993000,15.365992919921876,344.7562561035156,-103.95000457763672,28.650001525878906
1779997457694189600,15.386189453125,344.6625061035156,-103.91250610351562,28.650001525878906
1779997457713823200,15.4058232421875,344.4937744140625,-103.89375305175781,28.650001525878906
1779997457734078200,15.426078125,344.51251220703125,-103.91250610351562,28.650001525878906
1779997457754231000,15.44623095703125,344.4562683105469,-103.91250610351562,28.631250381469727
1779997457773841400,15.46584130859375,344.53125,-103.9312515258789,28.650001525878906
1779997457793609500,15.485609375,344.41876220703125,-103.91250610351562,28.631250381469727
1779997457813505800,15.505505859375,344.3812561035156,-103.9312515258789,28.593751907348633
1779997457833606100,15.525606201171875,344.3062744140625,-103.91250610351562,28.575000762939453
1779997457853811700,15.545811767578124,344.23126220703125,-103.9312515258789,28.593751907348633
1779997457874141400,15.566141357421875,344.1000061035156,-103.9312515258789,28.593751907348633
1779997457894046500,15.58604638671875,344.1187744140625,-103.9312515258789,28.593751907348633
1779997457913748000,15.605748046875,344.2125244140625,-103.91250610351562,28.575000762939453
1779997457933581000,15.6255810546875,344.1750183105469,-103.9312515258789,28.575000762939453
1779997457953718500,15.645718505859374,344.1750183105469,-103.9312515258789,28.556251525878906
1779997457973592800,15.6655927734375,344.2125244140625,-103.95000457763672,28.575000762939453
1779997457993544000,15.6855439453125,344.2125244140625,-103.96875762939453,28.575000762939453
1779997458013697500,15.705697509765624,344.2125244140625,-103.96875762939453,28.575000762939453
1779997458033895200,15.725895263671875,344.1750183105469,-103.95000457763672,28.593751907348633
1779997458053996800,15.745996826171876,344.2125244140625,-103.95000457763672,28.593751907348633
1779997458074232600,15.766232666015625,344.2125244140625,-103.9312515258789,28.593751907348633
1779997458094135800,15.7861357421875,344.2875061035156,-103.95000457763672,28.61250114440918
1779997458114063600,15.806063720703126,344.4937744140625,-103.95000457763672,28.631250381469727
1779997458134010400,15.82601025390625,344.5875244140625,-103.95000457763672,28.650001525878906
1779997458153733000,15.845733154296875,344.70001220703125,-103.9312515258789,28.631250381469727
1779997458173837000,15.865837158203124,344.8125,-103.95000457763672,28.631250381469727
1779997458194113000,15.886113037109375,344.70001220703125,-103.9312515258789,28.631250381469727
1779997458213928000,15.905927978515624,344.71875,-103.95000457763672,28.631250381469727
1779997458233677600,15.925677490234374,344.625,-103.9312515258789,28.650001525878906
1779997458253548800,15.945548828125,344.5687561035156,-103.9312515258789,28.668750762939453
1779997458273707800,15.965707763671874,344.41876220703125,-103.9312515258789,28.668750762939453
1779997458293597000,15.985596923828124,344.53125,-103.95000457763672,28.650001525878906
1779997458313544000,16.0055439453125,344.70001220703125,-103.96875762939453,28.650001525878906
1779997458333771500,16.025771484375,344.79376220703125,-103.95000457763672,28.650001525878906
1779997458353913600,16.04591357421875,344.79376220703125,-103.95000457763672,28.650001525878906
1779997458373726200,16.065726318359374,344.5875244140625,-103.96875762939453,28.668750762939453
1779997458393819600,16.085819580078127,344.5500183105469,-103.98750305175781,28.668750762939453
1779997458413656800,16.10565673828125,344.4937744140625,-103.96875762939453,28.650001525878906
1779997458433773300,16.125773193359375,344.4562683105469,-103.96875762939453,28.631250381469727
1779997458453900800,16.14590087890625,344.4375,-103.96875762939453,28.631250381469727
1779997458473713200,16.165713134765625,344.5500183105469,-103.95000457763672,28.650001525878906
1779997458493603300,16.185603271484375,344.88751220703125,-103.95000457763672,28.668750762939453
1779997458513897500,16.2058974609375,344.9250183105469,-103.95000457763672,28.668750762939453
1779997458533761000,16.225760986328126,345.09375,-103.98750305175781,28.687501907348633
1779997458553635000,16.245635009765625,345.1500244140625,-103.96875762939453,28.668750762939453
1779997458573823500,16.265823486328124,345.3000183105469,-103.95000457763672,28.668750762939453
1779997458593669000,16.285669189453124,345.375,-103.9312515258789,28.687501907348633
1779997458613588500,16.30558837890625,345.3937683105469,-103.9312515258789,28.687501907348633
1779997458633542700,16.325542724609374,345.46875,-103.95000457763672,28.70625114440918
1779997458653792500,16.34579248046875,345.45001220703125,-103.9312515258789,28.70625114440918
1779997458674147600,16.366147705078124,345.6000061035156,-103.9312515258789,28.70625114440918
1779997458694314200,16.386314208984373,345.7125244140625,-103.9312515258789,28.725000381469727
1779997458714213000,16.406213134765625,345.7125244140625,-103.91250610351562,28.743751525878906
1779997458733814800,16.425814697265626,345.73126220703125,-103.91250610351562,28.743751525878906
1779997458753583600,16.44558349609375,345.65625,-103.91250610351562,28.743751525878906
1779997458773927700,16.465927734375,345.5250244140625,-103.9312515258789,28.70625114440918
1779997458793701600,16.48570166015625,345.28125,-103.91250610351562,28.687501907348633
1779997458813840000,16.50583984375,345.1875,-103.91250610351562,28.687501907348633
1779997458833673500,16.525673583984375,345.1500244140625,-103.89375305175781,28.650001525878906
1779997458853607400,16.545607421875,345.1125183105469,-103.9312515258789,28.668750762939453
1779997458874012400,16.566012451171876,344.98126220703125,-103.9312515258789,28.650001525878906
1779997458894243000,16.5862431640625,344.79376220703125,-103.9312515258789,28.650001525878906
1779997458913934800,16.605934814453125,344.71875,-103.95000457763672,28.668750762939453
1779997458933877500,16.62587744140625,344.6812744140625,-103.9312515258789,28.650001525878906
1779997458953909500,16.645909423828126,344.5687561035156,-103.9312515258789,28.650001525878906
1779997458973875200,16.665875244140626,344.4750061035156,-103.91250610351562,28.668750762939453
1779997458994115600,16.686115478515624,344.3812561035156,-103.91250610351562,28.650001525878906
1779997459014253600,16.706253662109376,344.23126220703125,-103.91250610351562,28.668750762939453
1779997459034059800,16.726059814453127,344.23126220703125,-103.9312515258789,28.668750762939453
1779997459053723400,16.745723388671873,344.2875061035156,-103.95000457763672,28.668750762939453
1779997459074008800,16.7660087890625,344.15625,-103.9312515258789,28.70625114440918
1779997459094024000,16.78602392578125,344.1750183105469,-103.95000457763672,28.70625114440918
1779997459113728500,16.805728515625,344.1750183105469,-103.95000457763672,28.70625114440918
1779997459134028000,16.826028076171873,344.1000061035156,-103.95000457763672,28.725000381469727
1779997459154209800,16.846209716796874,344.2125244140625,-103.9312515258789,28.725000381469727
1779997459173836000,16.8658359375,344.1187744140625,-103.9312515258789,28.725000381469727
1779997459193618400,16.885618408203126,344.2687683105469,-103.95000457763672,28.70625114440918
1779997459213785000,16.90578515625,344.32501220703125,-103.95000457763672,28.70625114440918
1779997459233688000,16.92568798828125,344.25,-103.96875762939453,28.70625114440918
1779997459253787000,16.945786865234375,344.41876220703125,-103.95000457763672,28.70625114440918
1779997459273906200,16.96590625,344.4562683105469,-103.95000457763672,28.70625114440918
1779997459293706000,16.9857060546875,344.34375,-103.95000457763672,28.70625114440918
1779997459314056000,17.006055908203123,344.4000244140625,-103.9312515258789,28.687501907348633
1779997459334052000,17.026052001953126,344.3625183105469,-103.9312515258789,28.687501907348633
1779997459354003000,17.0460029296875,344.2875061035156,-103.9312515258789,28.70625114440918
1779997459373920500,17.06592041015625,344.41876220703125,-103.91250610351562,28.687501907348633
1779997459393669000,17.085669189453125,344.32501220703125,-103.89375305175781,28.687501907348633
1779997459413823200,17.1058232421875,344.4375,-103.91250610351562,28.70625114440918
1779997459433642500,17.125642578125,344.53125,-103.91250610351562,28.70625114440918
1779997459453544700,17.145544677734375,344.3812561035156,-103.91250610351562,28.70625114440918
1779997459473647400,17.1656474609375,344.4562683105469,-103.9312515258789,28.725000381469727
1779997459493590300,17.18559033203125,344.2687683105469,-103.91250610351562,28.687501907348633
1779997459513554400,17.205554443359375,344.1937561035156,-103.91250610351562,28.687501907348633
1779997459533543700,17.225543701171876,344.34375,-103.91250610351562,28.687501907348633
1779997459553547500,17.245547607421877,344.32501220703125,-103.91250610351562,28.70625114440918
1779997459573546500,17.26554638671875,344.2875061035156,-103.91250610351562,28.70625114440918
1779997459593813500,17.2858134765625,344.3812561035156,-103.91250610351562,28.70625114440918
1779997459613704200,17.3057041015625,344.4750061035156,-103.9312515258789,28.70625114440918
1779997459634118000,17.326117919921874,344.53125,-103.9312515258789,28.70625114440918
1779997459654100000,17.346099853515625,344.6625061035156,-103.91250610351562,28.70625114440918
1779997459673912000,17.365912109375,344.70001220703125,-103.91250610351562,28.687501907348633
1779997459693874200,17.385874267578124,344.7375183105469,-103.91250610351562,28.70625114440918
1779997459714114300,17.4061142578125,344.5875244140625,-103.91250610351562,28.687501907348633
1779997459733989600,17.42598974609375,344.5875244140625,-103.89375305175781,28.70625114440918
1779997459753692700,17.445692626953125,344.71875,-103.89375305175781,28.70625114440918
1779997459773752800,17.4657529296875,344.8125,-103.89375305175781,28.70625114440918
1779997459793592000,17.485592041015625,344.8687744140625,-103.85625457763672,28.70625114440918
1779997459813520600,17.505520751953124,344.9625244140625,-103.85625457763672,28.70625114440918
1779997459833505300,17.52550537109375,344.9250183105469,-103.87500762939453,28.70625114440918
1779997459853669600,17.545669677734374,344.90625,-103.87500762939453,28.668750762939453
1779997459873621200,17.565621337890626,344.98126220703125,-103.87500762939453,28.650001525878906
1779997459893584400,17.58558447265625,344.9250183105469,-103.85625457763672,28.650001525878906
1779997459913820200,17.605820068359375,344.9250183105469,-103.8375015258789,28.650001525878906
1779997459933948700,17.62594873046875,344.9250183105469,-103.8375015258789,28.650001525878906
1779997459953754600,17.645754638671875,344.90625,-103.8375015258789,28.631250381469727
1779997459973884400,17.665884521484376,344.88751220703125,-103.85625457763672,28.61250114440918
1779997459993709600,17.68570947265625,344.8125,-103.85625457763672,28.593751907348633
1779997460013596700,17.7055966796875,344.7750244140625,-103.85625457763672,28.593751907348633
1779997460033543000,17.72554296875,344.70001220703125,-103.87500762939453,28.575000762939453
1779997460053655800,17.74565576171875,344.625,-103.89375305175781,28.575000762939453
1779997460074053400,17.766053466796876,344.4750061035156,-103.89375305175781,28.575000762939453
1779997460094268200,17.78626806640625,344.4375,-103.91250610351562,28.575000762939453
1779997460114084900,17.8060849609375,344.2875061035156,-103.91250610351562,28.575000762939453
1779997460134012200,17.82601220703125,344.1750183105469,-103.89375305175781,28.556251525878906
1779997460154180000,17.84618017578125,344.23126220703125,-103.89375305175781,28.575000762939453
1779997460174051800,17.8660517578125,344.32501220703125,-103.9312515258789,28.593751907348633
1779997460193713200,17.885713134765624,344.4375,-103.9312515258789,28.631250381469727
1779997460213802000,17.905802001953123,344.4000244140625,-103.9312515258789,28.631250381469727
1779997460234105600,17.926105712890624,344.4562683105469,-103.9312515258789,28.631250381469727
1779997460253766100,17.94576611328125,344.3625183105469,-103.95000457763672,28.650001525878906
1779997460273598200,17.96559814453125,344.3062744140625,-103.96875762939453,28.668750762939453
1779997460293847600,17.98584765625,344.4000244140625,-103.96875762939453,28.687501907348633
1779997460313672700,18.005672607421875,344.5875244140625,-103.95000457763672,28.70625114440918
1779997460333583000,18.0255830078125,344.6437683105469,-103.9312515258789,28.725000381469727
1779997460353553700,18.0455537109375,344.6812744140625,-103.91250610351562,28.725000381469727
1779997460373554200,18.06555419921875,344.7750244140625,-103.91250610351562,28.70625114440918
1779997460393545000,18.085544921875,344.7562561035156,-103.9312515258789,28.70625114440918
1779997460413538300,18.105538330078126,344.79376220703125,-103.9312515258789,28.70625114440918
1779997460433699800,18.125699951171875,344.79376220703125,-103.9312515258789,28.725000381469727
1779997460453628000,18.1456279296875,344.7375183105469,-103.91250610351562,28.725000381469727
1779997460473847600,18.16584765625,344.5875244140625,-103.91250610351562,28.687501907348633
1779997460493712000,18.1857119140625,344.4375,-103.91250610351562,28.687501907348633
1779997460513614300,18.2056142578125,344.4937744140625,-103.9312515258789,28.687501907348633
1779997460534028800,18.22602880859375,344.34375,-103.95000457763672,28.668750762939453
1779997460554035000,18.246034912109376,344.3812561035156,-103.95000457763672,28.668750762939453
1779997460573759000,18.265759033203125,344.3812561035156,-103.95000457763672,28.668750762939453
1779997460593862700,18.285862548828124,344.34375,-103.95000457763672,28.668750762939453
1779997460613910500,18.30591064453125,344.2875061035156,-103.96875762939453,28.650001525878906
1779997460633705200,18.325705322265627,344.23126220703125,-104.00625610351562,28.61250114440918
1779997460653579800,18.345579833984374,344.1937561035156,-104.0250015258789,28.61250114440918
1779997460673791200,18.365791259765626,344.23126220703125,-104.0250015258789,28.61250114440918
1779997460693655600,18.385655517578126,344.2875061035156,-104.0250015258789,28.61250114440918
1779997460713851400,18.405851318359375,344.25,-104.0250015258789,28.631250381469727
1779997460733898500,18.4258984375,344.2875061035156,-104.0250015258789,28.631250381469727
1779997460753702100,18.4457021484375,344.41876220703125,-104.04375457763672,28.631250381469727
1779997460773856000,18.46585595703125,344.4937744140625,-104.04375457763672,28.631250381469727
1779997460794148600,18.486148681640625,344.53125,-104.04375457763672,28.631250381469727
1779997460814020000,18.50602001953125,344.4750061035156,-104.0250015258789,28.61250114440918
1779997460833735200,18.525735107421873,344.6437683105469,-104.0250015258789,28.631250381469727
1779997460853571000,18.545571044921875,344.6625061035156,-104.00625610351562,28.61250114440918
1779997460873739800,18.56573974609375,344.70001220703125,-104.00625610351562,28.61250114440918
1779997460893614600,18.585614501953124,344.8687744140625,-103.98750305175781,28.593751907348633
1779997460913543400,18.60554345703125,344.8125,-104.00625610351562,28.593751907348633
1779997460933721300,18.625721435546875,344.90625,-103.98750305175781,28.61250114440918
1779997460953623600,18.64562353515625,345.07501220703125,-103.98750305175781,28.61250114440918
1779997460973560600,18.665560546875,345.1312561035156,-103.98750305175781,28.631250381469727
1779997460993545500,18.68554541015625,345.2062683105469,-103.98750305175781,28.631250381469727
1779997461013801700,18.7058017578125,345.3187561035156,-103.98750305175781,28.650001525878906
1779997461033891300,18.725891357421876,345.2062683105469,-103.98750305175781,28.631250381469727
1779997461053980200,18.745980224609376,345.07501220703125,-104.00625610351562,28.631250381469727
1779997461073784600,18.76578466796875,345.0562744140625,-104.00625610351562,28.61250114440918
1779997461093627000,18.785626953125,345.1500244140625,-104.00625610351562,28.61250114440918
1779997461113564000,18.80556396484375,345.0375061035156,-104.00625610351562,28.61250114440918
1779997461133596700,18.8255966796875,344.8687744140625,-104.0250015258789,28.61250114440918
1779997461153564200,18.845564208984374,344.88751220703125,-104.0250015258789,28.61250114440918
1779997461173810000,18.865809814453126,344.9437561035156,-104.0250015258789,28.631250381469727
1779997461193683500,18.885683349609376,344.8500061035156,-104.0250015258789,28.650001525878906
1779997461213611500,18.905611572265624,344.88751220703125,-104.0250015258789,28.650001525878906
1779997461233565200,18.925565185546876,344.7562561035156,-104.0250015258789,28.668750762939453
1779997461253806300,18.945806396484375,344.51251220703125,-104.00625610351562,28.650001525878906
1779997461273669000,18.965669189453124,344.34375,-104.00625610351562,28.668750762939453
1779997461293587500,18.98558740234375,344.23126220703125,-104.0250015258789,28.668750762939453
1779997461313666000,19.005666015625,344.1937561035156,-104.00625610351562,28.668750762939453
1779997461333605400,19.02560546875,344.23126220703125,-104.00625610351562,28.668750762939453
1779997461353563400,19.0455634765625,344.2125244140625,-104.00625610351562,28.687501907348633
1779997461374012000,19.066011962890624,344.1750183105469,-104.00625610351562,28.70625114440918
1779997461393794000,19.0857939453125,344.0812683105469,-104.00625610351562,28.70625114440918
1779997461413641000,19.105640869140625,344.2687683105469,-104.00625610351562,28.725000381469727
1779997461433559000,19.12555908203125,344.3062744140625,-104.00625610351562,28.725000381469727
1779997461453529000,19.145529052734375,344.2687683105469,-104.0250015258789,28.743751525878906
1779997461473526000,19.165526123046874,344.3062744140625,-104.0250015258789,28.725000381469727
1779997461493993000,19.185992919921876,344.41876220703125,-104.0250015258789,28.70625114440918
1779997461513901800,19.20590185546875,344.51251220703125,-104.00625610351562,28.70625114440918
1779997461533705200,19.225705322265625,344.5500183105469,-103.98750305175781,28.70625114440918
1779997461553593600,19.245593505859375,344.60626220703125,-104.00625610351562,28.725000381469727
1779997461573738000,19.265738037109376,344.625,-103.98750305175781,28.725000381469727
1779997461593619700,19.28561962890625,344.5687561035156,-103.96875762939453,28.725000381469727
1779997461613560300,19.305560302734374,344.60626220703125,-103.96875762939453,28.725000381469727
1779997461633732900,19.32573291015625,344.6812744140625,-103.96875762939453,28.743751525878906
1779997461653626600,19.345626708984376,344.70001220703125,-103.95000457763672,28.725000381469727
1779997461673570000,19.365570068359375,344.6812744140625,-103.9312515258789,28.725000381469727
1779997461693880300,19.38588037109375,344.6625061035156,-103.9312515258789,28.725000381469727
1779997461713709600,19.40570947265625,344.6437683105469,-103.91250610351562,28.725000381469727
1779997461733807900,19.425807861328124,344.6812744140625,-103.91250610351562,28.70625114440918
1779997461753918700,19.445918701171873,344.53125,-103.87500762939453,28.687501907348633
1779997461773722600,19.46572265625,344.41876220703125,-103.85625457763672,28.70625114440918
1779997461793861000,19.485861083984375,344.2875061035156,-103.85625457763672,28.70625114440918
1779997461814152200,19.506152099609373,344.25,-103.85625457763672,28.70625114440918
1779997461833837000,19.525837158203124,344.2875061035156,-103.85625457763672,28.70625114440918
1779997461853635600,19.545635498046874,344.3625183105469,-103.85625457763672,28.70625114440918
1779997461873799700,19.565799560546875,344.4937744140625,-103.85625457763672,28.70625114440918
1779997461893803500,19.585803466796875,344.6437683105469,-103.85625457763672,28.70625114440918
1779997461914105900,19.60610595703125,344.6625061035156,-103.8375015258789,28.687501907348633
1779997461934005000,19.6260048828125,344.625,-103.87500762939453,28.650001525878906
1779997461953996000,19.64599609375,344.4750061035156,-103.89375305175781,28.631250381469727
1779997461973901800,19.66590185546875,344.4750061035156,-103.87500762939453,28.631250381469727
1779997461993657000,19.685656982421875,344.5875244140625,-103.89375305175781,28.631250381469727
1779997462013819000,19.70581884765625,344.53125,-103.89375305175781,28.631250381469727
1779997462033632800,19.7256328125,344.5500183105469,-103.85625457763672,28.650001525878906
1779997462053543400,19.74554345703125,344.70001220703125,-103.87500762939453,28.631250381469727
1779997462073681200,19.76568115234375,344.7750244140625,-103.89375305175781,28.631250381469727
1779997462093875700,19.785875732421875,344.8687744140625,-103.89375305175781,28.61250114440918
1779997462113919000,19.8059189453125,344.8312683105469,-103.91250610351562,28.593751907348633
1779997462133910500,19.82591064453125,344.7375183105469,-103.91250610351562,28.61250114440918
1779997462153699000,19.845698974609373,344.71875,-103.95000457763672,28.593751907348633
1779997462173839000,19.865839111328125,344.625,-103.95000457763672,28.593751907348633
1779997462194129200,19.886129150390627,344.60626220703125,-103.95000457763672,28.61250114440918
1779997462214183400,19.906183349609375,344.6437683105469,-103.95000457763672,28.631250381469727
1779997462233833000,19.9258330078125,344.6812744140625,-103.9312515258789,28.650001525878906
1779997462253881000,19.945881103515624,344.6625061035156,-103.91250610351562,28.668750762939453
1779997462273791000,19.965791015625,344.51251220703125,-103.9312515258789,28.687501907348633
1779997462293613000,19.985613037109374,344.3062744140625,-103.9312515258789,28.687501907348633
1779997462313529000,20.005529052734374,344.1937561035156,-103.9312515258789,28.687501907348633
1779997462333709300,20.025709228515623,344.13751220703125,-103.95000457763672,28.668750762939453
1779997462353606700,20.045606689453123,343.9875183105469,-103.96875762939453,28.668750762939453
1779997462374020000,20.06602001953125,343.8187561035156,-103.96875762939453,28.687501907348633
1779997462393786000,20.0857861328125,343.6875,-103.96875762939453,28.687501907348633
1779997462413893000,20.10589306640625,343.7062683105469,-103.9312515258789,28.70625114440918
1779997462433708000,20.1257080078125,343.78125,-103.95000457763672,28.687501907348633
1779997462453788200,20.1457880859375,343.7062683105469,-103.9312515258789,28.687501907348633
1779997462473889000,20.165888916015625,343.78125,-103.9312515258789,28.687501907348633
1779997462493963800,20.1859638671875,343.8000183105469,-103.91250610351562,28.650001525878906
1779997462514009600,20.206009521484376,343.7437744140625,-103.9312515258789,28.631250381469727
1779997462533756400,20.22575634765625,343.8000183105469,-103.95000457763672,28.650001525878906
1779997462553800000,20.245800048828126,344.0062561035156,-103.95000457763672,28.631250381469727
1779997462573890800,20.265890869140627,344.1750183105469,-103.96875762939453,28.631250381469727
1779997462593718500,20.285718505859375,344.25,-103.95000457763672,28.61250114440918
1779997462613857800,20.30585791015625,344.25,-103.95000457763672,28.593751907348633
1779997462633941000,20.32594091796875,344.13751220703125,-103.9312515258789,28.575000762939453
1779997462653873200,20.345873046875,344.2687683105469,-103.9312515258789,28.61250114440918
1779997462673936000,20.365935791015627,344.2875061035156,-103.95000457763672,28.593751907348633
1779997462693968100,20.385968017578126,344.4937744140625,-103.96875762939453,28.593751907348633
1779997462713948000,20.405947998046877,344.4375,-103.98750305175781,28.593751907348633
1779997462733699300,20.42569921875,344.3812561035156,-104.00625610351562,28.593751907348633
1779997462753566000,20.44556591796875,344.51251220703125,-103.98750305175781,28.593751907348633
1779997462773793800,20.465793701171876,344.60626220703125,-103.98750305175781,28.593751907348633
1779997462793643800,20.485643798828125,344.6437683105469,-103.98750305175781,28.61250114440918
1779997462814029300,20.506029296875,344.6625061035156,-103.98750305175781,28.631250381469727
1779997462834215000,20.52621484375,344.4750061035156,-103.96875762939453,28.61250114440918
1779997462853852400,20.545852294921875,344.3625183105469,-103.98750305175781,28.631250381469727
1779997462873836000,20.5658359375,344.4375,-103.98750305175781,28.61250114440918
1779997462893896400,20.585896484375,344.625,-103.98750305175781,28.61250114440918
1779997462913964300,20.60596435546875,344.8500061035156,-104.00625610351562,28.631250381469727
1779997462933728000,20.62572802734375,345.07501220703125,-104.00625610351562,28.61250114440918
1779997462953586400,20.64558642578125,345.0187683105469,-104.0250015258789,28.61250114440918
1779997462973580800,20.665580810546874,345.1500244140625,-104.00625610351562,28.631250381469727
1779997462993541600,20.685541748046877,344.9625244140625,-103.98750305175781,28.631250381469727
1779997463013525500,20.705525390625,344.9250183105469,-103.96875762939453,28.61250114440918
1779997463033714700,20.725714599609375,345.0187683105469,-103.95000457763672,28.593751907348633
1779997463054101000,20.74610107421875,344.90625,-103.9312515258789,28.61250114440918
1779997463074293500,20.76629345703125,344.6437683105469,-103.9312515258789,28.61250114440918
1779997463093890800,20.785890869140626,344.51251220703125,-103.9312515258789,28.593751907348633
1779997463113655000,20.805655029296876,344.625,-103.95000457763672,28.575000762939453
1779997463133531400,20.825531494140623,344.79376220703125,-103.9312515258789,28.575000762939453
1779997463153909800,20.84590966796875,344.79376220703125,-103.9312515258789,28.575000762939453
1779997463173716000,20.865716064453125,344.7375183105469,-103.95000457763672,28.575000762939453
1779997463193601000,20.88560107421875,344.6812744140625,-103.96875762939453,28.593751907348633
1779997463213802000,20.905802001953123,344.60626220703125,-103.96875762939453,28.593751907348633
1779997463233668900,20.9256689453125,344.60626220703125,-103.95000457763672,28.631250381469727
1779997463253588700,20.945588623046874,344.625,-103.9312515258789,28.61250114440918
1779997463274008800,20.9660087890625,344.53125,-103.9312515258789,28.61250114440918
1779997463293831200,20.9858310546875,344.41876220703125,-103.95000457763672,28.631250381469727
1779997463313922300,21.00592236328125,344.4000244140625,-103.9312515258789,28.650001525878906
1779997463333907000,21.025906982421876,344.3812561035156,-103.95000457763672,28.650001525878906
1779997463353683200,21.04568310546875,344.41876220703125,-103.98750305175781,28.631250381469727
1779997463373826600,21.06582666015625,344.6437683105469,-104.00625610351562,28.650001525878906
1779997463393664300,21.085664306640624,344.60626220703125,-103.98750305175781,28.668750762939453
1779997463413769700,21.105769775390623,344.4750061035156,-103.98750305175781,28.650001525878906
1779997463433638700,21.125638671875,344.4000244140625,-103.98750305175781,28.650001525878906
1779997463453561900,21.145561767578126,344.4000244140625,-103.98750305175781,28.650001525878906
1779997463473734700,21.165734619140625,344.34375,-103.96875762939453,28.668750762939453
1779997463493622300,21.185622314453123,344.1937561035156,-103.95000457763672,28.668750762939453
1779997463513563100,21.205563232421873,344.0812683105469,-103.9312515258789,28.668750762939453
1779997463533741800,21.225741943359374,343.875,-103.96875762939453,28.668750762939453
1779997463553641200,21.24564111328125,343.875,-103.98750305175781,28.668750762939453
1779997463573574000,21.265573974609374,343.8000183105469,-103.96875762939453,28.650001525878906
1779997463593543700,21.285543701171875,343.9125061035156,-103.96875762939453,28.650001525878906
1779997463613803000,21.305802978515626,343.96875,-103.98750305175781,28.631250381469727
1779997463633684200,21.325684326171874,344.0062561035156,-104.0250015258789,28.631250381469727
1779997463653958700,21.345958740234376,343.9875183105469,-103.98750305175781,28.650001525878906
1779997463674071300,21.3660712890625,343.8375244140625,-103.96875762939453,28.668750762939453
1779997463694265000,21.38626513671875,343.76251220703125,-104.00625610351562,28.668750762939453
1779997463714141700,21.4061416015625,343.66876220703125,-104.00625610351562,28.668750762939453
1779997463733943600,21.425943603515623,343.5375061035156,-104.0250015258789,28.687501907348633
1779997463753671400,21.44567138671875,343.66876220703125,-104.00625610351562,28.687501907348633
1779997463773802500,21.465802490234374,343.7250061035156,-104.00625610351562,28.668750762939453
1779997463793837000,21.485837158203125,343.8375244140625,-104.00625610351562,28.668750762939453
1779997463813650200,21.505650146484374,343.95001220703125,-104.0250015258789,28.650001525878906
1779997463833747200,21.525747314453124,344.13751220703125,-104.00625610351562,28.650001525878906
1779997463853608400,21.5456083984375,344.23126220703125,-103.96875762939453,28.668750762939453
1779997463874041600,21.56604150390625,344.3812561035156,-103.96875762939453,28.668750762939453
1779997463893788200,21.5857880859375,344.4000244140625,-103.95000457763672,28.668750762939453
1779997463913976300,21.605976318359374,344.34375,-103.9312515258789,28.687501907348633
1779997463933737700,21.62573779296875,344.2687683105469,-103.89375305175781,28.668750762939453
1779997463953592800,21.6455927734375,344.2125244140625,-103.89375305175781,28.650001525878906
1779997463973792000,21.6657919921875,344.1750183105469,-103.89375305175781,28.61250114440918
1779997463993662200,21.685662109375,344.3062744140625,-103.89375305175781,28.593751907348633
1779997464013579300,21.705579345703125,344.4562683105469,-103.89375305175781,28.593751907348633
1779997464033745000,21.725744873046875,344.53125,-103.89375305175781,28.593751907348633
1779997464053636900,21.745636962890625,344.3062744140625,-103.91250610351562,28.556251525878906
1779997464073832700,21.765832763671874,344.25,-103.91250610351562,28.575000762939453
1779997464094144800,21.786144775390625,344.23126220703125,-103.89375305175781,28.556251525878906
1779997464114016300,21.806016357421875,344.1937561035156,-103.89375305175781,28.556251525878906
1779997464133734700,21.825734619140626,344.0625,-103.89375305175781,28.556251525878906
1779997464153588200,21.845588134765624,344.0062561035156,-103.91250610351562,28.537500381469727
1779997464173710800,21.8657109375,344.0062561035156,-103.9312515258789,28.51875114440918
1779997464193598500,21.885598388671873,344.04376220703125,-103.9312515258789,28.51875114440918
1779997464213548500,21.905548583984373,344.0250244140625,-103.91250610351562,28.51875114440918
1779997464233729300,21.925729248046874,343.9125061035156,-103.91250610351562,28.51875114440918
1779997464253629000,21.94562890625,343.96875,-103.9312515258789,28.556251525878906
1779997464273575400,21.965575439453126,344.04376220703125,-103.91250610351562,28.556251525878906
1779997464293921300,21.98592138671875,343.9875183105469,-103.91250610351562,28.575000762939453
1779997464313975600,22.0059755859375,343.96875,-103.89375305175781,28.575000762939453
1779997464333947600,22.02594775390625,343.9875183105469,-103.89375305175781,28.575000762939453
1779997464353972200,22.04597216796875,344.0250244140625,-103.89375305175781,28.593751907348633
1779997464373715200,22.065715087890624,344.0250244140625,-103.89375305175781,28.61250114440918
1779997464393581300,22.085581298828124,344.04376220703125,-103.91250610351562,28.631250381469727
1779997464413813500,22.1058134765625,344.1187744140625,-103.9312515258789,28.650001525878906
1779997464433679600,22.1256796875,344.15625,-103.91250610351562,28.650001525878906
1779997464453590800,22.1455908203125,344.1000061035156,-103.89375305175781,28.668750762939453
1779997464474006000,22.166006103515624,344.1000061035156,-103.89375305175781,28.687501907348633
1779997464493783800,22.18578369140625,344.04376220703125,-103.9312515258789,28.687501907348633
1779997464513633300,22.20563330078125,343.96875,-103.9312515258789,28.687501907348633
1779997464533555700,22.2255556640625,344.1187744140625,-103.9312515258789,28.687501907348633
1779997464553793500,22.24579345703125,344.04376220703125,-103.91250610351562,28.687501907348633
1779997464573669000,22.265669189453124,344.0250244140625,-103.9312515258789,28.687501907348633
1779997464593592300,22.28559228515625,344.0812683105469,-103.91250610351562,28.687501907348633
1779997464613628700,22.305628662109374,344.04376220703125,-103.91250610351562,28.70625114440918
1779997464633576400,22.325576416015625,344.1000061035156,-103.91250610351562,28.70625114440918
1779997464653550000,22.345550048828127,344.1187744140625,-103.91250610351562,28.687501907348633
1779997464673752000,22.365751953125,344.0250244140625,-103.91250610351562,28.687501907348633
1779997464693921300,22.38592138671875,343.8375244140625,-103.9312515258789,28.650001525878906
1779997464713740500,22.405740478515625,343.76251220703125,-103.91250610351562,28.650001525878906
1779997464733827000,22.4258271484375,343.8000183105469,-103.89375305175781,28.650001525878906
1779997464753664500,22.44566455078125,343.85626220703125,-103.9312515258789,28.650001525878906
1779997464773841000,22.4658408203125,343.8375244140625,-103.91250610351562,28.631250381469727
1779997464793680100,22.48568017578125,343.8000183105469,-103.89375305175781,28.631250381469727
1779997464813624600,22.50562451171875,343.8937683105469,-103.89375305175781,28.631250381469727
1779997464833767400,22.525767333984376,343.875,-103.89375305175781,28.668750762939453
1779997464853899300,22.545899169921874,344.0625,-103.91250610351562,28.650001525878906
1779997464873890800,22.565890869140624,343.9312744140625,-103.91250610351562,28.650001525878906
1779997464893955300,22.585955322265626,343.8000183105469,-103.91250610351562,28.650001525878906
1779997464914186000,22.60618603515625,343.6500244140625,-103.9312515258789,28.631250381469727
1779997464934036200,22.6260361328125,343.76251220703125,-103.95000457763672,28.631250381469727
1779997464953727500,22.6457275390625,343.9875183105469,-103.95000457763672,28.61250114440918
1779997464973766100,22.66576611328125,344.1187744140625,-103.9312515258789,28.593751907348633
1779997464993664000,22.6856640625,344.4937744140625,-103.9312515258789,28.61250114440918
1779997465013556700,22.705556640625,344.60626220703125,-103.9312515258789,28.593751907348633
1779997465033779200,22.725779296875,344.625,-103.95000457763672,28.593751907348633
1779997465054105000,22.74610498046875,344.5687561035156,-103.9312515258789,28.61250114440918
1779997465073828900,22.765828857421877,344.5500183105469,-103.9312515258789,28.593751907348633
1779997465093644500,22.78564453125,344.5687561035156,-103.9312515258789,28.575000762939453
1779997465113816800,22.80581689453125,344.625,-103.96875762939453,28.575000762939453
1779997465133686000,22.82568603515625,344.6437683105469,-103.96875762939453,28.556251525878906
1779997465153596000,22.845595947265625,344.6437683105469,-103.95000457763672,28.537500381469727
1779997465173810400,22.865810546875,344.7562561035156,-103.96875762939453,28.51875114440918
1779997465193671400,22.88567138671875,344.90625,-103.96875762939453,28.500001907348633
1779997465213597400,22.905597412109376,345.09375,-103.95000457763672,28.51875114440918
1779997465233554000,22.925553955078126,345.09375,-103.9312515258789,28.537500381469727
1779997465253539000,22.9455390625,344.98126220703125,-103.9312515258789,28.556251525878906
1779997465273543000,22.96554296875,344.9625244140625,-103.96875762939453,28.575000762939453
1779997465293543400,22.98554345703125,344.60626220703125,-103.96875762939453,28.556251525878906
1779997465313865500,23.005865478515624,344.5687561035156,-103.96875762939453,28.575000762939453
1779997465334210000,23.0262099609375,344.4562683105469,-103.95000457763672,28.575000762939453
1779997465354095600,23.046095703125,344.53125,-103.9312515258789,28.575000762939453
1779997465374081800,23.066081787109376,344.4000244140625,-103.9312515258789,28.593751907348633
1779997465393755000,23.0857548828125,344.4375,-103.9312515258789,28.61250114440918
1779997465413771300,23.105771240234375,344.4375,-103.91250610351562,28.631250381469727
1779997465433795300,23.12579541015625,344.4562683105469,-103.91250610351562,28.61250114440918
1779997465453616400,23.145616455078127,344.3062744140625,-103.9312515258789,28.61250114440918
1779997465473532400,23.165532470703123,344.1750183105469,-103.9312515258789,28.61250114440918
1779997465493510400,23.185510498046874,344.1937561035156,-103.91250610351562,28.650001525878906
1779997465513509400,23.20550927734375,344.23126220703125,-103.91250610351562,28.631250381469727
1779997465533522400,23.2255224609375,344.25,-103.9312515258789,28.631250381469727
1779997465553540400,23.245540283203123,344.25,-103.9312515258789,28.631250381469727
1779997465573637400,23.265637451171877,344.1750183105469,-103.91250610351562,28.631250381469727
1779997465593598500,23.285598388671875,344.25,-103.89375305175781,28.631250381469727
1779997465613576200,23.305576171875,344.13751220703125,-103.89375305175781,28.631250381469727
1779997465633759200,23.32575927734375,344.2687683105469,-103.89375305175781,28.593751907348633
1779997465653651000,23.34565087890625,344.32501220703125,-103.9312515258789,28.593751907348633
1779997465673893600,23.3658935546875,344.5500183105469,-103.95000457763672,28.575000762939453
1779997465693904000,23.38590380859375,344.625,-103.95000457763672,28.556251525878906
1779997465714190000,23.406190185546876,344.5687561035156,-103.95000457763672,28.556251525878906
1779997465733839400,23.42583935546875,344.4750061035156,-103.95000457763672,28.556251525878906
1779997465753758500,23.445758544921876,344.51251220703125,-103.9312515258789,28.537500381469727
1779997465773604900,23.46560498046875,344.60626220703125,-103.9312515258789,28.537500381469727
1779997465793527000,23.485527099609374,344.5875244140625,-103.95000457763672,28.537500381469727
1779997465813768200,23.505768310546873,344.4750061035156,-103.95000457763672,28.537500381469727
1779997465833661400,23.525661376953124,344.2875061035156,-103.95000457763672,28.537500381469727
1779997465853586400,23.54558642578125,344.32501220703125,-103.95000457763672,28.537500381469727
1779997465873813500,23.5658134765625,344.4562683105469,-103.96875762939453,28.51875114440918
1779997465893688300,23.585688232421877,344.4000244140625,-103.96875762939453,28.51875114440918
1779997465913599200,23.60559912109375,344.4937744140625,-103.98750305175781,28.51875114440918
1779997465933552600,23.625552734375,344.4937744140625,-103.98750305175781,28.556251525878906
1779997465953538600,23.64553857421875,344.34375,-103.96875762939453,28.575000762939453
1779997465973734000,23.66573388671875,344.2125244140625,-103.96875762939453,28.575000762939453
1779997465993647900,23.68564794921875,344.1187744140625,-103.98750305175781,28.593751907348633
1779997466013789000,23.705788818359373,344.23126220703125,-103.98750305175781,28.61250114440918
1779997466033656800,23.72565673828125,344.4750061035156,-104.00625610351562,28.631250381469727
1779997466053583400,23.745583251953125,344.4562683105469,-104.00625610351562,28.631250381469727
1779997466073745200,23.7657451171875,344.53125,-104.00625610351562,28.650001525878906
1779997466093632500,23.785632568359375,344.4750061035156,-104.00625610351562,28.650001525878906
1779997466113572600,23.805572509765625,344.4750061035156,-104.00625610351562,28.668750762939453
1779997466133904000,23.82590380859375,344.4750061035156,-103.98750305175781,28.687501907348633
1779997466153723400,23.845723388671875,344.4937744140625,-103.96875762939453,28.70625114440918
1779997466173815000,23.86581494140625,344.4937744140625,-103.96875762939453,28.70625114440918
1779997466194115300,23.886115234375,344.6437683105469,-103.95000457763672,28.725000381469727
1779997466214072800,23.90607275390625,344.70001220703125,-103.96875762939453,28.725000381469727
1779997466233773000,23.92577294921875,344.625,-103.96875762939453,28.725000381469727
1779997466253999400,23.945999267578124,344.5875244140625,-103.98750305175781,28.70625114440918
1779997466274095000,23.96609521484375,344.6437683105469,-103.98750305175781,28.70625114440918
1779997466294053400,23.986053466796875,344.6812744140625,-103.96875762939453,28.70625114440918
1779997466314021600,24.006021728515623,344.625,-103.95000457763672,28.70625114440918
1779997466333886000,24.025885986328124,344.4937744140625,-103.95000457763672,28.725000381469727
1779997466354116600,24.04611669921875,344.5875244140625,-103.96875762939453,28.725000381469727
1779997466374091500,24.066091552734374,344.5687561035156,-103.96875762939453,28.725000381469727
1779997466393972200,24.08597216796875,344.60626220703125,-103.95000457763672,28.70625114440918
1779997466413683000,24.105682861328123,344.5500183105469,-103.95000457763672,28.687501907348633
1779997466433547000,24.125547119140624,344.625,-103.95000457763672,28.687501907348633
1779997466453507800,24.1455078125,344.4750061035156,-103.95000457763672,28.668750762939453
1779997466474033000,24.166032958984374,344.34375,-103.9312515258789,28.668750762939453
1779997466493987800,24.18598779296875,344.23126220703125,-103.95000457763672,28.650001525878906
1779997466514120200,24.2061201171875,344.1937561035156,-103.9312515258789,28.668750762939453
1779997466533760800,24.2257607421875,344.1937561035156,-103.9312515258789,28.668750762939453
1779997466553591800,24.245591796875,344.2687683105469,-103.9312515258789,28.687501907348633
1779997466573807900,24.265807861328124,344.2687683105469,-103.9312515258789,28.687501907348633
1779997466593655000,24.285655029296876,344.2875061035156,-103.9312515258789,28.687501907348633
1779997466613836500,24.30583642578125,344.1937561035156,-103.95000457763672,28.668750762939453
1779997466633942300,24.3259423828125,344.1750183105469,-103.95000457763672,28.650001525878906
1779997466653754000,24.345754150390626,344.13751220703125,-103.91250610351562,28.668750762939453
1779997466673822500,24.365822509765625,344.0625,-103.91250610351562,28.687501907348633
1779997466693653800,24.38565380859375,344.0625,-103.91250610351562,28.70625114440918
1779997466713707000,24.40570703125,344.0062561035156,-103.91250610351562,28.70625114440918
1779997466733595600,24.425595703125,343.8187561035156,-103.89375305175781,28.70625114440918
1779997466753542400,24.44554248046875,343.78125,-103.9312515258789,28.70625114440918
1779997466773733400,24.4657333984375,343.8375244140625,-103.91250610351562,28.70625114440918
1779997466793831700,24.485831787109376,343.76251220703125,-103.91250610351562,28.70625114440918
1779997466813672400,24.50567236328125,343.7062683105469,-103.91250610351562,28.70625114440918
1779997466833836000,24.5258359375,343.78125,-103.91250610351562,28.687501907348633
1779997466853932500,24.5459326171875,343.8937683105469,-103.91250610351562,28.687501907348633
1779997466874186500,24.5661865234375,343.9125061035156,-103.9312515258789,28.687501907348633
1779997466894268200,24.58626806640625,343.8375244140625,-103.9312515258789,28.725000381469727
1779997466914120400,24.606120361328124,343.9125061035156,-103.95000457763672,28.762500762939453
1779997466934230300,24.626230224609376,343.875,-103.96875762939453,28.80000114440918
1779997466954276600,24.646276611328126,343.8187561035156,-103.96875762939453,28.80000114440918
1779997466974109700,24.666109619140624,343.9875183105469,-103.98750305175781,28.80000114440918
1779997466994203000,24.686202880859376,343.95001220703125,-103.96875762939453,28.818750381469727
1779997467014260000,24.706260009765625,344.0062561035156,-103.96875762939453,28.837501525878906
1779997467033868800,24.725868896484375,344.1750183105469,-103.98750305175781,28.856250762939453
1779997467053871600,24.74587158203125,344.34375,-103.95000457763672,28.856250762939453
1779997467073897700,24.765897705078125,344.34375,-103.96875762939453,28.89375114440918
1779997467093660000,24.785659912109374,344.5500183105469,-103.98750305175781,28.912500381469727
1779997467113548000,24.805548095703124,344.5875244140625,-104.00625610351562,28.912500381469727
1779997467133500400,24.82550048828125,344.4750061035156,-104.0250015258789,28.912500381469727
1779997467153523700,24.845523681640625,344.4750061035156,-104.0250015258789,28.931251525878906
1779997467173732000,24.865732177734376,344.4562683105469,-104.00625610351562,28.931251525878906
1779997467194116900,24.886116943359376,344.53125,-104.00625610351562,28.950000762939453
1779997467214118400,24.906118408203124,344.3625183105469,-103.98750305175781,28.912500381469727
1779997467233800000,24.925800048828126,344.34375,-103.98750305175781,28.89375114440918
1779997467254070800,24.94607080078125,344.2687683105469,-104.00625610351562,28.89375114440918
1779997467274217700,24.9662177734375,344.2875061035156,-103.98750305175781,28.856250762939453
1779997467293832200,24.985832275390624,344.1937561035156,-104.00625610351562,28.818750381469727
1779997467313610200,25.0056103515625,344.3625183105469,-104.0250015258789,28.80000114440918
1779997467333703700,25.02570361328125,344.53125,-104.0250015258789,28.781251907348633
1779997467353575000,25.045574951171876,344.53125,-104.04375457763672,28.781251907348633
1779997467373985800,25.06598583984375,344.6812744140625,-104.0250015258789,28.762500762939453
1779997467394225700,25.0862255859375,344.60626220703125,-104.00625610351562,28.762500762939453
1779997467413934000,25.10593408203125,344.4750061035156,-103.96875762939453,28.762500762939453
1779997467433686800,25.125686767578124,344.4562683105469,-103.96875762939453,28.743751525878906
1779997467453551600,25.145551513671876,344.41876220703125,-103.95000457763672,28.743751525878906
1779997467473704400,25.165704345703126,344.53125,-103.96875762939453,28.725000381469727
1779997467494057200,25.18605712890625,344.51251220703125,-103.96875762939453,28.668750762939453
1779997467514052400,25.20605224609375,344.5875244140625,-103.95000457763672,28.668750762939453
1779997467534034200,25.2260341796875,344.53125,-103.9312515258789,28.650001525878906
1779997467554220500,25.246220458984375,344.5500183105469,-103.9312515258789,28.650001525878906
1779997467574297300,25.26629736328125,344.51251220703125,-103.9312515258789,28.650001525878906
1779997467593965600,25.285965576171876,344.7562561035156,-103.91250610351562,28.650001525878906
1779997467613934300,25.305934326171876,344.71875,-103.9312515258789,28.631250381469727
1779997467634132700,25.3261328125,344.5875244140625,-103.9312515258789,28.631250381469727
1779997467654247400,25.346247314453127,344.6625061035156,-103.95000457763672,28.61250114440918
1779997467674101000,25.36610107421875,344.5875244140625,-103.98750305175781,28.575000762939453
1779997467693946400,25.3859462890625,344.70001220703125,-103.98750305175781,28.537500381469727
1779997467714121700,25.406121826171876,344.9625244140625,-103.98750305175781,28.51875114440918
1779997467734052400,25.42605224609375,345,-103.98750305175781,28.500001907348633
1779997467753988600,25.445988525390625,345.09375,-104.00625610351562,28.481250762939453
1779997467774164700,25.466164794921873,345.0562744140625,-103.98750305175781,28.500001907348633
1779997467793897000,25.48589697265625,345.1312561035156,-104.00625610351562,28.500001907348633
1779997467814108000,25.50610791015625,345.2062683105469,-104.00625610351562,28.481250762939453
1779997467834226700,25.526226806640626,345.26251220703125,-103.98750305175781,28.481250762939453
1779997467854024000,25.54602392578125,345.45001220703125,-104.00625610351562,28.462501525878906
1779997467874161000,25.566160888671874,345.4875183105469,-104.0250015258789,28.443750381469727
1779997467894247400,25.586247314453125,345.46875,-104.0250015258789,28.42500114440918
1779997467914018600,25.6060185546875,345.5250244140625,-104.04375457763672,28.42500114440918
1779997467934172200,25.626172119140627,345.7125244140625,-104.0250015258789,28.42500114440918
1779997467954245000,25.6462451171875,345.7875061035156,-104.0250015258789,28.42500114440918
1779997467974151000,25.66615087890625,345.8062744140625,-104.0250015258789,28.42500114440918
1779997467994014000,25.686013916015625,345.7687683105469,-104.04375457763672,28.42500114440918
1779997468014157600,25.706157470703126,345.8062744140625,-104.04375457763672,28.42500114440918
1779997468034245600,25.72624560546875,345.9750061035156,-104.04375457763672,28.42500114440918
1779997468053826600,25.74582666015625,345.9937744140625,-104.0250015258789,28.406251907348633
1779997468074052400,25.76605224609375,345.91876220703125,-104.04375457763672,28.368751525878906
1779997468094190600,25.786190673828123,345.8812561035156,-104.04375457763672,28.350000381469727
1779997468114118100,25.8061181640625,345.9562683105469,-104.04375457763672,28.312501907348633
1779997468134227200,25.826227294921875,346.21875,-104.04375457763672,28.293750762939453
1779997468154282500,25.846282470703127,346.21875,-104.04375457763672,28.256250381469727
1779997468173966800,25.865966796875,346.2562561035156,-104.00625610351562,28.218751907348633
1779997468255123500,25.94712353515625,346.29376220703125,-104.00625610351562,28.181251525878906
1779997468351227000,26.043226806640625,346.29376220703125,-104.00625610351562,28.087501525878906
1779997468487999500,26.17999951171875,311.8687744140625,-93.48750305175781,25.162500381469727
1779997468579132200,26.271132080078125,311.88751220703125,-93.45000457763672,25.012500762939453
1779997468624660500,26.316660400390624,312.0375061035156,-93.46875,24.975000381469727
1779997468670146000,26.36214599609375,312.2062683105469,-93.46875,24.937501907348633
1779997468715614700,26.40761474609375,312.5250244140625,-93.45000457763672,24.881250381469727
1779997468941208600,26.63320849609375,313.6500244140625,-93.35625457763672,24.67500114440918
1779997468985683700,26.67768359375,313.8375244140625,-93.3375015258789,24.67500114440918
1779997469029843000,26.721843017578124,313.875,-93.3375015258789,24.637500762939453
1779997469073625300,26.765625244140626,337.0687561035156,-100.2750015258789,26.437501907348633
1779997469116968000,26.808968017578124,348.63751220703125,-103.76250457763672,27.356250762939453
1779997469159797800,26.8517978515625,348.5812683105469,-103.8375015258789,27.337501525878906
1779997469202042000,26.8940419921875,348.5250244140625,-103.87500762939453,27.318750381469727
1779997469243616500,26.935616455078126,348.54376220703125,-103.89375305175781,27.318750381469727
1779997469284437200,26.976437255859373,348.5625,-103.91250610351562,27.318750381469727
1779997469324415700,27.016415771484375,348.5625,-103.91250610351562,27.30000114440918
1779997469363465700,27.0554658203125,348.3937683105469,-103.9312515258789,27.30000114440918
1779997469401488100,27.093488037109374,348.2250061035156,-103.95000457763672,27.318750381469727
1779997469438389200,27.13038916015625,348.0187683105469,-103.96875762939453,27.318750381469727
1779997469474070800,27.16607080078125,347.79376220703125,-104.00625610351562,27.318750381469727
1779997469508451600,27.20045166015625,347.51251220703125,-104.00625610351562,27.318750381469727
1779997469541442600,27.233442626953124,347.4375,-104.0250015258789,27.337501525878906
1779997469572960500,27.26496044921875,347.3812561035156,-104.0250015258789,27.337501525878906
1779997469602932000,27.294931884765624,347.4750061035156,-104.0250015258789,27.337501525878906
1779997469631297800,27.3232978515625,347.4562683105469,-104.0250015258789,27.337501525878906
1779997469657994500,27.349994384765626,347.5687561035156,-104.00625610351562,27.337501525878906
1779997469682976300,27.374976318359376,347.79376220703125,-103.98750305175781,27.337501525878906
1779997469706221300,27.39822119140625,347.8687744140625,-103.96875762939453,27.318750381469727
1779997469727696600,27.419696533203126,347.9625244140625,-103.96875762939453,27.318750381469727
1779997469747413200,27.439413330078125,347.98126220703125,-103.9312515258789,27.30000114440918
1779997469765375700,27.457375732421873,348.0187683105469,-103.95000457763672,27.281251907348633
1779997469781591800,27.473591796875,348.0187683105469,-103.95000457763672,27.281251907348633
1779997469796119000,27.488119140625,348.1125183105469,-103.96875762939453,27.262500762939453
1779997469808998700,27.50099853515625,348.2250061035156,-103.96875762939453,27.225000381469727
1779997469820285400,27.512285400390624,348.3937683105469,-103.96875762939453,27.225000381469727
1779997469830057700,27.5220576171875,348.5625,-103.98750305175781,27.225000381469727
1779997469845428200,27.53742822265625,348.5250244140625,-104.0250015258789,27.131250381469727
1779997469867115800,27.55911572265625,348.91876220703125,-104.06250762939453,27.131250381469727
1779997469877250600,27.56925048828125,348.9000244140625,-104.10000610351562,27.131250381469727
1779997469899135200,27.59113525390625,314.2687683105469,-93.54375457763672,24.337501525878906
1779997469911994400,27.603994384765624,314.0812683105469,-93.50625610351562,24.39375114440918
1779997469924044000,27.6160439453125,348.9562683105469,-103.9312515258789,27.093751907348633
1779997469934554400,27.626554443359375,348.9000244140625,-103.95000457763672,27.11250114440918
1779997469947041800,27.639041748046875,348.82501220703125,-103.96875762939453,27.11250114440918
1779997469961442300,27.6534423828125,348.6187744140625,-103.98750305175781,27.093751907348633
1779997469977752000,27.669751953125,348.75,-104.0250015258789,27.075000762939453
1779997469995873500,27.68787353515625,348.73126220703125,-104.08125305175781,27.075000762939453
1779997470005592600,27.697592529296877,348.6937561035156,-104.08125305175781,27.056251525878906
1779997470015744800,27.707744873046874,348.8062744140625,-104.08125305175781,27.037500381469727
1779997470026321700,27.71832177734375,348.7875061035156,-104.06250762939453,27.056251525878906
1779997470037322200,27.729322265625,348.8812561035156,-104.04375457763672,27.037500381469727
1779997470048720000,27.740719970703125,348.9562683105469,-104.06250762939453,27.037500381469727
1779997470060514300,27.752514404296875,348.73126220703125,-104.08125305175781,27.000001907348633
1779997470072700400,27.764700439453126,348.5812683105469,-104.10000610351562,26.981250762939453
1779997470085783300,27.777783203125,348.4875183105469,-104.08125305175781,27.000001907348633
1779997470103788800,27.795788818359377,348.5250244140625,-104.06250762939453,27.000001907348633
1779997470127219200,27.81921923828125,348.5062561035156,-104.06250762939453,27.056251525878906
1779997470150825000,27.842824951171874,348.375,-104.04375457763672,27.093751907348633
1779997470173229600,27.8652294921875,348.3000183105469,-104.04375457763672,27.131250381469727
1779997470194561000,27.88656103515625,348.0187683105469,-104.0250015258789,27.20625114440918
1779997470214587100,27.906587158203124,347.7562561035156,-103.98750305175781,27.281251907348633
1779997470234338800,27.9263388671875,347.41876220703125,-103.98750305175781,27.39375114440918
1779997470254306600,27.946306640625,347.1937561035156,-104.00625610351562,27.506250381469727
1779997470273943800,27.96594384765625,346.85626220703125,-104.0250015258789,27.600000381469727
1779997470293703000,27.985702880859375,346.7250061035156,-104.0250015258789,27.693750381469727
1779997470313834800,28.005834716796876,346.5187683105469,-104.0250015258789,27.76875114440918
1779997470333667300,28.025667236328125,346.3500061035156,-104.00625610351562,27.86250114440918
1779997470353831200,28.0458310546875,346.1437683105469,-103.98750305175781,27.993751525878906
1779997470373937000,28.06593701171875,345.8812561035156,-103.96875762939453,28.106250762939453
1779997470430602800,28.122602783203124,345.5625,-103.96875762939453,28.218751907348633
1779997470495705000,28.187705078125,345.1875,-103.96875762939453,28.33125114440918
1779997470542287000,28.234287109375,344.90625,-103.95000457763672,28.406251907348633
1779997470682026200,28.374026123046875,344.0625,-103.9312515258789,28.575000762939453
1779997470775148000,28.46714794921875,309.75,-93.5625,25.725000381469727
1779997470821677600,28.513677490234375,309.7125244140625,-93.54375457763672,25.725000381469727
1779997470868170200,28.560170166015624,309.5812683105469,-93.50625610351562,25.70625114440918
1779997470914610400,28.6066103515625,309.65625,-93.50625610351562,25.70625114440918
1779997470961023200,28.653023193359374,309.45001220703125,-93.50625610351562,25.725000381469727
1779997471007348000,28.699347900390624,309.2250061035156,-93.48750305175781,25.762500762939453
1779997471145430000,28.837429931640624,309.5062561035156,-93.50625610351562,25.631250381469727
1779997471236273200,28.928273193359374,275.2125244140625,-83.1187515258789,22.78125
1779997471281174800,28.9731748046875,275.3625183105469,-83.10000610351562,22.762500762939453
1779997471325653000,29.017653076171875,275.625,-83.10000610351562,22.743751525878906
1779997471369637600,29.0616376953125,275.70001220703125,-83.10000610351562,22.762500762939453
1779997471413053000,29.105052978515626,298.6125183105469,-90.03750610351562,24.693750381469727
1779997471455816700,29.147816650390624,309.9750061035156,-93.48750305175781,25.668750762939453
1779997471497843000,29.189843017578124,310.0687561035156,-93.46875,25.650001525878906
1779997471539040800,29.231040771484373,310.29376220703125,-93.46875,25.650001525878906
1779997471579316700,29.271316650390624,310.1437683105469,-93.46875,25.631250381469727
1779997471618574000,29.310573974609376,310.21875,-93.48750305175781,25.650001525878906
1779997471656716000,29.348716064453125,310.1437683105469,-93.48750305175781,25.668750762939453
1779997471693645300,29.385645263671876,310.0687561035156,-93.46875,25.70625114440918
1779997471729266200,29.42126611328125,310.01251220703125,-93.46875,25.762500762939453
1779997471763487000,29.455487060546876,310.125,-93.45000457763672,25.80000114440918
1779997471796220000,29.488219970703124,333.2437744140625,-100.3687515258789,27.693750381469727
1779997471827384600,29.519384521484376,344.70001220703125,-103.8375015258789,28.61250114440918
1779997471856908000,29.548907958984376,344.70001220703125,-103.8375015258789,28.61250114440918
1779997471884733000,29.57673291015625,344.5875244140625,-103.85625457763672,28.650001525878906
1779997471911674400,29.60367431640625,344.4937744140625,-103.85625457763672,28.650001525878906
1779997471961733600,29.653733642578125,344.15625,-103.85625457763672,28.593751907348633
1779997471983594500,29.675594482421875,343.9875183105469,-103.87500762939453,28.593751907348633
1779997472021019000,29.713018798828124,343.6312561035156,-103.8375015258789,28.650001525878906
1779997472036532200,29.7285322265625,332.0812683105469,-100.3687515258789,27.67500114440918
1779997472050038800,29.742038818359376,320.7750244140625,-96.91875457763672,26.718751907348633
1779997472061845800,29.753845703125,320.9625244140625,-96.91875457763672,26.700000762939453
1779997472072023800,29.76402392578125,321.07501220703125,-96.93750762939453,26.64375114440918
1779997472087830500,29.77983056640625,320.9250183105469,-96.95625305175781,26.625001907348633
1779997472098221800,29.790221923828124,320.79376220703125,-96.97500610351562,26.681251525878906
1779997472107821800,29.79982177734375,320.7375183105469,-96.91875457763672,26.700000762939453
1779997472117678000,29.809677978515627,344.0812683105469,-103.89375305175781,28.593751907348633
1779997472127743200,29.8197431640625,344.0812683105469,-103.89375305175781,28.593751907348633
1779997472139829500,29.83182958984375,343.85626220703125,-103.91250610351562,28.575000762939453
1779997472153931300,29.84593115234375,343.8187561035156,-103.91250610351562,28.556251525878906
1779997472169977300,29.861977294921875,344.13751220703125,-103.95000457763672,28.556251525878906
1779997472187913700,29.879913818359373,344.4937744140625,-103.98750305175781,28.593751907348633
1779997472197595100,29.88959521484375,344.5875244140625,-103.96875762939453,28.61250114440918
1779997472207708400,29.89970849609375,344.41876220703125,-103.95000457763672,28.61250114440918
1779997472218253600,29.910253662109376,344.4750061035156,-103.9312515258789,28.631250381469727
1779997472229226000,29.92122607421875,344.5875244140625,-103.9312515258789,28.631250381469727
1779997472240610300,29.9326103515625,344.6812744140625,-103.95000457763672,28.631250381469727
1779997472252372500,29.94437255859375,344.6812744140625,-103.95000457763672,28.61250114440918
1779997472265065200,29.957065185546874,344.71875,-103.95000457763672,28.593751907348633
1779997472283000300,29.975000244140624,344.88751220703125,-103.95000457763672,28.61250114440918
1779997472306995700,29.99899560546875,345.0187683105469,-103.96875762939453,28.61250114440918
1779997472330990300,30.022990234375,345.0375061035156,-103.96875762939453,28.650001525878906
1779997472353191000,30.04519091796875,344.9437561035156,-103.96875762939453,28.668750762939453
1779997472374171100,30.066171142578124,344.9625244140625,-103.95000457763672,28.687501907348633
1779997472394413800,30.086413818359375,344.9250183105469,-103.95000457763672,28.668750762939453
1779997472414461000,30.1064609375,344.8125,-103.9312515258789,28.631250381469727
1779997472434116900,30.126116943359374,344.7562561035156,-103.91250610351562,28.631250381469727
