time,seconds_elapsed,z,y,x
1779997442559572700,0.25157275390625,9.457050323486328,-0.09405000507831573,-1.7269500494003296
1779997442576845000,0.268844970703125,9.519000053405762,-0.10905000567436218,-1.746000051498413
1779997442594121000,0.286120849609375,9.744000434875488,-0.09000000357627869,-1.7820000648498535
1779997442611397400,0.3033974609375,9.759000778198242,-0.09000000357627869,-1.7740501165390015
1779997442628673800,0.320673828125,9.853950500488281,-0.09405000507831573,-1.7890501022338867
1779997442645950200,0.3379501953125,9.897000312805176,-0.10200000554323196,-1.798050045967102
1779997442663226600,0.3552265625,9.687000274658203,-0.10905000567436218,-1.7790000438690186
1779997442680502500,0.37250244140625,9.699000358581543,-0.10605000704526901,-1.7740501165390015
1779997442697779200,0.389779296875,9.663000106811523,-0.10395000129938126,-1.7770501375198364
1779997442715055400,0.407055419921875,9.579000473022461,-0.08505000174045563,-1.7790000438690186
1779997442732331800,0.424331787109375,9.547950744628906,-0.09000000357627869,-1.7670000791549683
1779997442749608000,0.44160791015625,9.724950790405273,-0.11400000751018524,-1.7839500904083252
1779997442766884400,0.45888427734375,9.823050498962402,-0.09405000507831573,-1.801050066947937
1779997442784160500,0.476160400390625,9.816000938415527,-0.11805000901222229,-1.798050045967102
1779997442801437000,0.49343701171875,9.724950790405273,-0.0990000069141388,-1.7890501022338867
1779997442818713000,0.510713134765625,9.771000862121582,-0.11595000326633453,-1.7910001277923584
1779997442835989500,0.527989501953125,9.679950714111328,-0.11400000751018524,-1.7860500812530518
1779997442853266000,0.545265869140625,9.57705020904541,-0.10395000129938126,-1.7650500535964966
1779997442870542000,0.5625419921875,9.570000648498535,-0.10905000567436218,-1.7700001001358032
1779997442887818500,0.579818603515625,9.676950454711914,-0.10395000129938126,-1.7890501022338867
1779997442905094700,0.5970947265625,9.85200023651123,-0.0970500037074089,-1.810050129890442
1779997442922371000,0.61437109375,9.795000076293945,-0.11100000888109207,-1.798050045967102
1779997442939647500,0.6316474609375,9.679950714111328,-0.0990000069141388,-1.7890501022338867
1779997442956923600,0.648923583984375,9.610050201416016,-0.11595000326633453,-1.7890501022338867
1779997442974200000,0.666199951171875,9.664950370788574,-0.12495000660419464,-1.7700001001358032
1779997442991476200,0.683476318359375,9.61500072479248,-0.11400000751018524,-1.7479500770568848
1779997443008752600,0.700752685546875,9.511950492858887,-0.0970500037074089,-1.7479500770568848
1779997443026028800,0.71802880859375,9.430950164794922,-0.0580500029027462,-1.759950041770935
1779997443043305200,0.73530517578125,9.790050506591797,-0.05595000088214874,-1.818000078201294
1779997443060581600,0.75258154296875,10.105950355529785,-0.07500000298023224,-1.8610501289367676
1779997443077858000,0.769858154296875,10.22295093536377,-0.1399500072002411,-1.8079501390457153
1779997443095134500,0.787134521484375,9.760950088500977,-0.1279500126838684,-1.798050045967102
1779997443112410600,0.80441064453125,9.736950874328613,-0.0970500037074089,-1.810050129890442
1779997443129687000,0.82168701171875,9.853950500488281,-0.15195000171661377,-1.8130500316619873
1779997443146963200,0.838963134765625,9.640950202941895,-0.07304999977350235,-1.8060001134872437
1779997443164239600,0.856239501953125,9.385050773620605,-0.13005000352859497,-1.7269500494003296
1779997443181516000,0.87351611328125,9.337950706481934,-0.13695000112056732,-1.7119500637054443
1779997443198792200,0.890792236328125,9.517050743103027,-0.10395000129938126,-1.7430000305175781
1779997443216068600,0.908068603515625,9.724950790405273,-0.1469999998807907,-1.7509500980377197
1779997443233345000,0.925344970703125,9.780000686645508,-0.09405000507831573,-1.771950125694275
1779997443250621200,0.94262109375,9.792000770568848,-0.12300000339746475,-1.7700001001358032
1779997443267897600,0.959897705078125,9.759000778198242,-0.12105000764131546,-1.7790000438690186
1779997443285174000,0.977174072265625,9.739950180053711,-0.10200000554323196,-1.7839500904083252
1779997443302450200,0.9944501953125,9.700950622558594,-0.13305000960826874,-1.7740501165390015
1779997443319726600,1.0117265625,9.730050086975098,-0.12495000660419464,-1.7700001001358032
1779997443337003000,1.0290029296875,9.708000183105469,-0.10605000704526901,-1.7839500904083252
1779997443354279400,1.046279541015625,9.691950798034668,-0.0990000069141388,-1.7740501165390015
1779997443371555600,1.0635556640625,9.675000190734863,-0.10395000129938126,-1.76295006275177
1779997443388832000,1.08083203125,9.661050796508789,-0.11595000326633453,-1.7770501375198364
1779997443406108400,1.0981083984375,9.651000022888184,-0.10905000567436218,-1.771950125694275
1779997443423384600,1.115384521484375,9.730050086975098,-0.10605000704526901,-1.758000135421753
1779997443440660700,1.13266064453125,9.748950004577637,-0.16095000505447388,-1.8250501155853271
1779997443457937200,1.149937255859375,9.732000350952148,-0.1489500105381012,-1.8870000839233398
1779997443475213600,1.167213623046875,9.685050010681152,-0.027000000700354576,-1.7839500904083252
1779997443492490000,1.184489990234375,9.652950286865234,-0.18495000898838043,-1.7290500402450562
1779997443509766100,1.20176611328125,9.62505054473877,-0.05100000277161598,-1.7740501165390015
1779997443527042600,1.21904248046875,9.754050254821777,0.040950000286102295,-1.8199501037597656
1779997443544319000,1.236319091796875,9.664950370788574,-0.19500000774860382,-1.6980000734329224
1779997443561595400,1.253595458984375,9.703950881958008,-0.027000000700354576,-1.7700001001358032
1779997443578871600,1.27087158203125,9.646050453186035,-0.025050001218914986,-1.8370500802993774
1779997443596148000,1.28814794921875,9.663000106811523,-0.1570500135421753,-1.7910001277923584
1779997443613424000,1.305424072265625,9.820950508117676,-0.0799500048160553,-1.8630000352859497
1779997443630700500,1.322700439453125,9.952950477600098,-0.08700000494718552,-1.9300501346588135
1779997443647977000,1.33997705078125,9.807000160217285,-0.11400000751018524,-1.8889501094818115
1779997443665253000,1.357253173828125,9.63705062866211,-0.0970500037074089,-1.8060001134872437
1779997443682529500,1.374529541015625,9.61500072479248,-0.08700000494718552,-1.7940000295639038
1779997443699805700,1.3918056640625,9.688950538635254,-0.09000000357627869,-1.831950068473816
1779997443717082400,1.409082275390625,9.663000106811523,-0.07800000160932541,-1.810050129890442
1779997443734358500,1.426358642578125,9.631950378417969,-0.10200000554323196,-1.771950125694275
1779997443751635000,1.443635009765625,9.675000190734863,-0.10200000554323196,-1.801050066947937
1779997443768911400,1.460911376953125,9.736950874328613,-0.10905000567436218,-1.810050129890442
1779997443786187500,1.4781875,9.670050621032715,-0.08505000174045563,-1.815000057220459
1779997443803464000,1.4954638671875,9.720000267028809,-0.10605000704526901,-1.8060001134872437
1779997443820740000,1.512739990234375,9.718050003051758,-0.07800000160932541,-1.8250501155853271
1779997443838016500,1.5300166015625,9.58395004272461,-0.08205000311136246,-1.8370500802993774
1779997443855292700,1.547292724609375,9.640950202941895,-0.10605000704526901,-1.8220500946044922
1779997443872569300,1.5645693359375,9.82800006866455,-0.09195000678300858,-1.8340500593185425
1779997443889845500,1.581845458984375,9.841950416564941,-0.07800000160932541,-1.8649500608444214
1779997443907122000,1.599121826171875,9.960000038146973,-0.07500000298023224,-1.855950117111206
1779997443924398000,1.616398193359375,10.036050796508789,-0.07005000114440918,-1.8220500946044922
1779997443941674500,1.633674560546875,10.675050735473633,-0.08700000494718552,-1.8730500936508179
1779997443958951000,1.650950927734375,11.170950889587402,-0.12300000339746475,-1.8870000839233398
1779997443976227300,1.668227294921875,11.608050346374512,-0.13005000352859497,-1.8300000429153442
1779997443993503500,1.68550341796875,11.986950874328613,-0.19995000958442688,-1.7910001277923584
1779997444010780000,1.70277978515625,15.258000373840332,-0.33105000853538513,-2.0310001373291016
1779997444028056000,1.72005615234375,18.612001419067383,-0.36705002188682556,-2.074050188064575
1779997444045332700,1.737332763671875,16.264951705932617,-0.07304999977350235,-2.4559500217437744
1779997444062609000,1.75460888671875,6.880050182342529,-0.25005000829696655,-1.9590001106262207
1779997444079885300,1.77188525390625,-7.294950485229492,0.26805001497268677,-0.10395000129938126
1779997444097161700,1.78916162109375,-8.122050285339355,-0.5850000381469727,1.4089500904083252
1779997444114438100,1.806438232421875,-4.40595006942749,0.14595000445842743,0.5700000524520874
1779997444131714300,1.82371435546875,4.603950023651123,1.6390501260757446,-1.6909500360488892
1779997444148990700,1.84099072265625,15.849000930786133,0.7470000386238098,-2.5450501441955566
1779997444166267000,1.858266845703125,56.310001373291016,-4.102050304412842,-2.4250500202178955
1779997444183543300,1.875543212890625,11.343000411987305,-1.059000015258789,-1.5829501152038574
1779997444200819700,1.89281982421875,2.367000102996826,1.5079500675201416,-0.9439500570297241
1779997444218096000,1.91009619140625,-5.050050258636475,-0.2760000228881836,0.739050030708313
1779997444235372500,1.92737255859375,-6.778050422668457,-0.5080500245094299,1.5150001049041748
1779997444252648700,1.944648681640625,-3.3510000705718994,0.06000000238418579,0.5820000171661377
1779997444269925000,1.961925048828125,4.674000263214111,0.6079500317573547,-1.4350500106811523
1779997444287201300,1.979201171875,23.500951766967773,-0.6349500417709351,-2.320050001144409
1779997444304477700,1.996477783203125,36.511051177978516,-1.450950026512146,-1.9180500507354736
1779997444321754000,2.013754150390625,15.346050262451172,0.7969500422477722,-1.9950001239776611
1779997444339030300,2.0310302734375,18.67905044555664,-1.0440000295639038,-1.2619500160217285
1779997444356306700,2.048306640625,-3.397050142288208,-0.19200000166893005,-0.41505002975463867
1779997444373583000,2.0655830078125,-6.318000316619873,-0.2569500207901001,1.1299500465393066
1779997444390859300,2.082859375,-4.978050231933594,0.040950000286102295,0.9670500755310059
1779997444408135700,2.1001357421875,1.6489500999450684,1.4100000858306885,-0.9540000557899475
1779997444425412000,2.117412109375,11.946000099182129,1.221000075340271,-2.4060001373291016
1779997444442688300,2.134688232421875,47.57100296020508,-3.4300501346588135,-1.954050064086914
1779997444459964700,2.151964599609375,18.946950912475586,-1.3429501056671143,-1.3579500913619995
1779997444477241000,2.169240966796875,5.985000133514404,1.4650501012802124,-0.8800500631332397
1779997444494517500,2.186517578125,-1.7209501266479492,0.14400000870227814,0.2970000207424164
1779997444511794000,2.2037939453125,-4.3560004234313965,-0.34800001978874207,1.1220000982284546
1779997444529070300,2.2210703125,-2.449050188064575,-0.06300000101327896,0.5410500168800354
1779997444546346500,2.238346435546875,4.4730000495910645,0.05505000427365303,-0.6949500441551208
1779997444563623000,2.255622802734375,18.757951736450195,-0.23100000619888306,-1.6309500932693481
1779997444580899300,2.2728994140625,27.844051361083984,-0.5370000004768372,-1.7269500494003296
1779997444598175700,2.29017578125,24.166051864624023,-0.30300000309944153,-1.6930500268936157
1779997444615452000,2.307451904296875,14.631000518798828,-0.24795001745224,-1.3530000448226929
1779997444632728300,2.324728271484375,0.31200000643730164,0.09105000644922256,-0.20205001533031464
1779997444650004700,2.342004638671875,-4.5259504318237305,-0.09405000507831573,0.9450000524520874
1779997444667281000,2.359281005859375,-4.1449503898620605,-0.06795000284910202,0.7950000166893005
1779997444684557300,2.376557373046875,1.8379501104354858,0.5890500545501709,-0.5760000348091125
1779997444701833700,2.393833740234375,12.685050964355469,0.1969500035047531,-1.5730500221252441
1779997444719110000,2.41110986328125,38.78205108642578,-2.041949987411499,-1.831950068473816
1779997444736386300,2.42838623046875,14.917950630187988,0.690000057220459,-1.7220001220703125
1779997444753662500,2.445662353515625,18.4189510345459,-0.1469999998807907,-1.0969500541687012
1779997444770939000,2.46293896484375,4.260000228881836,-0.9529500603675842,-0.08700000494718552
1779997444788215300,2.48021533203125,-4.411050319671631,0.13395000994205475,1.1650500297546387
1779997444805491700,2.49749169921875,-4.45395040512085,0.028950002044439316,1.0309500694274902
1779997444822768000,2.51476806640625,0.5680500268936157,0.7159500122070312,-0.24495001137256622
1779997444840044500,2.53204443359375,8.646000862121582,1.218000054359436,-1.5229500532150269
1779997444857320700,2.54932080078125,37.37295150756836,-2.362950086593628,-1.5949500799179077
1779997444874597000,2.56659716796875,19.84695053100586,-0.9799500703811646,-0.8839500546455383
1779997444891873500,2.58387353515625,8.138999938964844,1.180050015449524,-0.8530500531196594
1779997444909150000,2.60114990234375,5.614050388336182,-0.49605002999305725,0.031050002202391624
1779997444926426000,2.618426025390625,2.8410000801086426,-1.3050000667572021,0.7800000309944153
1779997444943702500,2.63570263671875,-3.979950189590454,0.18495000898838043,1.2229501008987427
1779997444960979000,2.65297900390625,0.10095000267028809,0.6199500560760498,0.14400000870227814
1779997444978255000,2.670255126953125,7.383000373840332,1.1130000352859497,-1.1380500793457031
1779997444995531500,2.687531494140625,26.851051330566406,-1.3099501132965088,-1.5810000896453857
1779997445012808000,2.704807861328125,27.83700180053711,-1.9390500783920288,-1.0660500526428223
1779997445030084400,2.72208447265625,9.04800033569336,1.7179501056671143,-1.4710500240325928
1779997445047360800,2.73936083984375,3.867000102996826,0.48600003123283386,0.11505000293254852
1779997445064637000,2.756636962890625,7.978050231933594,-1.5400500297546387,0.5740500092506409
1779997445081913300,2.773913330078125,-3.1120500564575195,0.2350500077009201,0.5770500302314758
1779997445099189800,2.791189697265625,1.218000054359436,0.6580500602722168,0.022050000727176666
1779997445116466000,2.8084658203125,7.063950538635254,0.6780000329017639,-1.0110000371932983
1779997445133742600,2.82574267578125,28.51905059814453,-1.3000500202178955,-1.3819500207901
1779997445151018800,2.843018798828125,19.68195152282715,-0.8550000190734863,-0.7480500340461731
1779997445168295200,2.860295166015625,8.620050430297852,1.0699501037597656,-1.1069999933242798
1779997445185571300,2.8775712890625,13.681050300598145,-1.0420500040054321,-0.06405000388622284
1779997445202847700,2.89484765625,0.3349500298500061,-0.3769500255584717,0.33000001311302185
1779997445220124200,2.912124267578125,-1.4680501222610474,0.48900002241134644,0.6390000581741333
1779997445237400300,2.929400390625,1.3189500570297241,0.43095001578330994,0.0070500001311302185
1779997445254677000,2.946677001953125,7.018950462341309,0.6679500341415405,-0.7720500230789185
1779997445271953200,2.963953125,31.077001571655273,-1.7860500812530518,-1.225950002670288
1779997445289229600,2.9812294921875,13.690051078796387,-0.286050021648407,-0.625950038433075
1779997445306506000,2.998506103515625,10.374000549316406,0.7129500508308411,-0.8050500154495239
1779997445323782100,3.0157822265625,17.785051345825195,-1.546950101852417,-0.5800500512123108
1779997445341058600,3.03305859375,-0.6540000438690186,0.0580500029027462,-0.15000000596046448
1779997445358335000,3.0503349609375,-1.2619500160217285,0.6490500569343567,0.25394999980926514
1779997445375611400,3.067611328125,1.2060000896453857,0.18495000898838043,0.0690000057220459
1779997445392887800,3.0848876953125,8.124000549316406,0.015000000596046448,-0.6640500426292419
1779997445410164200,3.102164306640625,26.56395149230957,-1.377000093460083,-1.0369499921798706
1779997445427440400,3.1194404296875,11.875950813293457,0.5119500160217285,-1.144950032234192
1779997445444716800,3.136716796875,20.75400161743164,-0.43905001878738403,-0.8340000510215759
1779997445461993000,3.153992919921875,9.172050476074219,-0.6139500141143799,-0.27900001406669617
1779997445479269600,3.17126953125,0.690000057220459,0.49800002574920654,0.14400000870227814
1779997445496545800,3.1885458984375,0.004950000438839197,0.19200000166893005,0.46695002913475037
1779997445513822200,3.205822265625,4.932000160217285,-0.43695002794265747,0.18900001049041748
1779997445531098600,3.2230986328125,9.718050003051758,-0.025050001218914986,-0.42195001244544983
1779997445548375000,3.240375,15.415950775146484,-0.08505000174045563,-0.9900000691413879
1779997445565651200,3.257651123046875,21.81705093383789,-0.6349500417709351,-1.0350000858306885
1779997445582927600,3.274927734375,14.389050483703613,0.06495000422000885,-0.9030000567436218
1779997445600204000,3.2922041015625,11.434050559997559,-0.27900001406669617,-0.46995002031326294
1779997445617480400,3.30948046875,2.3959500789642334,0.010050000622868538,0.16005000472068787
1779997445634756900,3.3267568359375,0.09600000083446503,0.18495000898838043,0.4519500136375427
1779997445652033000,3.344032958984375,3.5400002002716064,-0.09195000678300858,0.17205001413822174
1779997445669309400,3.361309326171875,9.972000122070312,-0.12105000764131546,-0.44895002245903015
1779997445686586000,3.378586181640625,15.931950569152832,-0.13305000960826874,-0.9130500555038452
1779997445703862300,3.3958623046875,20.118000030517578,-0.4339500069618225,-0.999000072479248
1779997445721138700,3.413138671875,15.907950401306152,-0.20400001108646393,-0.9010500311851501
1779997445738414800,3.430414794921875,10.339950561523438,-0.19200000166893005,-0.492000013589859
1779997445755691500,3.44769140625,3.327000141143799,-0.05595000088214874,0.12195000797510147
1779997445772967700,3.4649677734375,0.6270000338554382,0.13199999928474426,0.43095001578330994
1779997445790244000,3.482244140625,3.157050132751465,0.08205000311136246,0.18000000715255737
1779997445807520500,3.4995205078125,9.658050537109375,-0.208950012922287,-0.35805001854896545
1779997445824796700,3.516796630859375,15.97800064086914,-0.22605000436306,-0.8460000157356262
1779997445842073000,3.534072998046875,19.261051177978516,-0.2880000174045563,-0.9679500460624695
1779997445859349200,3.551349365234375,16.485000610351562,-0.2950500249862671,-0.8029500246047974
1779997445876626000,3.5686259765625,9.969000816345215,-0.09195000678300858,-0.46605002880096436
1779997445893902000,3.585902099609375,3.721050262451172,0.022050000727176666,0.08400000631809235
1779997445911178500,3.603178466796875,0.9670500755310059,0.016950000077486038,0.4120500087738037
1779997445928455000,3.620454833984375,3.0900001525878906,0.031050002202391624,0.15600000321865082
1779997445945731000,3.63773095703125,9.667950630187988,-0.1660500019788742,-0.3720000088214874
1779997445963007700,3.6550078125,15.790950775146484,-0.24000000953674316,-0.8130000233650208
1779997445980284200,3.6722841796875,18.99795150756836,-0.25200000405311584,-0.9850500226020813
1779997445997560300,3.689560302734375,16.509000778198242,-0.30705001950263977,-0.8239500522613525
1779997446014836700,3.706836669921875,9.973950386047363,-0.07304999977350235,-0.4339500069618225
1779997446032113200,3.724113037109375,4.030050277709961,0.004950000438839197,0.06195000186562538
1779997446049389600,3.7413896484375,1.1440500020980835,0.0580500029027462,0.3570000231266022
1779997446066666000,3.758666015625,3.1660501956939697,0.015000000596046448,0.1680000126361847
1779997446083942100,3.775942138671875,9.60300064086914,-0.17805001139640808,-0.3960000276565552
1779997446101218600,3.793218505859375,15.535050392150879,-0.22095000743865967,-0.9490500688552856
1779997446118495000,3.810494873046875,18.897001266479492,-0.3049500286579132,-1.0660500526428223
1779997446135771400,3.827771484375,16.576051712036133,-0.2760000228881836,-0.8130000233650208
1779997446153047800,3.8450478515625,10.194000244140625,-0.13695000112056732,-0.38895002007484436
1779997446170324200,3.86232421875,4.276950359344482,-0.05400000140070915,0.004950000438839197
1779997446187600400,3.879600341796875,1.2330000400543213,0.11805000901222229,0.3520500063896179
1779997446204876800,3.896876708984375,3.115950107574463,-0.05595000088214874,0.30195000767707825
1779997446222153200,3.9141533203125,9.385050773620605,-0.12105000764131546,-0.3439500033855438
1779997446239429600,3.9314296875,15.199951171875,-0.18300001323223114,-0.8700000643730164
1779997446256706000,3.9487060546875,18.742050170898438,-0.286050021648407,-0.9390000700950623
1779997446273982200,3.965982177734375,16.49505043029785,-0.18300001323223114,-0.7480500340461731
1779997446291258600,3.983258544921875,10.366950035095215,-0.09195000678300858,-0.41505002975463867
1779997446308535000,4.00053515625,4.41795015335083,-0.030000001192092896,0.031050002202391624
1779997446325811500,4.0178115234375,1.3570500612258911,0.015000000596046448,0.36900001764297485
1779997446343087900,4.035087890625,3.223950147628784,0.034050002694129944,0.26295000314712524
1779997446360364300,4.0523642578125,9.156000137329102,-0.17100000381469727,-0.28395000100135803
1779997446377640700,4.069640625,15.052050590515137,-0.17295001447200775,-0.8359500169754028
1779997446394917000,4.086917236328125,18.506999969482422,-0.2950500249862671,-0.9420000314712524
1779997446412193300,4.104193359375,16.522951126098633,-0.286050021648407,-0.7620000243186951
1779997446429469700,4.1214697265625,10.558050155639648,-0.07005000114440918,-0.5089499950408936
1779997446446746000,4.13874609375,4.6620001792907715,-0.04200000315904617,0.013950000517070293
1779997446464022300,4.156022216796875,1.6110000610351562,-0.010950000956654549,0.3829500079154968
1779997446481298700,4.173298583984375,3.2430002689361572,0.003000000026077032,0.18000000715255737
1779997446498575400,4.190575439453125,8.962050437927246,-0.10905000567436218,-0.32895001769065857
1779997446515851500,4.2078515625,14.857951164245605,-0.21900001168251038,-0.7170000076293945
1779997446533128000,4.2251279296875,18.289051055908203,-0.23595000803470612,-0.8940000534057617
1779997446550404400,4.242404296875,16.480051040649414,-0.24495001137256622,-0.8359500169754028
1779997446567680800,4.2596806640625,10.680000305175781,-0.1279500126838684,-0.4729500114917755
1779997446584957200,4.276957275390625,4.843950271606445,-0.05100000277161598,0.0499500036239624
1779997446602233600,4.294233642578125,1.8190500736236572,0.022050000727176666,0.2749500274658203
1779997446619509800,4.311509765625,3.331050157546997,0.07500000298023224,0.20595000684261322
1779997446636786200,4.3287861328125,8.833050727844238,-0.16395001113414764,-0.23100000619888306
1779997446654062600,4.3460625,14.701951026916504,-0.1469999998807907,-0.7480500340461731
1779997446671339000,4.363339111328125,18,-0.2639999985694885,-0.931950032711029
1779997446688615400,4.380615478515625,16.49700164794922,-0.2639999985694885,-0.7669500112533569
1779997446705891800,4.397891845703125,10.756950378417969,-0.11595000326633453,-0.43905001878738403
1779997446723168000,4.41516796875,5.068950176239014,-0.05595000088214874,0.016950000077486038
1779997446740444400,4.4324443359375,1.9750500917434692,0.04605000093579292,0.34905001521110535
1779997446757720800,4.449720947265625,3.324000120162964,0.016950000077486038,0.2440500110387802
1779997446774997200,4.466997314453125,8.734950065612793,-0.12105000764131546,-0.2770500183105469
1779997446792273400,4.4842734375,14.422050476074219,-0.15405000746250153,-0.7410000562667847
1779997446809550000,4.501550048828125,17.866050720214844,-0.26205000281333923,-0.8530500531196594
1779997446826826200,4.518826171875,16.413000106811523,-0.25905001163482666,-0.7570500373840332
1779997446844102700,4.5361025390625,10.903050422668457,-0.11100000888109207,-0.492000013589859
1779997446861379000,4.553379150390625,5.2860002517700195,-0.046950001269578934,-0.019950000569224358
1779997446878655200,4.5706552734375,2.1130499839782715,0.022050000727176666,0.37095001339912415
1779997446895932000,4.587931884765625,3.4099502563476562,-0.00795000046491623,0.24195000529289246
1779997446913208000,4.6052080078125,8.562000274658203,-0.1279500126838684,-0.27900001406669617
1779997446930484500,4.622484375,14.206951141357422,-0.17595000565052032,-0.6930000185966492
1779997446947761000,4.639760986328125,17.701051712036133,-0.25005000829696655,-0.8340000510215759
1779997446965037300,4.657037353515625,16.38195037841797,-0.24495001137256622,-0.8220000267028809
1779997446982313700,4.674313720703125,11.094000816345215,-0.1279500126838684,-0.5250000357627869
1779997446999590100,4.691590087890625,5.509050369262695,-0.06105000153183937,-0.0010500000789761543
1779997447016866300,4.7088662109375,2.311950206756592,0.024000000208616257,0.3570000231266022
1779997447034143000,4.72614306640625,3.433950185775757,0.003000000026077032,0.25394999980926514
1779997447051419100,4.743419189453125,8.361000061035156,-0.07304999977350235,-0.22605000436306
1779997447068695600,4.760695556640625,13.965001106262207,-0.17805001139640808,-0.6589500308036804
1779997447085972000,4.777971923828125,17.45400047302246,-0.2689500153064728,-0.8479500412940979
1779997447103248100,4.795248046875,16.33005142211914,-0.24000000953674316,-0.817050039768219
1779997447120524500,4.812524658203125,11.269050598144531,-0.15405000746250153,-0.49695003032684326
1779997447137801000,4.829801025390625,5.731050491333008,-0.043950002640485764,-0.016050001606345177
1779997447155077400,4.847077392578125,2.499000072479248,0.00795000046491623,0.325950026512146
1779997447172353500,4.864353515625,3.4800002574920654,-0.05595000088214874,0.20805001258850098
1779997447189630200,4.881630126953125,8.230050086975098,-0.08205000311136246,-0.2550000250339508
1779997447206906600,4.89890673828125,13.767000198364258,-0.15195000171661377,-0.6570000052452087
1779997447224182800,4.916182861328125,17.281949996948242,-0.2880000174045563,-0.8239500522613525
1779997447241459200,4.933459228515625,16.27695083618164,-0.24000000953674316,-0.7810500264167786
1779997447258735600,4.950735595703125,11.380950927734375,-0.13005000352859497,-0.48705002665519714
1779997447276012000,4.968011962890625,5.9160003662109375,-0.06300000101327896,-0.018000001087784767
1779997447293288400,4.985288330078125,2.635050058364868,0.012000000104308128,0.3349500298500061
1779997447310564900,5.00256494140625,3.4960501194000244,0.00795000046491623,0.2370000183582306
1779997447327841300,5.01984130859375,8.032950401306152,-0.11805000901222229,-0.16905000805854797
1779997447345117700,5.03711767578125,13.554000854492188,-0.14205001294612885,-0.6040500402450562
1779997447362393900,5.054393798828125,17.052000045776367,-0.23295001685619354,-0.8130000233650208
1779997447379670500,5.07167041015625,16.260000228881836,-0.22395001351833344,-0.7290000319480896
1779997447396947000,5.088947021484375,11.494050979614258,-0.10200000554323196,-0.4459500312805176
1779997447414223000,5.10622314453125,6.1050004959106445,-0.10605000704526901,-0.06105000153183937
1779997447440138000,5.132137939453125,2.707050085067749,0.036000002175569534,0.25095000863075256
1779997447457414100,5.1494140625,5.454000473022461,-0.0580500029027462,0.037950001657009125
1779997447474690600,5.166690673828125,10.837950706481934,-0.17100000381469727,-0.41505002975463867
1779997447491967200,5.18396728515625,15.628951072692871,-0.18495000898838043,-0.7740000486373901
1779997447509243400,5.201243408203125,17.160001754760742,-0.27900001406669617,-0.7909500598907471
1779997447526519800,5.218519775390625,14.131051063537598,-0.22095000743865967,-0.612000048160553
1779997447543796200,5.235796142578125,8.836950302124023,-0.07500000298023224,-0.3150000274181366
1779997447561072600,5.25307275390625,4.188000202178955,-0.00795000046491623,0.14805001020431519
1779997447578349000,5.27034912109375,2.824050188064575,0.028950002044439316,0.35895001888275146
1779997447595625500,5.28762548828125,5.44005012512207,-0.019950000569224358,0.08400000631809235
1779997447612901600,5.304901611328125,10.635000228881836,-0.11595000326633453,-0.41505002975463867
1779997447630178300,5.32217822265625,15.40095043182373,-0.1969500035047531,-0.7170000076293945
1779997447647454500,5.339454345703125,17.00400161743164,-0.24300001561641693,-0.7620000243186951
1779997447664731000,5.35673095703125,14.158950805664062,-0.17595000565052032,-0.625950038433075
1779997447682007600,5.374007568359375,9.028950691223145,-0.08205000311136246,-0.31005001068115234
1779997447699283700,5.39128369140625,4.40595006942749,-0.037050001323223114,0.1290000081062317
1779997447716560100,5.40856005859375,2.9509501457214355,-0.018000001087784767,0.29205000400543213
1779997447733836800,5.4258369140625,5.449050426483154,-0.05100000277161598,0.034050002694129944
1779997447751113000,5.443113037109375,10.52400016784668,-0.1279500126838684,-0.3940500319004059
1779997447768389600,5.4603896484375,15.25005054473877,-0.19995000958442688,-0.6880500316619873
1779997447785666000,5.477666015625,16.882051467895508,-0.20400001108646393,-0.7480500340461731
1779997447802942200,5.494942138671875,14.149950981140137,-0.17100000381469727,-0.5879999995231628
1779997447820219000,5.512218994140625,9.105000495910645,-0.11805000901222229,-0.2670000195503235
1779997447837495300,5.529495361328125,4.522950172424316,-0.013050000183284283,0.11700000613927841
1779997447854771500,5.546771484375,3.0490500926971436,0.039000000804662704,0.32805001735687256
1779997447872047900,5.5640478515625,5.4280500411987305,-0.04905000329017639,0.09795000404119492
1779997447889324500,5.581324462890625,10.393050193786621,-0.11100000888109207,-0.38700002431869507
1779997447906600700,5.5986005859375,15.052050590515137,-0.20205001533031464,-0.7140000462532043
1779997447923877000,5.615877197265625,16.791000366210938,-0.24000000953674316,-0.7570500373840332
1779997447941153500,5.633153564453125,14.19795036315918,-0.18300001323223114,-0.625950038433075
1779997447958430000,5.650429931640625,9.285000801086426,-0.10200000554323196,-0.3079500198364258
1779997447975706600,5.66770654296875,4.7310004234313965,-0.06105000153183937,0.09300000220537186
1779997447992982800,5.684982666015625,3.172950267791748,0.00795000046491623,0.2749500274658203
1779997448010259200,5.70225927734375,5.422950267791748,-0.043950002640485764,0.07200000435113907
1779997448027536000,5.719535888671875,10.240050315856934,-0.1489500105381012,-0.34095001220703125
1779997448044812300,5.736812255859375,14.85300064086914,-0.16095000505447388,-0.6810000538825989
1779997448062088400,5.75408837890625,16.61400032043457,-0.23805001378059387,-0.7380000352859497
1779997448079365000,5.771365234375,14.238000869750977,-0.2070000171661377,-0.6400500535964966
1779997448096641300,5.788641357421875,9.414000511169434,-0.09000000357627869,-0.3630000054836273
1779997448113918000,5.80591796875,4.980000019073486,-0.05595000088214874,0.08100000023841858
1779997448131194400,5.8231943359375,3.3600001335144043,-0.019950000569224358,0.2659500241279602
1779997448148470800,5.840470703125,5.449050426483154,-0.022950001060962677,0.019050000235438347
1779997448165747200,5.857747314453125,10.16100025177002,-0.13005000352859497,-0.3769500255584717
1779997448183023600,5.875023681640625,14.689950942993164,-0.21900001168251038,-0.6690000295639038
1779997448200299800,5.8922998046875,16.509000778198242,-0.24300001561641693,-0.7620000243186951
1779997448217576400,5.909576416015625,14.224050521850586,-0.19005000591278076,-0.609000027179718
1779997448234852900,5.926852783203125,9.522000312805176,-0.11100000888109207,-0.2530499994754791
1779997448252129300,5.94412939453125,5.077950477600098,-0.043950002640485764,0.11505000293254852
1779997448269405700,5.96140576171875,3.3700501918792725,0.016950000077486038,0.2939999997615814
1779997448286682000,5.97868212890625,5.361000061035156,-0.022950001060962677,0.12495000660419464
1779997448303958500,5.99595849609375,9.949950218200684,-0.11100000888109207,-0.27195000648498535
1779997448321235000,6.01323486328125,14.439001083374023,-0.17805001139640808,-0.6430500149726868
1779997448338511400,6.030511474609375,16.368000030517578,-0.23595000803470612,-0.7720500230789185
1779997448355787800,6.047787841796875,14.278950691223145,-0.21405000984668732,-0.62295001745224
1779997448373064200,6.065064208984375,9.735000610351562,-0.13005000352859497,-0.3340500295162201
1779997448390340600,6.082340576171875,5.337000370025635,-0.06300000101327896,0.024000000208616257
1779997448407617000,6.099616943359375,3.5659501552581787,-0.013050000183284283,0.2350500077009201
1779997448424893700,6.116893798828125,5.418000221252441,-0.025050001218914986,0.05295000225305557
1779997448442170000,6.134170166015625,9.856950759887695,-0.09405000507831573,-0.3150000274181366
1779997448459446500,6.151446533203125,14.296051025390625,-0.19005000591278076,-0.6160500049591064
1779997448476723000,6.168722900390625,16.227001190185547,-0.25005000829696655,-0.7260000109672546
1779997448493999400,6.185999267578125,14.253000259399414,-0.20205001533031464,-0.62295001745224
1779997448511275800,6.20327587890625,9.819000244140625,-0.13305000960826874,-0.31005001068115234
1779997448528552200,6.22055224609375,5.482950210571289,-0.05100000277161598,0.06495000422000885
1779997448545828600,6.23782861328125,3.6690001487731934,-0.003000000026077032,0.2350500077009201
1779997448563105000,6.25510498046875,5.406000137329102,-0.034950003027915955,0.07905000448226929
1779997448580381700,6.272381591796875,9.730050086975098,-0.12105000764131546,-0.29295000433921814
1779997448597657900,6.289657958984375,14.110950469970703,-0.19200000166893005,-0.6070500016212463
1779997448614934300,6.306934326171875,16.09800148010254,-0.24495001137256622,-0.7240500450134277
1779997448632210700,6.324210693359375,14.248050689697266,-0.2070000171661377,-0.62295001745224
1779997448649487000,6.341487060546875,9.933000564575195,-0.11400000751018524,-0.3360000252723694
1779997448666763800,6.358763671875,5.635950088500977,-0.05100000277161598,0.013950000517070293
1779997448684040200,6.376040283203125,3.8239502906799316,-0.013050000183284283,0.2179500162601471
1779997448701316600,6.393316650390625,5.443950176239014,-0.07005000114440918,0.0690000057220459
1779997448718593000,6.410593017578125,9.664950370788574,-0.11595000326633453,-0.28395000100135803
1779997448735869700,6.42786962890625,13.932001113891602,-0.18495000898838043,-0.5879999995231628
1779997448753146000,6.44514599609375,15.970951080322266,-0.23295001685619354,-0.6790500283241272
1779997448770422300,6.46242236328125,14.20995044708252,-0.18300001323223114,-0.5730000138282776
1779997448787699000,6.479698974609375,9.993000030517578,-0.13005000352859497,-0.3169500231742859
1779997448804975400,6.496975341796875,5.770050048828125,-0.046950001269578934,0.04605000093579292
1779997448822251800,6.514251708984375,3.9060001373291016,-0.018000001087784767,0.26100000739097595
1779997448839528200,6.531528076171875,5.479950428009033,-0.030000001192092896,0.07695000618696213
1779997448856804600,6.5488046875,9.55305004119873,-0.08700000494718552,-0.30300000309944153
1779997448874081000,6.5660810546875,13.812000274658203,-0.17295001447200775,-0.5680500268936157
1779997448891357700,6.583357666015625,15.844050407409668,-0.23100000619888306,-0.6690000295639038
1779997448908633900,6.6006337890625,14.206951141357422,-0.1969500035047531,-0.6070500016212463
1779997448925910500,6.61791064453125,10.101000785827637,-0.11595000326633453,-0.3630000054836273
1779997448943187000,6.63518701171875,5.91795015335083,-0.046950001269578934,0.0019500000635161996
1779997448960463000,6.652463134765625,4.054049968719482,-0.030000001192092896,0.20100000500679016
1779997448977739800,6.66973974609375,5.491950035095215,-0.04200000315904617,0.0580500029027462
1779997448995016400,6.687016357421875,9.493050575256348,-0.11805000901222229,-0.2689500153064728
1779997449012292600,6.704292724609375,13.666050910949707,-0.18300001323223114,-0.5490000247955322
1779997449029569000,6.721569091796875,15.70305061340332,-0.2070000171661377,-0.6810000538825989
1779997449046845700,6.738845703125,14.18595027923584,-0.19995000958442688,-0.5879999995231628
1779997449064121900,6.756121826171875,10.182000160217285,-0.12105000764131546,-0.32895001769065857
1779997449081398500,6.7733984375,6.090000152587891,-0.046950001269578934,0.013950000517070293
1779997449098675000,6.790675048828125,4.176000118255615,-0.018000001087784767,0.20295001566410065
1779997449115951400,6.807951416015625,5.533050060272217,-0.05400000140070915,0.08595000207424164
1779997449133227800,6.825227783203125,9.412050247192383,-0.10395000129938126,-0.27195000648498535
1779997449150504400,6.84250439453125,13.495950698852539,-0.17295001447200775,-0.5470499992370605
1779997449167780900,6.85978076171875,15.583050727844238,-0.22395001351833344,-0.6499500274658203
1779997449185057300,6.877057373046875,14.154000282287598,-0.2070000171661377,-0.6000000238418579
1779997449202333700,6.894333740234375,10.285050392150879,-0.13695000112056732,-0.3630000054836273
1779997449219610000,6.911610107421875,6.226950168609619,-0.05100000277161598,-0.006000000052154064
1779997449236886500,6.928886474609375,4.3030500411987305,-0.037050001323223114,0.20295001566410065
1779997449254163200,6.9461630859375,5.571000099182129,-0.04905000329017639,0.07200000435113907
1779997449271439600,6.963439697265625,9.330000877380371,-0.11595000326633453,-0.27195000648498535
1779997449288716000,6.980716064453125,13.366950988769531,-0.16395001113414764,-0.5370000004768372
1779997449305992400,6.997992431640625,15.439050674438477,-0.2160000056028366,-0.625950038433075
1779997449323268900,7.015268798828125,14.133000373840332,-0.19005000591278076,-0.5779500007629395
1779997449340545300,7.032545166015625,10.339950561523438,-0.11805000901222229,-0.35100001096725464
1779997449357822000,7.049822021484375,6.361050128936768,-0.0580500029027462,-0.010950000956654549
1779997449375098400,7.067098388671875,4.414950370788574,-0.025050001218914986,0.18195000290870667
1779997449392374800,7.084374755859375,5.596950054168701,-0.04200000315904617,0.06705000251531601
1779997449409651200,7.101651123046875,9.265950202941895,-0.11100000888109207,-0.25995001196861267
1779997449426927900,7.118927978515625,13.245000839233398,-0.1879500150680542,-0.5230500102043152
1779997449444204300,7.136204345703125,15.349050521850586,-0.2160000056028366,-0.6499500274658203
1779997449461480700,7.153480712890625,14.109000205993652,-0.19005000591278076,-0.5920500159263611
1779997449478757000,7.170757080078125,10.434000968933105,-0.14205001294612885,-0.3550500273704529
1779997449496033500,7.188033447265625,6.496950149536133,-0.08505000174045563,-0.031950000673532486
1779997449513310000,7.20531005859375,4.521000385284424,-0.025050001218914986,0.16500000655651093
1779997449530586600,7.222586669921875,5.6260504722595215,-0.05400000140070915,0.08400000631809235
1779997449547863000,7.239863037109375,9.181950569152832,-0.08505000174045563,-0.2050500065088272
1779997449565139500,7.257139404296875,13.093950271606445,-0.1570500135421753,-0.49695003032684326
1779997449582416100,7.274416015625,15.195000648498535,-0.21405000984668732,-0.6330000162124634
1779997449599692300,7.2916923828125,14.04900074005127,-0.17595000565052032,-0.5710500478744507
1779997449616968700,7.30896875,10.510050773620605,-0.13005000352859497,-0.3340500295162201
1779997449634245400,7.326245361328125,6.613950252532959,-0.06105000153183937,-0.030000001192092896
1779997449651521800,7.343521728515625,4.647000312805176,-0.027000000700354576,0.14100000262260437
1779997449668798200,7.360798095703125,5.671950340270996,-0.05400000140070915,0.06495000422000885
1779997449686075000,7.378074951171875,9.136950492858887,-0.10200000554323196,-0.23295001685619354
1779997449703351300,7.395351318359375,13.006051063537598,-0.17295001447200775,-0.5059500336647034
1779997449720627700,7.412627685546875,15.093000411987305,-0.21405000984668732,-0.6330000162124634
1779997449737904000,7.429904052734375,14.035050392150879,-0.19005000591278076,-0.5640000104904175
1779997449755180800,7.447180908203125,10.558050155639648,-0.14505000412464142,-0.34095001220703125
1779997449772457000,7.46445703125,6.744000434875488,-0.05100000277161598,-0.05400000140070915
1779997449789733600,7.481733642578125,4.753050327301025,-0.025050001218914986,0.16305001080036163
1779997449807010300,7.49901025390625,5.692950248718262,-0.043950002640485764,0.09300000220537186
1779997449824286700,7.51628662109375,9.067049980163574,-0.0990000069141388,-0.21405000984668732
1779997449841563100,7.533563232421875,12.862051010131836,-0.1570500135421753,-0.48900002241134644
1779997449858839600,7.550839599609375,14.965950965881348,-0.19995000958442688,-0.5879999995231628
1779997449876116200,7.5681162109375,13.98900032043457,-0.19005000591278076,-0.5250000357627869
1779997449893392400,7.585392333984375,10.618050575256348,-0.11805000901222229,-0.3340500295162201
1779997449910669000,7.6026689453125,6.847050189971924,-0.05595000088214874,-0.06405000388622284
1779997449927945500,7.619945556640625,4.858050346374512,-0.04905000329017639,0.14595000445842743
1779997449945222000,7.637221923828125,5.752950191497803,-0.039000000804662704,0.06195000186562538
1779997449962498300,7.654498291015625,9.031050682067871,-0.0990000069141388,-0.22905001044273376
1779997449979775000,7.67177490234375,12.77400016784668,-0.17295001447200775,-0.4849500358104706
1779997449997051100,7.689051025390625,14.884050369262695,-0.20400001108646393,-0.609000027179718
1779997450014327800,7.706327880859375,13.963050842285156,-0.19500000774860382,-0.5590500235557556
1779997450031604200,7.723604248046875,10.669950485229492,-0.13695000112056732,-0.364950031042099
1779997450048881000,7.740880859375,6.970950126647949,-0.07304999977350235,-0.06405000388622284
1779997450066157300,7.7581572265625,4.963050365447998,-0.04905000329017639,0.14100000262260437
1779997450083433700,7.775433837890625,5.779050350189209,-0.04200000315904617,0.07395000010728836
1779997450100710100,7.792710205078125,8.952000617980957,-0.09405000507831573,-0.19500000774860382
1779997450117986600,7.809986572265625,12.657000541687012,-0.15900000929832458,-0.45795002579689026
1779997450135263200,7.82726318359375,14.757000923156738,-0.19500000774860382,-0.5899500250816345
1779997450152539400,7.844539306640625,13.908000946044922,-0.1879500150680542,-0.5370000004768372
1779997450169816000,7.861816162109375,10.713000297546387,-0.1279500126838684,-0.33900001645088196
1779997450187092500,7.879092529296875,7.063950538635254,-0.06300000101327896,-0.05895000323653221
1779997450204369000,7.896368896484375,5.073000431060791,-0.043950002640485764,0.13199999928474426
1779997450221645600,7.9136455078125,5.81505012512207,-0.05400000140070915,0.06000000238418579
1779997450238922000,7.930921875,8.928000450134277,-0.10395000129938126,-0.20205001533031464
1779997450256198400,7.948198486328125,12.556050300598145,-0.16395001113414764,-0.46995002031326294
1779997450273474800,7.965474853515625,14.680951118469238,-0.20400001108646393,-0.583050012588501
1779997450290751500,7.98275146484375,13.88895034790039,-0.18495000898838043,-0.5400000214576721
1779997450308028000,8.00002783203125,10.76400089263916,-0.13695000112056732,-0.36000001430511475
1779997450325304300,8.01730419921875,7.191000461578369,-0.08505000174045563,-0.07304999977350235
1779997450342580700,8.034580810546874,5.169000148773193,-0.037050001323223114,0.11700000613927841
1779997450359857400,8.051857421875,5.865000247955322,-0.043950002640485764,0.0690000057220459
1779997450377133800,8.0691337890625,8.860950469970703,-0.11400000751018524,-0.17595000565052032
1779997450394410200,8.08641015625,12.436050415039062,-0.1570500135421753,-0.45600003004074097
1779997450411687000,8.10368701171875,14.551950454711914,-0.18495000898838043,-0.5779500007629395
1779997450428963600,8.120963623046874,13.836000442504883,-0.2070000171661377,-0.5130000114440918
1779997450446239700,8.13823974609375,10.819050788879395,-0.12105000764131546,-0.3460500240325928
1779997450463516200,8.15551611328125,7.282050132751465,-0.06599999964237213,-0.06405000388622284
1779997450480792600,8.17279248046875,5.27400016784668,-0.046950001269578934,0.12495000660419464
1779997450498069200,8.1900693359375,5.884950160980225,-0.046950001269578934,0.06705000251531601
1779997450515345700,8.207345703125,8.821050643920898,-0.0970500037074089,-0.1860000044107437
1779997450532622300,8.224622314453125,12.345000267028809,-0.15900000929832458,-0.4420500099658966
1779997450549898500,8.2418984375,14.461050987243652,-0.19500000774860382,-0.5659500360488892
1779997450567175200,8.259175048828125,13.803000450134277,-0.18495000898838043,-0.5400000214576721
1779997450584451800,8.276451904296875,10.86405086517334,-0.13005000352859497,-0.3630000054836273
1779997450601728000,8.29372802734375,7.4160003662109375,-0.0799500048160553,-0.09000000357627869
1779997450619004400,8.31100439453125,5.401050090789795,-0.04200000315904617,0.09300000220537186
1779997450636281000,8.328281005859376,5.95395040512085,-0.05400000140070915,0.04800000041723251
1779997450653557500,8.3455576171875,8.782050132751465,-0.11400000751018524,-0.17595000565052032
1779997450670834000,8.362833984375,12.235050201416016,-0.15195000171661377,-0.42195001244544983
1779997450688110600,8.380110595703124,14.350950241088867,-0.1969500035047531,-0.5659500360488892
1779997450705387000,8.397386962890625,13.76205062866211,-0.18495000898838043,-0.5329500436782837
1779997450722663400,8.414663330078126,10.905000686645508,-0.1469999998807907,-0.35100001096725464
1779997450739940000,8.431940185546875,7.504950523376465,-0.07800000160932541,-0.09195000678300858
1779997450757216500,8.449216552734375,5.490000247955322,-0.04200000315904617,0.10095000267028809
1779997450774493000,8.466492919921874,5.9920501708984375,-0.05100000277161598,0.06000000238418579
1779997450791769300,8.483769287109375,8.743950843811035,-0.08505000174045563,-0.17805001139640808
1779997450809046000,8.5010458984375,12.136950492858887,-0.16095000505447388,-0.42195001244544983
1779997450826322400,8.518322509765625,14.262001037597656,-0.19005000591278076,-0.5490000247955322
1779997450843598800,8.535598876953125,13.705050468444824,-0.19500000774860382,-0.5400000214576721
1779997450860875500,8.55287548828125,10.954950332641602,-0.12105000764131546,-0.34800001978874207
1779997450878152000,8.57015185546875,7.603050231933594,-0.09195000678300858,-0.07304999977350235
1779997450895428400,8.587428466796876,5.590050220489502,-0.043950002640485764,0.09300000220537186
1779997450912704800,8.604704833984375,6.022950172424316,-0.04200000315904617,0.05505000427365303
1779997450929981400,8.6219814453125,8.695950508117676,-0.10395000129938126,-0.15000000596046448
1779997450947257900,8.6392578125,12.037050247192383,-0.1469999998807907,-0.4030500054359436
1779997450964534300,8.6565341796875,14.146950721740723,-0.17100000381469727,-0.544950008392334
1779997450981811000,8.67381103515625,13.67400074005127,-0.19500000774860382,-0.4990500211715698
1779997450999087400,8.69108740234375,10.986000061035156,-0.1399500072002411,-0.3360000252723694
1779997451016363800,8.70836376953125,7.69605016708374,-0.07800000160932541,-0.0970500037074089
1779997451033640200,8.72564013671875,5.698050498962402,-0.039000000804662704,0.07905000448226929
1779997451050916600,8.74291650390625,6.078000068664551,-0.0580500029027462,0.04800000041723251
1779997451068193300,8.760193359375,8.683950424194336,-0.0970500037074089,-0.17805001139640808
1779997451085469700,8.7774697265625,11.950950622558594,-0.15900000929832458,-0.4300500154495239
1779997451102746000,8.79474609375,14.076000213623047,-0.19500000774860382,-0.5539500117301941
1779997451120022500,8.8120224609375,13.635000228881836,-0.18495000898838043,-0.5329500436782837
1779997451137299200,8.82929931640625,11.041050910949707,-0.14205001294612885,-0.37005001306533813
1779997451154575400,8.846575439453124,7.806000232696533,-0.0990000069141388,-0.12600000202655792
1779997451171852000,8.86385205078125,5.800950050354004,-0.06105000153183937,0.06000000238418579
1779997451189128400,8.88112841796875,6.133050441741943,-0.0580500029027462,0.0499500036239624
1779997451206405000,8.898405029296875,8.620050430297852,-0.10200000554323196,-0.15195000171661377
1779997451223681500,8.915681640625,11.85300064086914,-0.13695000112056732,-0.38700002431869507
1779997451240958000,8.9329580078125,13.93695068359375,-0.16905000805854797,-0.527999997138977
1779997451258234600,8.950234619140625,13.578001022338867,-0.19500000774860382,-0.48705002665519714
1779997451275510800,8.9675107421875,11.050950050354004,-0.13695000112056732,-0.3270000219345093
1779997451292787500,8.984787353515625,7.885050296783447,-0.06795000284910202,-0.11100000888109207
1779997451310064000,9.002064208984375,5.889000415802002,-0.04905000329017639,0.07395000010728836
1779997451327340500,9.019340576171874,6.172050476074219,-0.06599999964237213,0.06495000422000885
1779997451344617000,9.036616943359375,8.593050003051758,-0.09195000678300858,-0.1380000114440918
1779997451361893400,9.053893310546876,11.742000579833984,-0.15195000171661377,-0.39900001883506775
1779997451379169800,9.071169677734375,13.848000526428223,-0.17805001139640808,-0.544950008392334
1779997451396446200,9.0884462890625,13.561050415039062,-0.17805001139640808,-0.5299500226974487
1779997451413723000,9.105722900390624,11.122950553894043,-0.1570500135421753,-0.36000001430511475
1779997451430999600,9.12299951171875,8.011950492858887,-0.10200000554323196,-0.13095000386238098
1779997451448276000,9.14027587890625,5.986950397491455,-0.046950001269578934,0.0499500036239624
1779997451465552400,9.157552490234375,6.20805025100708,-0.043950002640485764,0.028950002044439316
1779997451482828800,9.174828857421875,8.538000106811523,-0.09195000678300858,-0.1469999998807907
1779997451500105500,9.19210546875,11.64900016784668,-0.15405000746250153,-0.38895002007484436
1779997451517382000,9.2093818359375,13.767000198364258,-0.17805001139640808,-0.5230500102043152
1779997451534658300,9.226658203125,13.518000602722168,-0.19200000166893005,-0.46095001697540283
1779997451551934700,9.243934814453125,11.142000198364258,-0.12300000339746475,-0.3270000219345093
1779997451569211400,9.26121142578125,8.055000305175781,-0.08205000311136246,-0.11100000888109207
1779997451586487800,9.27848779296875,6.058950424194336,-0.046950001269578934,0.06705000251531601
1779997451603764200,9.29576416015625,6.226950168609619,-0.05100000277161598,0.05295000225305557
1779997451621040600,9.31304052734375,8.517000198364258,-0.10200000554323196,-0.15195000171661377
1779997451638317000,9.330317138671875,11.580000877380371,-0.1399500072002411,-0.3840000033378601
1779997451655593700,9.34759375,13.684950828552246,-0.19500000774860382,-0.5230500102043152
1779997451672870100,9.3648701171875,13.504050254821777,-0.18495000898838043,-0.527999997138977
1779997451690146600,9.382146484375,11.197050094604492,-0.15195000171661377,-0.37005001306533813
1779997451707423200,9.39942333984375,8.187000274658203,-0.10395000129938126,-0.14505000412464142
1779997451724699400,9.416699462890625,6.172050476074219,-0.0580500029027462,0.028950002044439316
1779997451741976000,9.43397607421875,6.294000148773193,-0.05595000088214874,0.022050000727176666
1779997451759252700,9.451252685546875,8.482950210571289,-0.0990000069141388,-0.14295001327991486
1779997451776529200,9.468529052734375,11.491050720214844,-0.13500000536441803,-0.3550500273704529
1779997451793805600,9.4858056640625,13.570950508117676,-0.16905000805854797,-0.48900002241134644
1779997451811082000,9.50308203125,13.42905044555664,-0.1660500019788742,-0.47805002331733704
1779997451828358400,9.5203583984375,11.191950798034668,-0.13695000112056732,-0.33195000886917114
1779997451845635000,9.537635009765625,8.22705078125,-0.10200000554323196,-0.11595000326633453
1779997451862911500,9.554911376953125,6.229050159454346,-0.05100000277161598,0.04605000093579292
1779997451880188000,9.57218798828125,6.319950103759766,-0.05100000277161598,0.04605000093579292
1779997451897464300,9.58946435546875,8.47605037689209,-0.09195000678300858,-0.1399500072002411
1779997451914741000,9.606740966796876,11.42400074005127,-0.1399500072002411,-0.3750000298023224
1779997451932017400,9.624017333984375,13.506000518798828,-0.19005000591278076,-0.5040000081062317
1779997451949293800,9.6412939453125,13.41300106048584,-0.16905000805854797,-0.5059500336647034
1779997451966570500,9.658570556640624,11.242050170898438,-0.13305000960826874,-0.3550500273704529
1779997451983847000,9.675846923828125,8.323050498962402,-0.0970500037074089,-0.13095000386238098
1779997452001123600,9.69312353515625,6.319950103759766,-0.05595000088214874,0.037950001657009125
1779997452018399700,9.710399658203125,6.358050346374512,-0.04905000329017639,0.04305000230669975
1779997452035676400,9.727676513671875,8.41200065612793,-0.08505000174045563,-0.1189500093460083
1779997452052952800,9.744952880859374,11.320950508117676,-0.13500000536441803,-0.34800001978874207
1779997452070229200,9.762229248046875,13.405950546264648,-0.16905000805854797,-0.48900002241134644
1779997452087506000,9.779505859375,13.37700080871582,-0.18300001323223114,-0.47505003213882446
1779997452104782300,9.7967822265625,11.27595043182373,-0.1399500072002411,-0.3439500033855438
1779997452122058500,9.81405859375,8.38800048828125,-0.08700000494718552,-0.1399500072002411
1779997452139335200,9.831335205078124,6.4009504318237305,-0.06795000284910202,0.025950001552700996
1779997452156611800,9.84861181640625,6.394050121307373,-0.06300000101327896,0.034050002694129944
1779997452173888000,9.865887939453126,8.395050048828125,-0.09405000507831573,-0.1469999998807907
1779997452191164700,9.88316455078125,11.266050338745117,-0.1399500072002411,-0.3720000088214874
1779997452208441000,9.900441162109376,13.333950996398926,-0.18300001323223114,-0.5010000467300415
1779997452225717800,9.9177177734375,13.362000465393066,-0.18495000898838043,-0.49695003032684326
1779997452242994200,9.934994140625,11.319000244140625,-0.1489500105381012,-0.3550500273704529
1779997452260270600,9.9522705078125,8.493000030517578,-0.09000000357627869,-0.14505000412464142
1779997452277547000,9.969547119140625,6.490050315856934,-0.07304999977350235,0.028950002044439316
1779997452294823700,9.98682373046875,6.439950466156006,-0.0580500029027462,0.036000002175569534
1779997452312100000,10.00410009765625,8.348999977111816,-0.08700000494718552,-0.1279500126838684
1779997452329376500,10.02137646484375,11.163000106811523,-0.13500000536441803,-0.33195000886917114
1779997452346653000,10.03865283203125,13.228050231933594,-0.1660500019788742,-0.4630500078201294
1779997452363929600,10.0559296875,13.303050994873047,-0.17805001139640808,-0.47805002331733704
1779997452381206000,10.0732060546875,11.34795093536377,-0.13500000536441803,-0.3460500240325928
1779997452398482400,10.090482421875,8.562000274658203,-0.10200000554323196,-0.15000000596046448
1779997452415759000,10.107759033203125,6.57105016708374,-0.05595000088214874,0.012000000104308128
1779997452433035500,10.125035400390624,6.466050148010254,-0.06599999964237213,0.028950002044439316
1779997452450312000,10.14231201171875,8.32800006866455,-0.0990000069141388,-0.12105000764131546
1779997452467588400,10.15958837890625,11.086950302124023,-0.14505000412464142,-0.3360000252723694
1779997452484865000,10.176864990234375,13.141950607299805,-0.16395001113414764,-0.4729500114917755
1779997452502141400,10.194141357421875,13.276050567626953,-0.17805001139640808,-0.4849500358104706
1779997452519417900,10.21141796875,11.3860502243042,-0.1399500072002411,-0.364950031042099
1779997452536694500,10.228694580078125,8.65095043182373,-0.10200000554323196,-0.1660500019788742
1779997452553971000,10.245970947265626,6.667050361633301,-0.07500000298023224,0.004950000438839197
1779997452571247600,10.26324755859375,6.51900053024292,-0.043950002640485764,0.028950002044439316
1779997452588523800,10.280523681640625,8.311050415039062,-0.08505000174045563,-0.11595000326633453
1779997452605800400,10.297800537109374,11.00100040435791,-0.13695000112056732,-0.32895001769065857
1779997452623076900,10.315076904296875,13.039051055908203,-0.1660500019788742,-0.47805002331733704
1779997452640353300,10.332353271484376,13.224000930786133,-0.17295001447200775,-0.45795002579689026
1779997452657630000,10.3496298828125,11.410050392150879,-0.15195000171661377,-0.32895001769065857
1779997452674906400,10.36690625,8.719950675964355,-0.08700000494718552,-0.15900000929832458
1779997452692182800,10.384182861328124,6.727050304412842,-0.06795000284910202,0.0070500001311302185
1779997452709459200,10.401459228515625,6.5590500831604,-0.06300000101327896,0.034050002694129944
1779997452726736000,10.41873583984375,8.277000427246094,-0.0799500048160553,-0.12105000764131546
1779997452744012000,10.436011962890625,10.945950508117676,-0.13695000112056732,-0.3240000009536743
1779997452761288700,10.453288818359376,12.975000381469727,-0.17295001447200775,-0.46800002455711365
1779997452778565400,10.4705654296875,13.201951026916504,-0.16395001113414764,-0.47805002331733704
1779997452795841800,10.487841796875,11.446050643920898,-0.15900000929832458,-0.3630000054836273
1779997452813118200,10.5051181640625,8.806050300598145,-0.09405000507831573,-0.17595000565052032
1779997452830394600,10.52239453125,6.823050498962402,-0.06105000153183937,-0.004050000105053186
1779997452847671000,10.539671142578126,6.5809502601623535,-0.06795000284910202,0.025950001552700996
1779997452864947500,10.556947509765624,8.244000434875488,-0.09195000678300858,-0.11595000326633453
1779997452882224000,10.57422412109375,10.86405086517334,-0.1399500072002411,-0.31200000643730164
1779997452899500500,10.59150048828125,12.8860502243042,-0.1660500019788742,-0.4300500154495239
1779997452916777200,10.608777099609375,13.140000343322754,-0.17295001447200775,-0.46095001697540283
1779997452934053600,10.6260537109375,11.44800090789795,-0.13305000960826874,-0.364950031042099
1779997452951330000,10.643330078125,8.869050025939941,-0.10200000554323196,-0.16200000047683716
1779997452968606500,10.6606064453125,6.904050350189209,-0.07005000114440918,0.004950000438839197
1779997452985883000,10.6778828125,6.628950119018555,-0.05100000277161598,0.022050000727176666
1779997453003159600,10.69515966796875,8.23905086517334,-0.08700000494718552,-0.11400000751018524
1779997453020436000,10.71243603515625,10.800000190734863,-0.14505000412464142,-0.3079500198364258
1779997453037712400,10.72971240234375,12.79995059967041,-0.16095000505447388,-0.4440000355243683
1779997453054989000,10.746989013671875,13.105950355529785,-0.1660500019788742,-0.4729500114917755
1779997453072265500,10.764265380859374,11.479050636291504,-0.14205001294612885,-0.35805001854896545
1779997453089542000,10.7815419921875,8.94795036315918,-0.10395000129938126,-0.19005000591278076
1779997453106818300,10.798818359375,6.97605037689209,-0.0580500029027462,-0.019950000569224358
1779997453124095000,10.816094970703125,6.681000232696533,-0.07005000114440918,0.031050002202391624
1779997453141371400,10.833371337890625,8.230050086975098,-0.10605000704526901,-0.09195000678300858
1779997453158647800,10.850647705078124,10.72095012664795,-0.13305000960826874,-0.3240000009536743
1779997453175924500,10.867924560546875,12.714000701904297,-0.16395001113414764,-0.4320000112056732
1779997453193201000,10.885200927734376,13.047000885009766,-0.18300001323223114,-0.4249500334262848
1779997453210477300,10.902477294921875,11.467050552368164,-0.13500000536441803,-0.35295000672340393
1779997453227753700,10.919753662109375,9,-0.09195000678300858,-0.17805001139640808
1779997453245030400,10.937030517578124,7.050000190734863,-0.06795000284910202,-0.009000000543892384
1779997453262306800,10.954306884765625,6.727050304412842,-0.06795000284910202,0.016950000077486038
1779997453279583200,10.971583251953126,8.21505069732666,-0.09195000678300858,-0.1279500126838684
1779997453296859600,10.988859619140625,10.675050735473633,-0.1399500072002411,-0.322050005197525
1779997453314136000,11.006135986328125,12.640050888061523,-0.18495000898838043,-0.44895002245903015
1779997453331412700,11.023412841796874,13.023000717163086,-0.17595000565052032,-0.47805002331733704
1779997453348689200,11.040689208984375,11.512950897216797,-0.15405000746250153,-0.3630000054836273
1779997453365965600,11.057965576171876,9.093000411987305,-0.09000000357627869,-0.17805001139640808
1779997453383242200,11.0752421875,7.122000217437744,-0.0580500029027462,-0.016050001606345177
1779997453400518700,11.0925185546875,6.757950305938721,-0.043950002640485764,0.019050000235438347
1779997453417795000,11.109795166015624,8.17199993133545,-0.06300000101327896,-0.08295000344514847
1779997453435071700,11.12707177734375,10.579050064086914,-0.1399500072002411,-0.2650500237941742
1779997453452348200,11.14434814453125,12.544050216674805,-0.1570500135421753,-0.42000001668930054
1779997453469624600,11.16162451171875,12.955950736999512,-0.18105000257492065,-0.4510500133037567
1779997453486901000,11.17890087890625,11.532000541687012,-0.1570500135421753,-0.36000001430511475
1779997453504177700,11.196177734375,9.156000137329102,-0.11400000751018524,-0.21195000410079956
1779997453521454000,11.2134541015625,7.228950500488281,-0.07005000114440918,-0.06105000153183937
1779997453538730500,11.23073046875,6.820050239562988,-0.06105000153183937,0.004950000438839197
1779997453556007000,11.2480068359375,8.182050704956055,-0.10395000129938126,-0.0990000069141388
1779997453573283600,11.26528369140625,10.519950866699219,-0.12105000764131546,-0.2959500253200531
1779997453590560000,11.28256005859375,12.463050842285156,-0.1489500105381012,-0.4249500334262848
1779997453607836400,11.29983642578125,12.916950225830078,-0.17805001139640808,-0.4320000112056732
1779997453625113000,11.317113037109374,11.533950805664062,-0.1489500105381012,-0.34800001978874207
1779997453642389200,11.33438916015625,9.2160005569458,-0.11805000901222229,-0.19500000774860382
1779997453659666000,11.351666015625,7.2870001792907715,-0.05100000277161598,-0.037050001323223114
1779997453676942300,11.3689423828125,6.859050273895264,-0.07304999977350235,0.016950000077486038
1779997453694218800,11.38621875,8.1670503616333,-0.09405000507831573,-0.11100000888109207
1779997453711495400,11.403495361328124,10.45995044708252,-0.12105000764131546,-0.30000001192092896
1779997453728771800,11.420771728515625,12.412050247192383,-0.1660500019788742,-0.40095001459121704
1779997453746048300,11.43804833984375,12.87405014038086,-0.16905000805854797,-0.4320000112056732
1779997453763324700,11.45532470703125,11.544000625610352,-0.1399500072002411,-0.3550500273704529
1779997453780601300,11.472601318359375,9.27495002746582,-0.0990000069141388,-0.1879500150680542
1779997453797877500,11.48987744140625,7.354050159454346,-0.06795000284910202,-0.025050001218914986
1779997453815154200,11.507154296875,6.897000312805176,-0.06599999964237213,0.013950000517070293
1779997453832430800,11.524430908203126,8.128950119018555,-0.09195000678300858,-0.0990000069141388
1779997453849707300,11.541707275390625,10.39995002746582,-0.11100000888109207,-0.2740500271320343
1779997453866983700,11.558983642578125,12.340950965881348,-0.16095000505447388,-0.41100001335144043
1779997453884260000,11.576260009765624,12.82905101776123,-0.17295001447200775,-0.4440000355243683
1779997453901536500,11.59353662109375,11.57295036315918,-0.1399500072002411,-0.36705002188682556
1779997453918813000,11.61081298828125,9.354000091552734,-0.11400000751018524,-0.2050500065088272
1779997453936089600,11.628089599609375,7.44195032119751,-0.0799500048160553,-0.043950002640485764
1779997453953366000,11.645365966796875,6.934950351715088,-0.06300000101327896,0.0019500000635161996
1779997453970642400,11.662642333984374,8.12700080871582,-0.08700000494718552,-0.08700000494718552
1779997453987919000,11.679919189453125,10.321050643920898,-0.12495000660419464,-0.2550000250339508
1779997454005195500,11.697195556640626,12.25200080871582,-0.13695000112056732,-0.3820500075817108
1779997454022472000,11.714471923828125,12.77400016784668,-0.17100000381469727,-0.42195001244544983
1779997454039748600,11.73174853515625,11.569950103759766,-0.1399500072002411,-0.34800001978874207
1779997454057025000,11.74902490234375,9.406949996948242,-0.10395000129938126,-0.20205001533031464
1779997454074301700,11.7663017578125,7.512000560760498,-0.0799500048160553,-0.046950001269578934
1779997454091578000,11.783578125,6.98805046081543,-0.06599999964237213,-0.004050000105053186
1779997454108854500,11.8008544921875,8.124000549316406,-0.08205000311136246,-0.10695000737905502
1779997454126131000,11.818130859375,10.276050567626953,-0.1279500126838684,-0.2689500153064728
1779997454143407400,11.835407470703124,12.192000389099121,-0.15195000171661377,-0.4030500054359436
1779997454160683800,11.852683837890625,12.76395034790039,-0.15900000929832458,-0.4339500069618225
1779997454177960400,11.86996044921875,11.601000785827637,-0.15405000746250153,-0.3550500273704529
1779997454195236900,11.88723681640625,9.457050323486328,-0.12300000339746475,-0.21405000984668732
1779997454212513300,11.90451318359375,7.573950290679932,-0.06105000153183937,-0.05895000323653221
1779997454229790000,11.9217900390625,7.021050453186035,-0.06105000153183937,0.0070500001311302185
1779997454247066400,11.93906640625,8.100000381469727,-0.09195000678300858,-0.0990000069141388
1779997454264342800,11.9563427734375,10.221000671386719,-0.12105000764131546,-0.27195000648498535
1779997454281619200,11.973619140625,12.124950408935547,-0.15405000746250153,-0.3840000033378601
1779997454298896000,11.990895751953126,12.718950271606445,-0.17805001139640808,-0.4030500054359436
1779997454316172300,12.00817236328125,11.601000785827637,-0.13500000536441803,-0.3769500255584717
1779997454333448700,12.02544873046875,9.502950668334961,-0.11400000751018524,-0.2050500065088272
1779997454350725400,12.042725341796874,7.633950233459473,-0.09195000678300858,-0.05400000140070915
1779997454368001500,12.06000146484375,7.0600504875183105,-0.06795000284910202,-0.006000000052154064
1779997454385278200,12.0772783203125,8.110050201416016,-0.07500000298023224,-0.10695000737905502
1779997454402554600,12.0945546875,10.170000076293945,-0.11805000901222229,-0.26205000281333923
1779997454419831000,12.1118310546875,12.070050239562988,-0.1660500019788742,-0.39900001883506775
1779997454437107700,12.129107666015624,12.673050880432129,-0.16095000505447388,-0.43695002794265747
1779997454454384000,12.146384033203125,11.617950439453125,-0.1469999998807907,-0.37005001306533813
1779997454471660500,12.16366064453125,9.574050903320312,-0.11100000888109207,-0.21900001168251038
1779997454488937000,12.18093701171875,7.7059502601623535,-0.08205000311136246,-0.06405000388622284
1779997454506213600,12.198213623046875,7.099950313568115,-0.07005000114440918,-0.006000000052154064
1779997454523490000,12.215489990234374,8.079000473022461,-0.0799500048160553,-0.0799500048160553
1779997454540766500,12.232766357421875,10.096050262451172,-0.10905000567436218,-0.24105000495910645
1779997454558043000,12.25004296875,11.974950790405273,-0.16095000505447388,-0.3769500255584717
1779997454575319600,12.267319580078125,12.628050804138184,-0.15900000929832458,-0.40800002217292786
1779997454592596200,12.28459619140625,11.625000953674316,-0.13695000112056732,-0.3439500033855438
1779997454609872400,12.301872314453124,9.62505054473877,-0.11100000888109207,-0.21405000984668732
1779997454627149000,12.319149169921875,7.782000541687012,-0.07500000298023224,-0.07304999977350235
1779997454644425500,12.336425537109376,7.141050338745117,-0.06795000284910202,-0.009000000543892384
1779997454661702000,12.353701904296875,8.080950736999512,-0.08205000311136246,-0.07605000585317612
1779997454678978300,12.370978271484375,10.053000450134277,-0.11805000901222229,-0.24300001561641693
1779997454696255000,12.3882548828125,11.914950370788574,-0.1469999998807907,-0.37905001640319824
1779997454713531400,12.405531494140625,12.580050468444824,-0.17595000565052032,-0.4300500154495239
1779997454730807800,12.422807861328126,11.641950607299805,-0.14205001294612885,-0.3630000054836273
1779997454748084500,12.44008447265625,9.699000358581543,-0.12495000660419464,-0.21405000984668732
1779997454765361000,12.45736083984375,7.854000568389893,-0.07500000298023224,-0.07800000160932541
1779997454782637300,12.47463720703125,7.195950508117676,-0.06599999964237213,-0.019950000569224358
1779997454799913700,12.491913818359375,8.074049949645996,-0.10200000554323196,-0.10200000554323196
1779997454817190400,12.5091904296875,10.008000373840332,-0.12300000339746475,-0.2530499994754791
1779997454834466800,12.526466796875,11.857050895690918,-0.1489500105381012,-0.364950031042099
1779997454851743200,12.5437431640625,12.54900074005127,-0.17100000381469727,-0.4129500091075897
1779997454869020000,12.56102001953125,11.635050773620605,-0.13500000536441803,-0.36000001430511475
1779997454886296300,12.57829638671875,9.711000442504883,-0.11595000326633453,-0.2050500065088272
1779997454903572700,12.59557275390625,7.890000343322754,-0.08700000494718552,-0.06405000388622284
1779997454920849200,12.61284912109375,7.207950115203857,-0.06300000101327896,-0.010950000956654549
1779997454938125800,12.630125732421876,8.06505012512207,-0.08700000494718552,-0.0799500048160553
1779997454955402200,12.64740234375,9.943050384521484,-0.11400000751018524,-0.22395001351833344
1779997454972678700,12.6646787109375,11.794950485229492,-0.14205001294612885,-0.37005001306533813
1779997454989955000,12.681955078125,12.508050918579102,-0.15900000929832458,-0.4300500154495239
1779997455007231500,12.6992314453125,11.66295051574707,-0.14205001294612885,-0.3630000054836273
1779997455024508200,12.716508056640626,9.792000770568848,-0.12495000660419464,-0.24105000495910645
1779997455041784600,12.73378466796875,7.9830002784729,-0.08205000311136246,-0.10200000554323196
1779997455059061000,12.75106103515625,7.279950141906738,-0.0799500048160553,-0.030000001192092896
1779997455076337400,12.76833740234375,8.074049949645996,-0.09000000357627869,-0.07800000160932541
1779997455093613800,12.78561376953125,9.90000057220459,-0.11805000901222229,-0.23295001685619354
1779997455110890500,12.802890380859376,11.716050148010254,-0.14205001294612885,-0.3460500240325928
1779997455128167000,12.8201669921875,12.444000244140625,-0.16095000505447388,-0.3940500319004059
1779997455145443600,12.837443603515625,11.656050682067871,-0.14205001294612885,-0.3550500273704529
1779997455162720000,12.854719970703124,9.82800006866455,-0.11595000326633453,-0.21000000834465027
1779997455179996400,12.871996337890625,8.026050567626953,-0.09000000357627869,-0.08295000344514847
1779997455197272800,12.88927294921875,7.3060503005981445,-0.06795000284910202,-0.018000001087784767
1779997455214549500,12.906549560546875,8.047950744628906,-0.0799500048160553,-0.0799500048160553
1779997455231825700,12.92382568359375,9.853950500488281,-0.11805000901222229,-0.22605000436306
1779997455249102300,12.941102294921874,11.64900016784668,-0.1399500072002411,-0.36000001430511475
1779997455266378800,12.958378662109375,12.412050247192383,-0.16395001113414764,-0.40605002641677856
1779997455283655200,12.9756552734375,11.668050765991211,-0.1399500072002411,-0.3630000054836273
1779997455300931800,12.992931884765625,9.877950668334961,-0.11595000326633453,-0.24795001745224
1779997455318208000,13.0102080078125,8.112000465393066,-0.10200000554323196,-0.08700000494718552
1779997455335484700,13.027484619140624,7.3560004234313965,-0.06599999964237213,-0.030000001192092896
1779997455352761000,13.044760986328125,8.059950828552246,-0.09195000678300858,-0.08505000174045563
1779997455370037500,13.06203759765625,9.807000160217285,-0.10605000704526901,-0.22605000436306
1779997455387314000,13.07931396484375,11.577000617980957,-0.14205001294612885,-0.3460500240325928
1779997455404590600,13.096590576171875,12.369000434875488,-0.17100000381469727,-0.40605002641677856
1779997455421867000,13.113866943359374,11.665950775146484,-0.13695000112056732,-0.35295000672340393
1779997455439143400,13.131143310546875,9.91200065612793,-0.12495000660419464,-0.23100000619888306
1779997455456420000,13.148420166015624,8.155050277709961,-0.08205000311136246,-0.0990000069141388
1779997455473696500,13.165696533203125,7.3969502449035645,-0.07800000160932541,-0.037050001323223114
1779997455490973000,13.182972900390626,8.076000213623047,-0.0970500037074089,-0.09000000357627869
1779997455508249300,13.200249267578124,9.772950172424316,-0.10200000554323196,-0.21705001592636108
1779997455525526000,13.217526123046875,11.53695011138916,-0.13695000112056732,-0.3360000252723694
1779997455542802400,13.234802490234374,12.313950538635254,-0.15900000929832458,-0.4030500054359436
1779997455560078800,13.252078857421875,11.644050598144531,-0.1469999998807907,-0.3439500033855438
1779997455577355500,13.26935546875,9.945000648498535,-0.1279500126838684,-0.21195000410079956
1779997455594632000,13.2866318359375,8.194050788879395,-0.0799500048160553,-0.09000000357627869
1779997455611908400,13.303908447265625,7.438050270080566,-0.07005000114440918,-0.025050001218914986
1779997455629185000,13.32118505859375,8.079000473022461,-0.08205000311136246,-0.07800000160932541
1779997455646461400,13.33846142578125,9.75195026397705,-0.10605000704526901,-0.22395001351833344
1779997455663737600,13.355737548828126,11.497950553894043,-0.15195000171661377,-0.35805001854896545
1779997455681014300,13.37301416015625,12.277950286865234,-0.15405000746250153,-0.4129500091075897
1779997455698291000,13.390291015625,11.66295051574707,-0.15405000746250153,-0.364950031042099
1779997455715567400,13.4075673828125,9.997950553894043,-0.12105000764131546,-0.24495001137256622
1779997455732843800,13.42484375,8.281949996948242,-0.08505000174045563,-0.11400000751018524
1779997455750120200,13.4421201171875,7.492950439453125,-0.08505000174045563,-0.034950003027915955
1779997455767396600,13.459396728515625,8.074049949645996,-0.09195000678300858,-0.08295000344514847
1779997455784673000,13.476673095703125,9.694050788879395,-0.11100000888109207,-0.20205001533031464
1779997455801949700,13.49394970703125,11.398050308227539,-0.1399500072002411,-0.32895001769065857
1779997455819226400,13.511226318359375,12.199050903320312,-0.1469999998807907,-0.3820500075817108
1779997455836502500,13.52850244140625,11.629950523376465,-0.1469999998807907,-0.35295000672340393
1779997455853779200,13.545779296875,10.032000541687012,-0.11400000751018524,-0.23100000619888306
1779997455871055600,13.5630556640625,8.34000015258789,-0.09195000678300858,-0.09000000357627869
1779997455888332000,13.58033203125,7.533000469207764,-0.07005000114440918,-0.028050001710653305
1779997455905608700,13.597608642578125,8.076000213623047,-0.0799500048160553,-0.09000000357627869
1779997455922885000,13.614885009765626,9.652950286865234,-0.12105000764131546,-0.21000000834465027
1779997455940161500,13.63216162109375,11.36400032043457,-0.14205001294612885,-0.3340500295162201
1779997455957438000,13.64943798828125,12.183000564575195,-0.1570500135421753,-0.3960000276565552
1779997455974714400,13.66671435546875,11.653950691223145,-0.15405000746250153,-0.36000001430511475
1779997455991991000,13.683990966796875,10.087050437927246,-0.12105000764131546,-0.25005000829696655
1779997456009267500,13.701267333984376,8.40195083618164,-0.0990000069141388,-0.11100000888109207
1779997456026543900,13.7185439453125,7.591050148010254,-0.07800000160932541,-0.031950000673532486
1779997456043820500,13.735820556640626,8.068950653076172,-0.08700000494718552,-0.07800000160932541
1779997456061097000,13.753096923828124,9.607950210571289,-0.11595000326633453,-0.20205001533031464
1779997456078373400,13.770373291015625,11.283000946044922,-0.13500000536441803,-0.33195000886917114
1779997456095649800,13.78764990234375,12.1399507522583,-0.16395001113414764,-0.37905001640319824
1779997456112926200,13.80492626953125,11.647050857543945,-0.1489500105381012,-0.3460500240325928
1779997456130203000,13.822202880859376,10.120050430297852,-0.11805000901222229,-0.2530499994754791
1779997456147479300,13.839479248046874,8.45895004272461,-0.09000000357627869,-0.12600000202655792
1779997456164755700,13.856755615234375,7.624050140380859,-0.08505000174045563,-0.05205000191926956
1779997456182032100,13.8740322265625,8.079000473022461,-0.0799500048160553,-0.08700000494718552
1779997456199308800,13.891308837890625,9.579000473022461,-0.12495000660419464,-0.2070000171661377
1779997456216585000,13.9085849609375,11.25195026397705,-0.11595000326633453,-0.31995001435279846
1779997456233861600,13.925861572265624,12.091950416564941,-0.15405000746250153,-0.3750000298023224
1779997456251138000,13.943137939453125,11.632050514221191,-0.15405000746250153,-0.35805001854896545
1779997456268414500,13.96041455078125,10.12695026397705,-0.11100000888109207,-0.2650500237941742
1779997456285691100,13.977691162109375,8.50005054473877,-0.10605000704526901,-0.09495000541210175
1779997456302967600,13.994967529296876,7.660050392150879,-0.07304999977350235,-0.04005000367760658
1779997456320244200,14.012244140625,8.0910005569458,-0.08505000174045563,-0.09000000357627869
1779997456337520400,14.029520263671875,9.547950744628906,-0.11595000326633453,-0.1860000044107437
1779997456354797000,14.046797119140624,11.173050880432129,-0.13305000960826874,-0.31200000643730164
1779997456372073500,14.064073486328125,12.051000595092773,-0.1489500105381012,-0.3769500255584717
1779997456389350100,14.08135009765625,11.617950439453125,-0.14205001294612885,-0.36705002188682556
1779997456406626600,14.09862646484375,10.177050590515137,-0.13005000352859497,-0.26205000281333923
1779997456423903000,14.115903076171875,8.572050094604492,-0.09405000507831573,-0.1399500072002411
1779997456441179100,14.13317919921875,7.729950428009033,-0.08205000311136246,-0.06795000284910202
1779997456458455800,14.150455810546875,8.131950378417969,-0.0799500048160553,-0.09195000678300858
1779997456475732200,14.167732177734376,9.52695083618164,-0.11805000901222229,-0.1980000138282776
1779997456493008600,14.185008544921875,11.131950378417969,-0.14205001294612885,-0.31995001435279846
1779997456510285300,14.202285400390625,11.97705078125,-0.1570500135421753,-0.364950031042099
1779997456527561700,14.219561767578124,11.596050262451172,-0.1399500072002411,-0.33900001645088196
1779997456544838100,14.236838134765625,10.197000503540039,-0.11595000326633453,-0.24105000495910645
1779997456562114600,14.254114501953126,8.614950180053711,-0.11100000888109207,-0.12105000764131546
1779997456579391000,14.271390869140625,7.770000457763672,-0.09195000678300858,-0.06599999964237213
1779997456596667400,14.28866748046875,8.116950035095215,-0.0970500037074089,-0.0990000069141388
1779997456613944000,14.305944091796874,9.498000144958496,-0.11805000901222229,-0.1860000044107437
1779997456631220700,14.323220703125,11.07705020904541,-0.11400000751018524,-0.2880000174045563
1779997456648497200,14.3404970703125,11.934000968933105,-0.12495000660419464,-0.3340500295162201
1779997456665773600,14.357773681640625,11.569950103759766,-0.13005000352859497,-0.31200000643730164
1779997456683050000,14.375050048828125,10.19205093383789,-0.10605000704526901,-0.22905001044273376
1779997456700326700,14.39232666015625,8.629050254821777,-0.09195000678300858,-0.11595000326633453
1779997456717603000,14.40960302734375,7.780050277709961,-0.07005000114440918,-0.05400000140070915
1779997456734879500,14.42687939453125,8.148000717163086,-0.0799500048160553,-0.09495000541210175
1779997456752156200,14.44415625,9.495000839233398,-0.11400000751018524,-0.21900001168251038
1779997456769432600,14.4614326171875,11.06505012512207,-0.1469999998807907,-0.31995001435279846
1779997456786709000,14.478708984375,11.938950538635254,-0.15405000746250153,-0.3910500109195709
1779997456803985400,14.4959853515625,11.608050346374512,-0.14505000412464142,-0.35295000672340393
1779997456821261800,14.51326171875,10.266000747680664,-0.13695000112056732,-0.23595000803470612
1779997456838538200,14.530538330078125,8.689050674438477,-0.11100000888109207,-0.1399500072002411
1779997456855815000,14.54781494140625,7.807950496673584,-0.07800000160932541,-0.08700000494718552
1779997456873091300,14.56509130859375,8.131950378417969,-0.10605000704526901,-0.08295000344514847
1779997456890367700,14.58236767578125,9.448050498962402,-0.11595000326633453,-0.1980000138282776
1779997456907644400,14.59964453125,11.020050048828125,-0.1399500072002411,-0.322050005197525
1779997456924920600,14.616920654296875,11.91195011138916,-0.15900000929832458,-0.37005001306533813
1779997456942197200,14.634197265625,11.608050346374512,-0.16095000505447388,-0.35100001096725464
1779997456959473700,14.6514736328125,10.290000915527344,-0.13005000352859497,-0.2650500237941742
1779997456976750300,14.668750244140625,8.730000495910645,-0.10395000129938126,-0.1380000114440918
1779997456994026500,14.686026611328124,7.852050304412842,-0.09195000678300858,-0.046950001269578934
1779997457011303200,14.70330322265625,8.12700080871582,-0.08505000174045563,-0.08505000174045563
1779997457028579600,14.72057958984375,9.414000511169434,-0.11595000326633453,-0.19305001199245453
1779997457045856000,14.73785595703125,10.957950592041016,-0.14205001294612885,-0.3079500198364258
1779997457063132700,14.755132568359375,11.857050895690918,-0.1469999998807907,-0.37005001306533813
1779997457080409000,14.7724091796875,11.605950355529785,-0.1469999998807907,-0.34800001978874207
1779997457097685200,14.789685302734375,10.309050559997559,-0.11595000326633453,-0.2569500207901001
1779997457114962000,14.8069619140625,8.789999961853027,-0.0970500037074089,-0.1380000114440918
1779997457132238600,14.824238525390625,7.890000343322754,-0.07304999977350235,-0.06795000284910202
1779997457149515000,14.841514892578125,8.136000633239746,-0.0799500048160553,-0.07800000160932541
1779997457166791400,14.85879150390625,9.378000259399414,-0.10200000554323196,-0.18105000257492065
1779997457184067800,14.87606787109375,10.897950172424316,-0.13695000112056732,-0.2959500253200531
1779997457201344500,14.893344482421876,11.818950653076172,-0.15900000929832458,-0.35100001096725464
1779997457218620700,14.91062060546875,11.575050354003906,-0.14205001294612885,-0.3439500033855438
1779997457235897300,14.9278974609375,10.338000297546387,-0.12495000660419464,-0.2650500237941742
1779997457253173800,14.945173828125,8.836950302124023,-0.09405000507831573,-0.1469999998807907
1779997457270450200,14.9624501953125,7.942050457000732,-0.09195000678300858,-0.07095000147819519
1779997457287726600,14.9797265625,8.187000274658203,-0.09000000357627869,-0.09495000541210175
1779997457305003300,14.997003173828125,9.373050689697266,-0.11805000901222229,-0.17805001139640808
1779997457322279700,15.01427978515625,10.894950866699219,-0.13305000960826874,-0.29805001616477966
1779997457339556000,15.03155615234375,11.761950492858887,-0.1489500105381012,-0.364950031042099
1779997457356832800,15.048832763671875,11.553000450134277,-0.14205001294612885,-0.3340500295162201
1779997457374109200,15.066109130859376,10.335000038146973,-0.12300000339746475,-0.2550000250339508
1779997457391385600,15.083385498046875,8.857050895690918,-0.09195000678300858,-0.14505000412464142
1779997457408662000,15.100662109375,7.9710001945495605,-0.08505000174045563,-0.06105000153183937
1779997457425938700,15.117938720703124,8.17199993133545,-0.0799500048160553,-0.07095000147819519
1779997457443215000,15.135215087890625,9.35205078125,-0.10605000704526901,-0.17595000565052032
1779997457460491500,15.152491455078126,10.821000099182129,-0.12300000339746475,-0.29100000858306885
1779997457477768200,15.169768310546875,11.728050231933594,-0.14205001294612885,-0.36000001430511475
1779997457495044400,15.18704443359375,11.532000541687012,-0.1489500105381012,-0.33900001645088196
1779997457512321000,15.204321044921874,10.369050025939941,-0.1279500126838684,-0.25995001196861267
1779997457529597400,15.221597412109375,8.91195011138916,-0.10395000129938126,-0.15405000746250153
1779997457546873900,15.238873779296876,8.014050483703613,-0.07304999977350235,-0.07800000160932541
1779997457564150300,15.256150390625,8.184000015258789,-0.09405000507831573,-0.0970500037074089
1779997457581427000,15.273427001953126,9.337950706481934,-0.12300000339746475,-0.18105000257492065
1779997457598703400,15.290703369140624,10.795050621032715,-0.1279500126838684,-0.29100000858306885
1779997457615979800,15.307979736328125,11.695050239562988,-0.14505000412464142,-0.34095001220703125
1779997457633256400,15.32525634765625,11.524950981140137,-0.15195000171661377,-0.3439500033855438
1779997457650532900,15.342532958984375,10.371000289916992,-0.12495000660419464,-0.27195000648498535
1779997457667809300,15.359809326171876,8.94795036315918,-0.10395000129938126,-0.14505000412464142
1779997457685085700,15.377085693359374,8.043000221252441,-0.09195000678300858,-0.07095000147819519
1779997457702362000,15.394362060546875,8.206049919128418,-0.09405000507831573,-0.08700000494718552
1779997457719638500,15.411638427734376,9.31605052947998,-0.10200000554323196,-0.18105000257492065
1779997457736915200,15.428915283203125,10.744950294494629,-0.13005000352859497,-0.28395000100135803
1779997457754191600,15.446191650390626,11.665950775146484,-0.15900000929832458,-0.3460500240325928
1779997457771468000,15.463468017578125,11.517000198364258,-0.15900000929832458,-0.3439500033855438
1779997457788744700,15.48074462890625,10.4170503616333,-0.13005000352859497,-0.27900001406669617
1779997457806021000,15.498021240234374,9.004950523376465,-0.10605000704526901,-0.16200000047683716
1779997457823297800,15.5152978515625,8.098050117492676,-0.0970500037074089,-0.07605000585317612
1779997457840574200,15.53257421875,8.22195053100586,-0.08700000494718552,-0.08700000494718552
1779997457857850600,15.5498505859375,9.2989501953125,-0.10605000704526901,-0.1879500150680542
1779997457875127000,15.567126953125,10.696950912475586,-0.13695000112056732,-0.28095000982284546
1779997457892403500,15.584403564453124,11.599050521850586,-0.13695000112056732,-0.3460500240325928
1779997457909680000,15.60168017578125,11.500950813293457,-0.14505000412464142,-0.3270000219345093
1779997457926956500,15.61895654296875,10.4239501953125,-0.11400000751018524,-0.2530499994754791
1779997457944233200,15.636233154296875,9.022050857543945,-0.0970500037074089,-0.1469999998807907
1779997457961509400,15.65350927734375,8.124000549316406,-0.09405000507831573,-0.08505000174045563
1779997457978786000,15.6707861328125,8.224950790405273,-0.09195000678300858,-0.10695000737905502
1779997457996062200,15.688062255859375,9.285000801086426,-0.11100000888109207,-0.17400000989437103
1779997458013339000,15.7053388671875,10.681950569152832,-0.11805000901222229,-0.2770500183105469
1779997458030615600,15.722615478515625,11.592000961303711,-0.1570500135421753,-0.35295000672340393
1779997458047891700,15.7398916015625,11.506050109863281,-0.13695000112056732,-0.3550500273704529
1779997458065168100,15.757168212890624,10.44105052947998,-0.1279500126838684,-0.2650500237941742
1779997458082444800,15.77444482421875,9.064949989318848,-0.10605000704526901,-0.1570500135421753
1779997458099721000,15.791720947265626,8.152950286865234,-0.09195000678300858,-0.07605000585317612
1779997458116997600,15.80899755859375,8.245950698852539,-0.08700000494718552,-0.07800000160932541
1779997458134274300,15.8262744140625,9.235050201416016,-0.11400000751018524,-0.17805001139640808
1779997458151550700,15.84355078125,10.635000228881836,-0.1279500126838684,-0.28095000982284546
1779997458168827100,15.8608271484375,11.5489501953125,-0.15405000746250153,-0.3360000252723694
1779997458186103800,15.878103759765626,11.494050979614258,-0.16905000805854797,-0.34095001220703125
1779997458203380200,15.895380126953125,10.480950355529785,-0.11100000888109207,-0.286050021648407
1779997458220657000,15.912656982421876,9.105000495910645,-0.10200000554323196,-0.15195000171661377
1779997458237933000,15.92993310546875,8.200950622558594,-0.09000000357627869,-0.06795000284910202
1779997458255209700,15.947209716796875,8.22195053100586,-0.10200000554323196,-0.11595000326633453
1779997458272486100,15.964486083984376,9.237000465393066,-0.10395000129938126,-0.18105000257492065
1779997458289762600,15.981762451171875,10.582050323486328,-0.1279500126838684,-0.2530499994754791
1779997458307039000,15.9990390625,11.524950981140137,-0.14505000412464142,-0.31995001435279846
1779997458324315600,16.016315673828124,11.467050552368164,-0.12105000764131546,-0.3460500240325928
1779997458341592000,16.033592041015623,10.479000091552734,-0.12495000660419464,-0.2689500153064728
1779997458358868500,16.050868408203126,9.148950576782227,-0.0990000069141388,-0.16395001113414764
1779997458376145000,16.068144775390625,8.230050086975098,-0.0799500048160553,-0.0990000069141388
1779997458393421300,16.08542138671875,8.292000770568848,-0.10200000554323196,-0.0990000069141388
1779997458410698000,16.102697998046875,9.220050811767578,-0.12105000764131546,-0.18300001323223114
1779997458427974400,16.119974365234373,10.570050239562988,-0.1399500072002411,-0.286050021648407
1779997458445250800,16.137250732421876,11.479050636291504,-0.1399500072002411,-0.34800001978874207
1779997458462527200,16.15452734375,11.458050727844238,-0.15405000746250153,-0.34095001220703125
1779997458479804000,16.171803955078126,10.503000259399414,-0.12300000339746475,-0.27900001406669617
1779997458497080300,16.189080322265625,9.168000221252441,-0.11100000888109207,-0.16200000047683716
1779997458514356700,16.206356689453123,8.269950866699219,-0.07304999977350235,-0.08505000174045563
1779997458531633400,16.22363330078125,8.266050338745117,-0.07005000114440918,-0.09195000678300858
1779997458548909600,16.24090966796875,9.2160005569458,-0.11595000326633453,-0.16905000805854797
1779997458566186200,16.258186279296876,10.516950607299805,-0.13005000352859497,-0.2569500207901001
1779997458583463000,16.275462890625,11.440950393676758,-0.15195000171661377,-0.3150000274181366
1779997458600739000,16.292739013671873,11.427000999450684,-0.13305000960826874,-0.322050005197525
1779997458618015500,16.310015380859376,10.479000091552734,-0.10905000567436218,-0.2689500153064728
1779997458635292200,16.327292236328127,9.193950653076172,-0.09195000678300858,-0.18105000257492065
1779997458652568600,16.344568603515626,8.287050247192383,-0.08505000174045563,-0.10200000554323196
1779997458669845000,16.361844970703125,8.323050498962402,-0.10605000704526901,-0.10200000554323196
1779997458687121700,16.37912158203125,9.247050285339355,-0.09405000507831573,-0.16905000805854797
1779997458704398000,16.396398193359374,10.51200008392334,-0.14205001294612885,-0.2650500237941742
1779997458721674500,16.413674560546873,11.41200065612793,-0.13005000352859497,-0.33900001645088196
1779997458738951000,16.430950927734376,11.37600040435791,-0.13500000536441803,-0.3439500033855438
1779997458756227600,16.4482275390625,10.503000259399414,-0.1469999998807907,-0.27195000648498535
1779997458773503700,16.465503662109374,9.225000381469727,-0.10905000567436218,-0.16905000805854797
1779997458790780400,16.482780517578124,8.361000061035156,-0.10605000704526901,-0.11595000326633453
1779997458808057000,16.50005712890625,8.348999977111816,-0.07500000298023224,-0.11400000751018524
1779997458825333200,16.517333251953126,9.217950820922852,-0.10395000129938126,-0.15000000596046448
1779997458842610000,16.53460986328125,10.492950439453125,-0.15195000171661377,-0.25005000829696655
1779997458859886300,16.55188623046875,11.34000015258789,-0.13695000112056732,-0.34095001220703125
1779997458877163000,16.5691630859375,11.367000579833984,-0.14205001294612885,-0.3240000009536743
1779997458894439400,16.586439453125,10.50105094909668,-0.13695000112056732,-0.24105000495910645
1779997458911715800,16.6037158203125,9.259050369262695,-0.09195000678300858,-0.16395001113414764
1779997458928992500,16.620992431640627,8.380050659179688,-0.08700000494718552,-0.09495000541210175
1779997458946268700,16.6382685546875,8.356050491333008,-0.09405000507831573,-0.09000000357627869
1779997458963545300,16.65554541015625,9.211050033569336,-0.0970500037074089,-0.17805001139640808
1779997458980821800,16.67282177734375,10.434000968933105,-0.13005000352859497,-0.2740500271320343
1779997458998098200,16.69009814453125,11.34795093536377,-0.14505000412464142,-0.322050005197525
1779997459015374600,16.70737451171875,11.371950149536133,-0.15405000746250153,-0.33195000886917114
1779997459032651300,16.7246513671875,10.528950691223145,-0.1279500126838684,-0.28095000982284546
1779997459049928000,16.741927978515626,9.297000885009766,-0.11400000751018524,-0.19305001199245453
1779997459067204000,16.7592041015625,8.409000396728516,-0.08700000494718552,-0.0970500037074089
1779997459084480800,16.776480712890624,8.36400032043457,-0.07800000160932541,-0.10905000567436218
1779997459101757200,16.793757080078127,9.177000045776367,-0.08700000494718552,-0.17805001139640808
1779997459119033600,16.81103369140625,10.402050018310547,-0.12300000339746475,-0.25005000829696655
1779997459136310300,16.828310302734376,11.296950340270996,-0.13005000352859497,-0.31200000643730164
1779997459153586700,16.845586669921875,11.362051010131836,-0.13305000960826874,-0.31005001068115234
1779997459170863000,16.862863037109374,10.527000427246094,-0.13695000112056732,-0.2550000250339508
1779997459188139500,16.880139404296877,9.313950538635254,-0.10200000554323196,-0.1860000044107437
1779997459205416200,16.897416259765624,8.431050300598145,-0.09000000357627869,-0.12105000764131546
1779997459222692600,16.914692626953126,8.36400032043457,-0.10905000567436218,-0.10395000129938126
1779997459239969000,16.931968994140625,9.187050819396973,-0.10905000567436218,-0.16905000805854797
1779997459257245400,16.949245361328124,10.378050804138184,-0.12495000660419464,-0.26205000281333923
1779997459274521900,16.96652197265625,11.284950256347656,-0.15900000929832458,-0.3150000274181366
1779997459291798500,16.983798583984374,11.338050842285156,-0.13695000112056732,-0.33195000886917114
1779997459309075000,17.001074951171876,10.53600025177002,-0.1279500126838684,-0.26205000281333923
1779997459326351400,17.018351318359375,9.345000267028809,-0.10905000567436218,-0.16905000805854797
1779997459343627800,17.035627685546874,8.443050384521484,-0.0799500048160553,-0.12105000764131546
1779997459360904400,17.052904541015625,8.385000228881836,-0.08205000311136246,-0.10905000567436218
1779997459378180900,17.070180908203124,9.169950485229492,-0.12300000339746475,-0.15900000929832458
1779997459395457300,17.087457275390626,10.366950035095215,-0.11595000326633453,-0.27195000648498535
1779997459412734000,17.10473388671875,11.242050170898438,-0.12300000339746475,-0.33195000886917114
1779997459430010400,17.12201025390625,11.350050926208496,-0.16095000505447388,-0.3079500198364258
1779997459447286800,17.139286865234375,10.546050071716309,-0.13305000960826874,-0.2770500183105469
1779997459464563200,17.156563232421874,9.373050689697266,-0.10200000554323196,-0.1879500150680542
1779997459481839900,17.17383984375,8.480999946594238,-0.10905000567436218,-0.08700000494718552
1779997459499116300,17.1911162109375,8.383049964904785,-0.08505000174045563,-0.09000000357627869
1779997459516392700,17.208392822265626,9.145950317382812,-0.10200000554323196,-0.16200000047683716
1779997459533669400,17.22566943359375,10.330950736999512,-0.1279500126838684,-0.23805001378059387
1779997459550945800,17.24294580078125,11.235000610351562,-0.15195000171661377,-0.30300000309944153
1779997459568222200,17.26022216796875,11.343000411987305,-0.14505000412464142,-0.322050005197525
1779997459585498600,17.27749853515625,10.563000679016113,-0.12495000660419464,-0.27195000648498535
1779997459602775000,17.294775146484376,9.394950866699219,-0.11805000901222229,-0.19995000958442688
1779997459620051500,17.312051513671875,8.509950637817383,-0.10605000704526901,-0.1399500072002411
1779997459637328100,17.329328125,8.421000480651855,-0.0970500037074089,-0.1279500126838684
1779997459654604500,17.3466044921875,9.175050735473633,-0.11805000901222229,-0.17595000565052032
1779997459671881000,17.363880859375,10.327950477600098,-0.13500000536441803,-0.2740500271320343
1779997459689157600,17.38115771484375,11.218050956726074,-0.13695000112056732,-0.34095001220703125
1779997459706434000,17.39843408203125,11.31195068359375,-0.1469999998807907,-0.322050005197525
1779997459723710500,17.41571044921875,10.563000679016113,-0.12495000660419464,-0.2689500153064728
1779997459740987000,17.43298681640625,9.402000427246094,-0.0970500037074089,-0.16395001113414764
1779997459758263600,17.450263671875,8.513999938964844,-0.09000000357627869,-0.08700000494718552
1779997459775540000,17.4675400390625,8.407050132751465,-0.08205000311136246,-0.08700000494718552
1779997459792816400,17.48481640625,9.141000747680664,-0.10905000567436218,-0.1570500135421753
1779997459810093000,17.502093017578126,10.288050651550293,-0.12300000339746475,-0.25005000829696655
1779997459827369500,17.519369384765625,11.182050704956055,-0.1399500072002411,-0.3079500198364258
1779997459844646000,17.53664599609375,11.295000076293945,-0.13695000112056732,-0.322050005197525
1779997459861922300,17.55392236328125,10.575000762939453,-0.12495000660419464,-0.28095000982284546
1779997459879199000,17.571198974609374,9.442950248718262,-0.11100000888109207,-0.19500000774860382
1779997459896475400,17.588475341796876,8.569050788879395,-0.10200000554323196,-0.12105000764131546
1779997459913751800,17.605751708984375,8.445000648498535,-0.09000000357627869,-0.11400000751018524
1779997459931028500,17.623028564453126,9.148950576782227,-0.0990000069141388,-0.16905000805854797
1779997459948305000,17.640304931640625,10.266000747680664,-0.1469999998807907,-0.24300001561641693
1779997459965581300,17.657581298828124,11.146950721740723,-0.1399500072002411,-0.32895001769065857
1779997459982857700,17.674857666015626,11.26395034790039,-0.13305000960826874,-0.322050005197525
1779997460000134400,17.692134521484373,10.572000503540039,-0.13500000536441803,-0.23805001378059387
1779997460017410800,17.709410888671876,9.454950332641602,-0.10605000704526901,-0.19005000591278076
1779997460034687200,17.726687255859375,8.589000701904297,-0.0970500037074089,-0.1399500072002411
1779997460051964000,17.7439638671875,8.47095012664795,-0.10200000554323196,-0.10200000554323196
1779997460069240300,17.761240234375,9.145950317382812,-0.10395000129938126,-0.14505000412464142
1779997460086516700,17.778516845703123,10.246950149536133,-0.11805000901222229,-0.23805001378059387
1779997460103793200,17.795793212890626,11.098950386047363,-0.13005000352859497,-0.30300000309944153
1779997460121069800,17.81306982421875,11.248950958251953,-0.14505000412464142,-0.3079500198364258
1779997460138346200,17.83034619140625,10.567950248718262,-0.12495000660419464,-0.27195000648498535
1779997460155622700,17.84762255859375,9.486000061035156,-0.11805000901222229,-0.19500000774860382
1779997460172899300,17.8648994140625,8.635950088500977,-0.0970500037074089,-0.1279500126838684
1779997460190175700,17.88217578125,8.49000072479248,-0.10200000554323196,-0.12300000339746475
1779997460207452200,17.8994521484375,9.156000137329102,-0.11400000751018524,-0.17100000381469727
1779997460224728600,17.916728515625,10.225050926208496,-0.13305000960826874,-0.2569500207901001
1779997460242005200,17.934005126953124,11.094000816345215,-0.1489500105381012,-0.3270000219345093
1779997460259281700,17.95128173828125,11.235000610351562,-0.15405000746250153,-0.32895001769065857
1779997460276558000,17.96855810546875,10.576950073242188,-0.13500000536441803,-0.28095000982284546
1779997460293834500,17.98583447265625,9.517050743103027,-0.10605000704526901,-0.19305001199245453
1779997460311111000,18.00311083984375,8.646000862121582,-0.09195000678300858,-0.11595000326633453
1779997460328387600,18.0203876953125,8.497950553894043,-0.09000000357627869,-0.09195000678300858
1779997460345664000,18.0376640625,9.129000663757324,-0.0970500037074089,-0.1380000114440918
1779997460362940400,18.0549404296875,10.17495059967041,-0.11400000751018524,-0.23805001378059387
1779997460380216800,18.072216796875,11.034000396728516,-0.1279500126838684,-0.2959500253200531
1779997460397493200,18.0894931640625,11.209050178527832,-0.13695000112056732,-0.3150000274181366
1779997460414770000,18.10677001953125,10.591050148010254,-0.13005000352859497,-0.28095000982284546
1779997460432046300,18.12404638671875,9.547950744628906,-0.11100000888109207,-0.20205001533031464
1779997460449322800,18.14132275390625,8.69895076751709,-0.10395000129938126,-0.13500000536441803
1779997460466599200,18.15859912109375,8.536050796508789,-0.09405000507831573,-0.1189500093460083
1779997460483875800,18.175875732421876,9.127050399780273,-0.10395000129938126,-0.1660500019788742
1779997460501152300,18.19315234375,10.165950775146484,-0.13005000352859497,-0.23295001685619354
1779997460518428700,18.2104287109375,11.008050918579102,-0.1399500072002411,-0.29295000433921814
1779997460535705000,18.227705078125,11.187000274658203,-0.13005000352859497,-0.3049500286579132
1779997460552981500,18.2449814453125,10.564950942993164,-0.1279500126838684,-0.24495001137256622
1779997460570258200,18.262258056640626,9.55305004119873,-0.10605000704526901,-0.19005000591278076
1779997460587534600,18.27953466796875,8.70300006866455,-0.0970500037074089,-0.13095000386238098
1779997460604811300,18.296811279296875,8.536050796508789,-0.0990000069141388,-0.10200000554323196
1779997460622087700,18.314087646484374,9.139050483703613,-0.10605000704526901,-0.15195000171661377
1779997460639364000,18.331364013671877,10.144050598144531,-0.11805000901222229,-0.24300001561641693
1779997460656640800,18.348640869140624,10.998000144958496,-0.14505000412464142,-0.3169500231742859
1779997460673917200,18.365917236328126,11.187000274658203,-0.1399500072002411,-0.3270000219345093
1779997460691193600,18.383193603515625,10.608000755310059,-0.13500000536441803,-0.27900001406669617
1779997460708470000,18.400469970703124,9.5910005569458,-0.11400000751018524,-0.21705001592636108
1779997460725746400,18.417746337890627,8.73705005645752,-0.10200000554323196,-0.1570500135421753
1779997460743022800,18.43502294921875,8.574000358581543,-0.0970500037074089,-0.1380000114440918
1779997460760299500,18.452299560546876,9.129000663757324,-0.11400000751018524,-0.17805001139640808
1779997460777576000,18.469575927734375,10.144050598144531,-0.12105000764131546,-0.24300001561641693
1779997460794852400,18.486852294921874,10.978950500488281,-0.1399500072002411,-0.29100000858306885
1779997460812128800,18.504128662109373,11.154000282287598,-0.1469999998807907,-0.3049500286579132
1779997460829405400,18.521405517578124,10.576950073242188,-0.11805000901222229,-0.25995001196861267
1779997460846681900,18.538681884765627,9.58395004272461,-0.11100000888109207,-0.18105000257492065
1779997460863958300,18.555958251953125,8.755949974060059,-0.0990000069141388,-0.11400000751018524
1779997460881235000,18.57323486328125,8.553000450134277,-0.09000000357627869,-0.0990000069141388
1779997460898511000,18.590510986328123,9.120000839233398,-0.11100000888109207,-0.1399500072002411
1779997460915787800,18.607787841796874,10.105950355529785,-0.11400000751018524,-0.23595000803470612
1779997460933064400,18.625064453125,10.941000938415527,-0.13695000112056732,-0.29295000433921814
1779997460950340600,18.642340576171875,11.146950721740723,-0.1399500072002411,-0.3049500286579132
1779997460967617300,18.6596171875,10.587000846862793,-0.12105000764131546,-0.2880000174045563
1779997460984893700,18.676893798828125,9.618000030517578,-0.12105000764131546,-0.21705001592636108
1779997461002170000,18.694170166015624,8.802000045776367,-0.09000000357627869,-0.14295001327991486
1779997461019446500,18.711446533203127,8.598000526428223,-0.0990000069141388,-0.12300000339746475
1779997461036723200,18.72872314453125,9.136950492858887,-0.09195000678300858,-0.17100000381469727
1779997461053999600,18.74599951171875,10.084050178527832,-0.12300000339746475,-0.23100000619888306
1779997461071276000,18.763276123046875,10.918950080871582,-0.1489500105381012,-0.29100000858306885
1779997461088552700,18.780552734375,11.10105037689209,-0.12300000339746475,-0.3049500286579132
1779997461105829000,18.7978291015625,10.588950157165527,-0.1279500126838684,-0.2550000250339508
1779997461123105500,18.81510546875,9.631950378417969,-0.12105000764131546,-0.1860000044107437
1779997461140382000,18.8323818359375,8.818050384521484,-0.10200000554323196,-0.1380000114440918
1779997461157658600,18.84965869140625,8.622000694274902,-0.11595000326633453,-0.10695000737905502
1779997461174935000,18.86693505859375,9.136950492858887,-0.10605000704526901,-0.1380000114440918
1779997461192211500,18.88421142578125,10.066950798034668,-0.11595000326633453,-0.22905001044273376
1779997461209488100,18.901488037109374,10.881000518798828,-0.13500000536441803,-0.2959500253200531
1779997461226764500,18.9187646484375,11.086950302124023,-0.1279500126838684,-0.3150000274181366
1779997461244041000,18.936041015625,10.599000930786133,-0.13695000112056732,-0.28095000982284546
1779997461261317400,18.9533173828125,9.676950454711914,-0.11595000326633453,-0.21705001592636108
1779997461278594000,18.970593994140625,8.872950553894043,-0.11100000888109207,-0.1570500135421753
1779997461295870200,18.9878701171875,8.657999992370605,-0.09405000507831573,-0.1380000114440918
1779997461313147000,19.00514697265625,9.136950492858887,-0.09195000678300858,-0.1660500019788742
1779997461330423600,19.022423583984374,10.051050186157227,-0.12300000339746475,-0.23100000619888306
1779997461347699700,19.03969970703125,10.845000267028809,-0.13005000352859497,-0.28395000100135803
1779997461364976400,19.056976318359375,11.053050994873047,-0.13500000536441803,-0.29805001616477966
1779997461382252800,19.074252685546874,10.579050064086914,-0.1469999998807907,-0.26205000281333923
1779997461399529200,19.091529296875,9.676950454711914,-0.0990000069141388,-0.21405000984668732
1779997461416806000,19.108805908203124,8.890050888061523,-0.10395000129938126,-0.1380000114440918
1779997461434082300,19.126082275390626,8.68695068359375,-0.11100000888109207,-0.10395000129938126
1779997461451358700,19.143358642578125,9.144000053405762,-0.10905000567436218,-0.17805001139640808
1779997461468635100,19.16063525390625,10.021950721740723,-0.12105000764131546,-0.24105000495910645
1779997461485911800,19.177911865234375,10.81605052947998,-0.1399500072002411,-0.25995001196861267
1779997461503188200,19.195188232421874,11.032050132751465,-0.12300000339746475,-0.27195000648498535
1779997461520464600,19.212464599609376,10.555950164794922,-0.13500000536441803,-0.2569500207901001
1779997461537741300,19.2297412109375,9.676950454711914,-0.10605000704526901,-0.2070000171661377
1779997461555017700,19.247017822265626,8.919000625610352,-0.10905000567436218,-0.1469999998807907
1779997461572294100,19.264294189453125,8.71500015258789,-0.11805000901222229,-0.1279500126838684
1779997461589570600,19.281570556640624,9.164999961853027,-0.11100000888109207,-0.1860000044107437
1779997461606847000,19.298846923828126,10.033950805664062,-0.11595000326633453,-0.24795001745224
1779997461624123400,19.316123291015625,10.807050704956055,-0.12105000764131546,-0.29100000858306885
1779997461641400000,19.333400146484376,11.02695083618164,-0.13695000112056732,-0.30000001192092896
1779997461658676700,19.3506767578125,10.575000762939453,-0.1399500072002411,-0.29100000858306885
1779997461675953200,19.367953125,9.699000358581543,-0.10200000554323196,-0.21405000984668732
1779997461693229600,19.3852294921875,8.93595027923584,-0.10200000554323196,-0.12105000764131546
1779997461710506000,19.402506103515623,8.701050758361816,-0.09195000678300858,-0.11595000326633453
1779997461727782400,19.419782470703126,9.121950149536133,-0.10395000129938126,-0.1660500019788742
1779997461745058800,19.437058837890625,9.993000030517578,-0.1279500126838684,-0.21195000410079956
1779997461762335500,19.45433544921875,10.761000633239746,-0.13005000352859497,-0.28095000982284546
1779997461779612200,19.471612060546875,11.01300048828125,-0.13005000352859497,-0.29805001616477966
1779997461796888600,19.488888671875,10.567950248718262,-0.1469999998807907,-0.2650500237941742
1779997461814165000,19.5061650390625,9.724950790405273,-0.12105000764131546,-0.21195000410079956
1779997461831441400,19.52344140625,8.962050437927246,-0.09195000678300858,-0.14505000412464142
1779997461848717800,19.5407177734375,8.71500015258789,-0.08700000494718552,-0.12105000764131546
1779997461865994200,19.557994140625,9.151050567626953,-0.10605000704526901,-0.1660500019788742
1779997461883271000,19.57527099609375,9.991050720214844,-0.1279500126838684,-0.24495001137256622
1779997461900547300,19.59254736328125,10.76400089263916,-0.1469999998807907,-0.29805001616477966
1779997461917823700,19.60982373046875,10.996050834655762,-0.1399500072002411,-0.3049500286579132
1779997461935100400,19.627100341796876,10.587000846862793,-0.13305000960826874,-0.2740500271320343
1779997461952376800,19.644376953125,9.748950004577637,-0.10905000567436218,-0.2070000171661377
1779997461969653200,19.6616533203125,8.971050262451172,-0.10395000129938126,-0.13500000536441803
1779997461986929700,19.6789296875,8.722949981689453,-0.09405000507831573,-0.11100000888109207
1779997462004206300,19.696206298828123,9.120000839233398,-0.09000000357627869,-0.1399500072002411
1779997462021482800,19.713482666015626,9.949950218200684,-0.11595000326633453,-0.21000000834465027
1779997462038759200,19.73075927734375,10.704000473022461,-0.13005000352859497,-0.2770500183105469
1779997462056035800,19.748035888671875,10.984050750732422,-0.15195000171661377,-0.29295000433921814
1779997462073312300,19.765312255859374,10.588950157165527,-0.1279500126838684,-0.28095000982284546
1779997462090588700,19.782588623046873,9.775050163269043,-0.11595000326633453,-0.21195000410079956
1779997462107865000,19.799864990234376,9.031050682067871,-0.11805000901222229,-0.17100000381469727
1779997462125141800,19.817141845703127,8.75100040435791,-0.0970500037074089,-0.16395001113414764
1779997462142418200,19.834418212890625,9.151050567626953,-0.10605000704526901,-0.16395001113414764
1779997462159694600,19.851694580078124,9.943050384521484,-0.11400000751018524,-0.21195000410079956
1779997462176971300,19.86897119140625,10.693950653076172,-0.1279500126838684,-0.27900001406669617
1779997462194247400,19.886247314453126,10.941000938415527,-0.14505000412464142,-0.2959500253200531
1779997462211524000,19.903524169921877,10.564950942993164,-0.12300000339746475,-0.24495001137256622
1779997462228800500,19.920800537109375,9.771000862121582,-0.11595000326633453,-0.19500000774860382
1779997462246077000,19.938076904296874,9.016950607299805,-0.08700000494718552,-0.15000000596046448
1779997462263353300,19.955353271484373,8.767950057983398,-0.0990000069141388,-0.12105000764131546
1779997462280630000,19.972630126953124,9.156000137329102,-0.10605000704526901,-0.1570500135421753
1779997462297906400,19.989906494140627,9.928950309753418,-0.11595000326633453,-0.23100000619888306
1779997462315182800,20.007182861328126,10.693950653076172,-0.12495000660419464,-0.29805001616477966
1779997462332459500,20.02445947265625,10.954950332641602,-0.1489500105381012,-0.3150000274181366
1779997462349736000,20.04173583984375,10.599000930786133,-0.13305000960826874,-0.286050021648407
1779997462367012400,20.059012451171874,9.808950424194336,-0.11805000901222229,-0.22905001044273376
1779997462384289000,20.0762890625,9.07395076751709,-0.11805000901222229,-0.16200000047683716
1779997462401565400,20.0935654296875,8.803950309753418,-0.10200000554323196,-0.14295001327991486
1779997462418841900,20.110841796875,9.127050399780273,-0.10395000129938126,-0.14505000412464142
1779997462436118300,20.1281181640625,9.904950141906738,-0.10605000704526901,-0.1980000138282776
1779997462453395000,20.14539501953125,10.618050575256348,-0.11805000901222229,-0.26205000281333923
1779997462470671000,20.162671142578127,10.912050247192383,-0.12495000660419464,-0.28395000100135803
1779997462487947800,20.17994775390625,10.555950164794922,-0.12495000660419464,-0.25995001196861267
1779997462505224200,20.19722412109375,9.823050498962402,-0.11100000888109207,-0.21000000834465027
1779997462522500900,20.2145009765625,9.096000671386719,-0.11100000888109207,-0.15195000171661377
1779997462539777300,20.23177734375,8.827950477600098,-0.08205000311136246,-0.1469999998807907
1779997462557053700,20.2490537109375,9.163050651550293,-0.11100000888109207,-0.1660500019788742
1779997462574330000,20.266330078125,9.91200065612793,-0.12495000660419464,-0.22395001351833344
1779997462591606500,20.2836064453125,10.630050659179688,-0.1279500126838684,-0.28395000100135803
1779997462608883200,20.30088330078125,10.893000602722168,-0.1399500072002411,-0.2880000174045563
1779997462626159900,20.318159912109376,10.564950942993164,-0.12495000660419464,-0.27195000648498535
1779997462643436000,20.33543603515625,9.826050758361816,-0.1279500126838684,-0.21195000410079956
1779997462660712700,20.352712646484374,9.117000579833984,-0.10200000554323196,-0.16200000047683716
1779997462677989000,20.369989013671876,8.833050727844238,-0.0970500037074089,-0.1279500126838684
1779997462695265800,20.387265869140624,9.160050392150879,-0.11400000751018524,-0.14295001327991486
1779997462712542200,20.404542236328126,9.87600040435791,-0.12105000764131546,-0.2050500065088272
1779997462729818600,20.421818603515625,10.579050064086914,-0.12105000764131546,-0.2670000195503235
1779997462747095300,20.43909521484375,10.86405086517334,-0.1399500072002411,-0.27195000648498535
1779997462764371700,20.456371826171875,10.552950859069824,-0.12105000764131546,-0.2530499994754791
1779997462781648100,20.473648193359374,9.826050758361816,-0.11595000326633453,-0.22095000743865967
1779997462798924500,20.490924560546876,9.133950233459473,-0.0990000069141388,-0.1570500135421753
1779997462816201000,20.508200927734375,8.866050720214844,-0.0990000069141388,-0.1380000114440918
1779997462833477400,20.525477294921874,9.175050735473633,-0.10395000129938126,-0.17805001139640808
1779997462850754000,20.542754150390625,9.877950668334961,-0.12300000339746475,-0.23805001378059387
1779997462868030500,20.560030517578124,10.584000587463379,-0.1399500072002411,-0.28395000100135803
1779997462885307000,20.577306884765626,10.867050170898438,-0.14205001294612885,-0.2959500253200531
1779997462902583600,20.59458349609375,10.564950942993164,-0.13500000536441803,-0.27900001406669617
1779997462919860000,20.61185986328125,9.86400032043457,-0.12105000764131546,-0.22905001044273376
1779997462937136400,20.629136474609375,9.157950401306152,-0.12495000660419464,-0.16395001113414764
1779997462954412800,20.646412841796874,8.884950637817383,-0.0970500037074089,-0.13500000536441803
1779997462971689500,20.663689453125,9.157950401306152,-0.10905000567436218,-0.16200000047683716
1779997462988966000,20.6809658203125,9.856950759887695,-0.12300000339746475,-0.20205001533031464
1779997463006242300,20.6982421875,10.539000511169434,-0.12495000660419464,-0.2550000250339508
1779997463023519000,20.71551904296875,10.82805061340332,-0.13305000960826874,-0.28095000982284546
1779997463040795100,20.732795166015624,10.53600025177002,-0.13695000112056732,-0.2550000250339508
1779997463058071800,20.75007177734375,9.86205005645752,-0.10605000704526901,-0.21900001168251038
1779997463075348500,20.767348388671873,9.177000045776367,-0.10200000554323196,-0.15900000929832458
1779997463092625000,20.784625,8.892000198364258,-0.10200000554323196,-0.13305000960826874
1779997463109901300,20.8019013671875,9.157950401306152,-0.09195000678300858,-0.1570500135421753
1779997463127177700,20.819177734375,9.832950592041016,-0.12105000764131546,-0.2050500065088272
1779997463144454100,20.8364541015625,10.528950691223145,-0.11595000326633453,-0.26205000281333923
1779997463161730600,20.85373046875,10.81605052947998,-0.13305000960826874,-0.286050021648407
1779997463179007200,20.87100732421875,10.558050155639648,-0.12300000339746475,-0.2670000195503235
1779997463196284000,20.888283935546873,9.880950927734375,-0.11805000901222229,-0.23100000619888306
1779997463213560000,20.90556005859375,9.211050033569336,-0.12300000339746475,-0.1879500150680542
1779997463230836700,20.922836669921875,8.9239501953125,-0.09195000678300858,-0.1380000114440918
1779997463248113200,20.940113037109374,9.180000305175781,-0.12105000764131546,-0.14295001327991486
1779997463265389600,20.9573896484375,9.82800006866455,-0.11595000326633453,-0.21405000984668732
1779997463282666000,20.974666015625,10.486050605773926,-0.1279500126838684,-0.286050021648407
1779997463299942700,20.991942626953126,10.7920503616333,-0.14505000412464142,-0.286050021648407
1779997463317219000,21.009218994140625,10.540950775146484,-0.11595000326633453,-0.24795001745224
1779997463334495500,21.02649560546875,9.91200065612793,-0.12105000764131546,-0.21000000834465027
1779997463351772200,21.043772216796874,9.250950813293457,-0.07500000298023224,-0.1469999998807907
1779997463369048600,21.061048583984373,8.928000450134277,-0.09195000678300858,-0.09495000541210175
1779997463386325000,21.078324951171876,9.160050392150879,-0.10395000129938126,-0.1469999998807907
1779997463403601400,21.095601318359375,9.759000778198242,-0.10395000129938126,-0.23595000803470612
1779997463420877800,21.1128779296875,10.444950103759766,-0.1399500072002411,-0.28395000100135803
1779997463438154500,21.130154541015624,10.777950286865234,-0.15900000929832458,-0.31200000643730164
1779997463455431000,21.147430908203123,10.594050407409668,-0.16095000505447388,-0.31200000643730164
1779997463472707300,21.164707275390626,9.997950553894043,-0.1489500105381012,-0.2670000195503235
1779997463489983700,21.181983642578125,9.32295036315918,-0.13005000352859497,-0.19500000774860382
1779997463507260400,21.199260498046876,9.003000259399414,-0.10605000704526901,-0.16200000047683716
1779997463524536800,21.216536865234374,9.153000831604004,-0.10200000554323196,-0.15405000746250153
1779997463541813500,21.2338134765625,9.739950180053711,-0.11805000901222229,-0.18300001323223114
1779997463559089700,21.251089599609376,10.375950813293457,-0.11100000888109207,-0.22395001351833344
1779997463576366300,21.268366455078127,10.70205020904541,-0.12105000764131546,-0.24300001561641693
1779997463593642800,21.285642822265626,10.519950866699219,-0.10905000567436218,-0.22605000436306
1779997463610919200,21.302919189453124,9.945000648498535,-0.11805000901222229,-0.20205001533031464
1779997463628195800,21.32019580078125,9.32295036315918,-0.0970500037074089,-0.17100000381469727
1779997463645472300,21.33747216796875,8.998050689697266,-0.09195000678300858,-0.15900000929832458
1779997463662748700,21.354748779296877,9.189000129699707,-0.11100000888109207,-0.16395001113414764
1779997463680025000,21.372025146484376,9.744000434875488,-0.10200000554323196,-0.23100000619888306
1779997463697301800,21.3893017578125,10.402050018310547,-0.14205001294612885,-0.28395000100135803
1779997463714578200,21.406578125,10.729950904846191,-0.1399500072002411,-0.3079500198364258
1779997463731854600,21.4238544921875,10.564950942993164,-0.13695000112056732,-0.2740500271320343
1779997463749131300,21.44113134765625,9.98805046081543,-0.13005000352859497,-0.21900001168251038
1779997463766407400,21.458407470703126,9.342000007629395,-0.10200000554323196,-0.17100000381469727
1779997463783684000,21.47568408203125,9.010050773620605,-0.10605000704526901,-0.13305000960826874
1779997463800960800,21.492960693359375,9.163050651550293,-0.08205000311136246,-0.1380000114440918
1779997463818237200,21.5102373046875,9.724950790405273,-0.11595000326633453,-0.17805001139640808
1779997463835513600,21.527513671875,10.357050895690918,-0.11805000901222229,-0.23295001685619354
1779997463852790000,21.5447900390625,10.681950569152832,-0.11805000901222229,-0.2650500237941742
1779997463870066700,21.562066650390626,10.528950691223145,-0.1399500072002411,-0.23805001378059387
1779997463887343000,21.579343017578125,9.984000205993652,-0.12300000339746475,-0.23100000619888306
1779997463904619500,21.59661962890625,9.370950698852539,-0.12300000339746475,-0.20205001533031464
1779997463921896200,21.613896240234375,9.046050071716309,-0.12300000339746475,-0.17400000989437103
